sample_no,accel_x,accel_y,accel_z,gyro_x,gyro_y,gyro_z
0,0.2944336,0.36590576,-0.56866455,-53.625,-51.21875,-10.953125
1,-0.1081543,-0.28375244,-0.27178955,-50.125,10.078125,-53.1875
2,1.3693848,-2.0,1.999939,-259.34375,106.609375,-11.03125
3,0.07519531,-1.5422974,-1.166565,152.57812,-91.390625,-11.421875
4,0.39282227,-1.9700317,0.050964355,40.921875,-31.9375,9.984375
5,0.08886719,-1.3850708,0.09466553,5.75,-29.046875,-63.21875
6,-0.11987305,-0.4570923,0.3534546,55.421875,-55.609375,-47.875
7,-0.15722656,0.4923706,0.12786865,70.09375,-16.390625,-0.09375
8,-0.075683594,0.51068115,-0.13995361,-23.6875,-2.15625,23.796875
9,-0.21557617,0.50335693,-0.003479004,-25.640625,17.953125,-42.625
10,0.2163086,0.028503418,-0.031799316,-42.046875,80.03125,-1.78125
11,0.20703125,-0.33892822,0.4977417,-21.234375,45.34375,-8.171875
12,1.1005859,0.17889404,-2.0,448.48438,-61.953125,-51.0625
13,1.999939,-2.0,-1.2598267,-459.65625,280.54688,334.23438
14,1.3464355,-1.067688,0.82562256,79.21875,-70.828125,-121.890625
15,-2.0,-2.0,-2.0,11.09375,117.5625,-29.515625
16,0.055419922,0.04876709,-0.124572754,-33.609375,-42.0,24.3125
17,0.9379883,0.04901123,0.1293335,0.828125,27.75,21.390625
18,0.6525879,-0.16436768,-0.062805176,39.703125,0.1875,16.21875
19,0.19018555,0.3366089,0.46307373,54.90625,16.59375,-22.34375
20,-0.1730957,0.5253296,0.16668701,-2.515625,15.546875,8.6875
21,0.3215332,0.36810303,-0.82769775,-50.453125,-148.20312,-38.5625
22,1.0744629,-0.43658447,-1.7564087,25.546875,-38.15625,-100.421875
23,1.999939,-2.0,1.999939,0.3125,39.40625,-28.28125
24,0.9995117,-1.9028931,-0.87091064,92.015625,-114.375,-34.9375
25,-0.07763672,-1.9675903,-0.22393799,81.09375,-16.234375,-50.90625
26,0.119628906,-0.552063,0.18304443,83.15625,-74.421875,-56.140625
27,0.17089844,0.23724365,0.1708374,8.984375,-1.875,-29.59375
28,-0.2133789,0.3312378,0.20892334,-64.78125,25.734375,-32.125
29,-0.46435547,0.3439331,-0.15704346,-28.46875,12.953125,-37.046875
30,0.106933594,0.19500732,0.17547607,2.4375,46.765625,-31.6875
31,0.123535156,-0.22442627,-0.362854,-28.453125,44.8125,-32.421875
32,1.999939,-0.8064575,-1.8308716,107.71875,-33.640625,275.5
33,1.8603516,-2.0,0.23651123,-313.5,179.53125,-43.71875
34,-0.22192383,-2.0,0.53778076,168.89062,-67.0,-35.25
35,-0.13500977,-1.555481,-0.6553345,-63.25,59.609375,23.703125
36,0.9338379,0.3373413,0.082458496,-74.21875,14.65625,11.96875
37,0.5300293,-0.18267822,0.5988159,-13.1875,8.703125,24.71875
38,0.14941406,-0.41680908,-0.6643677,78.609375,-23.984375,-3.65625
39,0.08959961,0.23968506,0.14886475,30.3125,-7.5625,-8.9375
40,-0.06640625,0.43914795,0.1642456,33.296875,-22.859375,-25.390625
41,0.3930664,0.44354248,-0.7461548,0.8125,-77.234375,-53.765625
42,0.52734375,-0.41900635,-1.0186157,-70.09375,-15.65625,-120.65625
43,1.999939,-2.0,1.999939,-434.92188,289.59375,214.71875
44,0.1887207,-1.0403442,-0.22467041,165.92188,-121.09375,-86.65625
45,0.38452148,-1.8445435,-0.3965454,65.1875,-57.9375,-14.484375
46,0.04663086,-1.352356,0.11883545,-23.109375,-14.34375,-65.796875
47,0.1628418,-0.41070557,0.27044678,32.421875,-38.734375,-48.984375
48,0.053466797,0.27337646,-0.04107666,89.625,-40.390625,-12.109375
49,-0.4946289,0.95526123,0.13275146,-31.625,-27.296875,45.890625
50,-0.29345703,0.44354248,-0.21539307,-16.828125,-22.71875,-42.03125
51,0.2709961,0.2555542,0.066833496,-25.546875,81.75,-17.390625
52,0.64331055,-0.5862427,-0.59210205,-77.421875,-19.8125,-11.0
53,1.999939,-2.0,-1.7993774,-69.203125,-67.609375,388.15625
54,0.5637207,-1.5535278,0.5018921,-148.9375,100.703125,-69.640625
55,-0.45898438,-2.0,-0.05255127,162.90625,-44.609375,-23.734375
56,0.57299805,-1.3030396,-0.6980591,-66.03125,35.0,31.96875
57,1.1518555,0.1618042,0.6691284,-70.71875,27.28125,9.484375
58,0.42700195,-0.27252197,0.113220215,36.234375,19.90625,3.140625
59,-0.020507812,0.1305542,-0.39117432,30.4375,-20.96875,4.453125
60,0.049804688,0.105651855,0.3583374,73.21875,12.375,-21.859375
61,0.07739258,0.33050537,0.20037842,39.421875,-16.65625,-14.90625
62,0.23242188,0.45062256,-0.4661255,-45.125,-55.4375,-27.890625
63,0.45410156,0.19525146,-1.3760376,-32.09375,-61.984375,-80.390625
64,1.999939,-2.0,1.4032593,-512.0,144.875,511.98438
65,0.4050293,-0.85479736,0.09564209,200.57812,-190.04688,-90.515625
66,0.69506836,-1.9959106,-0.74542236,53.390625,-41.515625,18.125
67,-0.08959961,-1.4319458,0.02923584,-30.53125,21.015625,-61.421875
68,-0.22338867,-0.4805298,0.1552124,85.859375,-42.65625,-53.46875
69,-0.03466797,0.33709717,0.24871826,12.390625,-11.578125,-27.421875
70,-0.41625977,1.0348511,0.0065307617,29.328125,2.515625,67.125
71,-0.3251953,0.39105225,-0.058410645,-1.0625,25.90625,-35.75
72,0.24926758,0.2477417,0.018005371,-23.53125,65.640625,-24.578125
73,0.6010742,-0.27618408,0.13470459,-35.125,58.234375,30.828125
74,0.48535156,-0.14605713,-1.3848267,168.78125,-97.359375,29.625
75,1.4194336,-2.0,-1.2173462,-192.48438,366.96875,39.8125
76,0.45874023,-1.6958618,0.6715698,170.71875,-92.484375,-66.421875
77,-0.2890625,-1.3584595,-1.9092407,133.26562,-28.34375,-32.703125
78,0.3083496,-0.33599854,-0.014465332,-89.046875,78.203125,18.140625
79,0.7236328,0.32928467,0.434021,-100.46875,78.140625,15.53125
80,0.16259766,-0.024719238,-0.02130127,46.90625,-4.4375,7.953125
81,0.068359375,0.3373413,0.14447021,87.265625,-2.015625,-3.921875
82,-0.0637207,0.39422607,-0.062316895,28.671875,8.765625,-25.390625
83,0.21875,0.5675659,-0.3406372,-43.921875,-22.28125,-13.609375
84,0.49926758,-0.1296997,-1.1704712,-113.203125,-87.625,-80.5
85,1.999939,-2.0,0.7406616,-512.0,67.21875,511.98438
86,0.21166992,-0.77130127,0.36102295,172.0625,-60.1875,-130.03125
87,0.08959961,-1.4658813,-1.3777466,141.1875,-158.65625,-2.84375
88,-0.6479492,-1.6553345,-0.17510986,-16.96875,16.578125,-17.453125
89,0.024658203,-0.31134033,0.18060303,-6.328125,26.625,-84.78125
90,0.15576172,0.6347046,0.32733154,98.265625,-18.875,15.390625
91,-0.43847656,1.3412476,0.21722412,14.1875,3.875,43.5
92,-0.25610352,0.33880615,-0.13726807,21.09375,5.046875,-34.6875
93,0.29492188,0.23699951,0.00579834,-72.015625,91.25,-56.390625
94,0.41992188,-0.22296143,-0.6243286,-2.28125,-78.28125,16.859375
95,1.999939,-2.0,-2.0,336.17188,-327.79688,511.98438
96,0.4584961,-0.078430176,-0.06964111,64.578125,142.1875,-108.75
97,1.0935059,-1.7600708,-0.48492432,-125.5,75.40625,20.78125
98,0.6418457,-0.49639893,-0.09649658,-44.921875,15.109375,31.984375
99,0.31079102,-0.04034424,0.27947998,-33.125,-4.8125,19.765625
100,0.061523438,-0.07745361,0.0021362305,35.484375,-10.203125,1.90625
101,-0.17797852,0.08319092,-0.2901001,128.10938,16.78125,-51.203125
102,0.15014648,0.23944092,0.18060303,26.640625,12.59375,-41.15625
103,0.4909668,0.47528076,-0.14801025,-79.40625,2.859375,-52.109375
104,0.6647949,0.26434326,-0.8999634,-66.671875,-61.75,-47.8125
105,0.87060547,-2.0,-2.0,-289.67188,-297.76562,365.89062
106,0.14990234,-0.8584595,0.57733154,185.67188,-198.54688,-151.78125
107,1.0197754,-1.7332153,-1.5632935,85.875,-33.8125,-7.5
108,0.25927734,-1.4859009,-0.04498291,-29.03125,31.265625,-56.3125
109,-0.40063477,-0.28399658,0.20648193,45.875,-37.5,-41.9375
110,-0.09008789,0.3554077,0.022644043,33.375,-8.203125,11.328125
111,-0.9313965,1.1908569,0.27313232,41.828125,21.515625,6.921875
112,-0.24047852,0.4882202,-0.033996582,39.953125,12.140625,-44.890625
113,0.1887207,0.1708374,-0.04937744,-15.21875,51.03125,-37.765625
114,0.9382324,-0.30767822,-0.2041626,-89.9375,36.265625,57.1875
115,1.3745117,-0.7642212,-1.0984497,8.609375,9.09375,88.609375
116,1.8249512,-2.0,0.36346436,-263.98438,168.73438,-34.265625
117,-0.6147461,-2.0,-0.08477783,143.46875,28.234375,-20.375
118,0.6838379,-1.4141235,-0.6338501,-2.0,57.796875,-12.796875
119,0.92529297,0.19012451,-0.046691895,-68.84375,21.265625,30.359375
120,0.46362305,-0.009094238,0.4784546,-15.953125,27.921875,-11.734375
121,-0.15576172,0.17572021,-0.17462158,23.125,-6.3125,2.96875
122,-0.064941406,0.35491943,-0.09185791,45.671875,-5.359375,10.828125
123,-0.024658203,0.3949585,0.24212646,13.390625,1.671875,-12.046875
124,0.15234375,0.26556396,-0.5396118,-10.21875,-38.625,-9.046875
125,0.75268555,-0.3880005,-1.3967896,-89.1875,-59.875,-66.484375
126,1.999939,-2.0,1.999939,-89.171875,183.64062,19.0625
127,0.25854492,-1.2359009,-1.1758423,171.125,-82.84375,-67.484375
128,0.14477539,-1.8589478,0.038024902,118.53125,-44.546875,9.75
129,-0.23901367,-0.87823486,-0.113586426,-3.078125,-19.359375,-79.375
130,-0.07910156,-0.0022583008,0.36590576,69.390625,-39.359375,-44.078125
131,-0.09399414,0.25531006,-0.12628174,33.828125,-23.125,-10.5
132,-0.23583984,0.8451538,0.062683105,-20.4375,-3.15625,25.640625
133,-0.0017089844,0.42913818,-0.03326416,9.515625,3.984375,-26.546875
134,0.21289062,0.15301514,-0.32208252,-16.453125,40.421875,-36.0
135,0.84643555,-0.58062744,-0.8115845,-11.828125,-7.28125,-1.734375
136,-0.08251953,-2.0,1.3241577,-84.796875,16.328125,414.59375
137,-0.24536133,-1.4343872,0.11541748,62.890625,32.875,-65.078125
138,0.57592773,-1.772522,-0.5322876,-19.671875,79.265625,-32.421875
139,0.6491699,-0.41192627,-0.30645752,-47.328125,6.09375,19.484375
140,0.68188477,-0.17877197,0.29437256,-31.9375,26.5,-21.1875
141,0.17504883,0.14202881,0.14276123,47.828125,27.453125,-3.421875
142,-0.13183594,0.3739624,-0.027160645,77.75,-2.578125,4.046875
143,-0.021728516,0.3475952,0.0119018555,35.78125,-11.703125,23.796875
144,0.18701172,0.54071045,-0.14776611,-12.875,-19.9375,-30.375
145,0.74438477,-0.008361816,-1.0049438,-81.046875,-74.59375,-36.953125
146,1.999939,-2.0,1.999939,-461.125,-72.125,511.98438
147,-0.24267578,-0.84332275,0.16375732,173.67188,-85.765625,-77.328125
148,0.6376953,-2.0,-0.6453247,86.953125,-96.609375,-18.0
149,0.032226562,-1.3948364,-0.26275635,-4.046875,-0.984375,-43.109375
150,-0.16235352,-0.31622314,0.6071167,43.5,28.15625,-34.734375
151,0.14111328,-0.10333252,0.043640137,47.28125,-36.796875,3.59375
152,-0.08618164,0.26434326,0.093444824,28.21875,14.421875,-0.171875
153,-0.6477051,1.0941772,-0.17633057,-14.4375,19.546875,-24.984375
154,0.12402344,0.29119873,-0.08062744,-38.640625,18.96875,-20.78125
155,0.20629883,-0.1843872,-0.35723877,-80.40625,40.140625,-23.9375
156,1.9929199,-1.1773071,-1.5564575,37.75,110.296875,24.984375
157,1.439209,-1.8291626,0.89886475,-108.0625,90.109375,-90.671875
158,0.26464844,-2.0,-0.012512207,-40.203125,49.046875,-35.59375
159,0.27026367,-1.0383911,-0.082092285,12.171875,46.671875,-12.984375
160,0.6237793,0.0038452148,-0.13360596,-20.421875,-3.84375,22.6875
161,0.45825195,0.046081543,0.2411499,-20.1875,11.921875,2.0
162,-0.08911133,0.22137451,-0.00079345703,53.265625,4.171875,4.65625
163,-0.056396484,0.31365967,0.07659912,72.15625,3.671875,16.671875
164,0.06298828,0.48016357,-0.017150879,20.5625,-10.765625,-24.421875
165,0.17114258,0.27752686,-0.59991455,-16.015625,-34.8125,-13.4375
166,0.48510742,-0.5420532,-1.4785767,-134.76562,-84.484375,-56.5625
167,1.4963379,-2.0,1.999939,116.078125,-2.78125,57.59375
168,0.22607422,-0.7649536,-0.8513794,177.14062,-94.484375,-64.921875
169,0.103759766,-1.9036255,-0.10601807,69.046875,-75.359375,-0.5
170,-0.17285156,-1.1201782,0.008483887,35.34375,-19.28125,-60.265625
171,-0.12939453,-0.08062744,0.39398193,36.71875,-12.5625,-41.890625
172,0.033691406,0.45135498,0.002380371,50.859375,-15.21875,0.296875
173,-0.11621094,1.0221558,0.06781006,-40.625,59.96875,21.765625
174,-0.17382812,0.38128662,-0.04840088,-41.1875,6.625,-28.96875
175,0.15307617,0.082214355,-0.020812988,-19.578125,31.03125,-11.71875
176,0.69189453,-0.56085205,-0.5252075,-41.640625,19.078125,-26.625
177,1.5073242,-2.0,-0.24493408,-276.51562,-105.546875,511.98438
178,-0.06762695,-0.76568604,0.6090698,72.296875,48.8125,-77.796875
179,0.0075683594,-2.0,-0.30255127,-25.125,61.21875,-12.59375
180,0.49169922,-0.63726807,-0.17608643,-13.953125,19.390625,27.796875
181,0.64746094,0.00579834,-0.028381348,-20.40625,15.375,11.1875
182,0.3244629,0.026550293,0.24212646,22.65625,-0.5625,-16.046875
183,0.044921875,0.28338623,-0.046447754,65.078125,2.703125,-4.640625
184,0.08520508,0.3007202,-0.020812988,41.5,3.109375,5.359375
185,-0.115234375,0.59295654,0.06317139,13.21875,-7.484375,-6.921875
186,0.31152344,0.18572998,-0.7127075,-16.140625,-72.5625,-8.203125
187,0.23461914,-1.7974243,0.33953857,-254.6875,135.54688,-115.375
188,0.6828613,-2.0,0.57489014,76.21875,-17.234375,-80.1875
189,0.62524414,-1.7019653,-1.1900024,99.859375,-115.890625,-4.515625
190,0.09033203,-1.6365356,-0.43634033,80.09375,-62.046875,-61.234375
191,-0.30029297,-0.8008423,0.073913574,0.421875,-0.21875,-64.140625
192,0.11645508,0.2645874,0.31292725,37.40625,3.171875,12.28125
193,-0.053710938,0.39764404,0.22381592,-0.328125,27.84375,24.171875
194,-0.5930176,0.98309326,0.015319824,-19.46875,16.90625,-15.90625
195,0.033691406,0.21234131,-0.18341064,-7.078125,5.46875,-12.875
196,0.5397949,0.14422607,-0.3513794,-35.703125,68.0,-59.0
197,0.37597656,-0.73931885,-0.93951416,64.546875,59.28125,-45.203125
198,1.999939,-2.0,0.97869873,-235.17188,179.96875,-45.015625
199,0.4140625,-1.6917114,-0.50616455,55.515625,48.296875,-50.8125
200,0.1303711,-1.1992798,-0.364563,-14.921875,49.953125,-26.03125
201,0.55493164,-0.0025024414,0.11077881,-21.828125,31.828125,18.140625
202,0.5227051,0.09832764,0.369812,-10.796875,0.015625,26.96875
203,0.039794922,0.010437012,0.050231934,26.09375,-13.953125,6.265625
204,-0.091552734,0.2897339,-0.1482544,57.078125,-10.203125,-14.8125
205,-0.115722656,0.31585693,0.04949951,24.46875,-19.328125,-15.203125
206,0.26342773,0.4237671,-0.75177,-15.75,-40.4375,-30.25
207,0.52978516,-0.5828247,-0.3550415,-131.84375,-13.1875,-149.78125
208,1.4228516,-2.0,1.999939,154.23438,-5.515625,91.859375
209,-0.099853516,-0.75323486,-0.5737915,199.84375,-112.546875,-72.78125
210,0.024902344,-1.8960571,-0.21295166,126.53125,-76.90625,3.984375
211,-0.060546875,-0.94195557,-0.041809082,7.90625,-14.640625,-57.171875
212,0.075927734,-0.25054932,0.17059326,-4.234375,2.71875,-32.515625
213,-0.19799805,0.30291748,0.09588623,30.703125,-0.09375,-6.125
214,-0.1394043,0.5897827,0.024841309,-25.640625,56.140625,42.75
215,-0.14233398,0.46209717,-0.07696533,-11.59375,2.953125,-35.9375
216,0.15283203,0.16546631,0.010192871,-13.796875,57.6875,-40.21875
217,0.41503906,-0.40679932,-0.5696411,-11.984375,26.46875,-3.09375
218,1.999939,-2.0,1.999939,-292.70312,-33.09375,511.98438
219,0.56347656,-0.30255127,0.99749756,54.140625,-2.984375,-109.65625
220,0.008544922,-2.0,-0.56427,-3.40625,47.59375,-14.03125
221,0.39282227,-0.2354126,-0.44366455,-45.234375,14.359375,16.59375
222,0.88427734,0.35565186,0.2921753,-16.609375,28.859375,11.90625
223,0.114990234,-0.05230713,0.17840576,19.03125,18.109375,0.71875
224,-0.1899414,0.1552124,0.078308105,60.21875,1.484375,4.296875
225,0.0056152344,0.16131592,-0.057434082,31.015625,-19.109375,-31.046875
226,0.14477539,0.4232788,-0.012023926,6.609375,-8.734375,-13.578125
227,0.6616211,0.4142456,-1.2583618,-17.609375,-97.15625,-11.359375
228,1.999939,-2.0,-1.7727661,-465.10938,-337.96875,511.98438
229,0.14208984,-1.8069458,0.13153076,176.90625,-186.21875,-136.6875
230,0.40795898,-1.3848267,-1.2505493,138.3125,-175.5625,19.34375
231,-0.27905273,-1.3225708,-0.3591919,-11.296875,28.578125,-8.96875
232,0.1184082,-0.80426025,0.31854248,-68.84375,68.0,-47.421875
233,0.2421875,0.17474365,0.39837646,23.015625,-49.46875,-14.109375
234,-0.2043457,0.4262085,-0.14996338,23.71875,15.453125,9.59375
235,-0.3149414,0.9647827,0.11248779,10.65625,15.9375,69.25
236,-0.07055664,0.2929077,-0.17779541,8.609375,-20.375,-38.515625
237,0.38891602,0.06561279,-0.49249268,-41.46875,25.84375,-64.125
238,1.999939,-1.1304321,-1.741272,-263.14062,59.546875,338.5
239,0.3540039,-0.8735962,0.5338745,-67.59375,-7.515625,-124.671875
240,-0.4814453,-2.0,-0.11016846,-24.796875,80.328125,16.828125
241,0.5671387,-0.8518677,-0.45733643,-10.25,24.625,2.578125
242,0.8742676,0.109558105,0.00018310547,-46.375,20.84375,18.0
243,0.30859375,-0.03302002,0.6481323,-14.109375,36.0,-26.125
244,-0.123535156,0.14642334,-0.17364502,40.5625,9.984375,8.359375
245,-0.056884766,0.25115967,-0.05255127,52.8125,-15.515625,-8.453125
246,0.1730957,0.42913818,-0.047912598,5.375,-16.296875,-35.828125
247,0.16577148,0.4796753,-0.4727173,-33.3125,-0.984375,-1.375
248,0.8757324,-0.6831665,-0.8479614,-92.53125,-105.71875,-86.609375
249,0.63720703,-2.0,1.999939,97.0,140.84375,75.171875
250,0.28393555,-0.7749634,-0.2366333,236.46875,-190.39062,-111.015625
251,-0.07397461,-1.7437134,-0.91900635,94.71875,-86.5625,0.28125
252,-0.20410156,-1.2632446,-0.36309814,-20.234375,18.203125,-23.234375
253,-0.0637207,-0.46539307,0.40423584,-30.203125,66.328125,-43.875
254,0.053955078,0.52386475,0.2592163,44.890625,-13.703125,1.265625
255,-0.15991211,0.58465576,0.20281982,17.328125,22.921875,80.296875
256,-0.31030273,0.6137085,-0.07086182,-2.953125,-17.875,-42.03125
257,0.20629883,0.25164795,-0.21270752,-17.03125,29.640625,-27.546875
258,0.68896484,-0.3591919,-0.47955322,-49.296875,17.71875,43.78125
259,1.999939,-2.0,1.999939,-57.828125,38.921875,478.0
260,0.053466797,-0.37652588,0.39520264,14.484375,73.203125,-107.234375
261,0.234375,-1.960022,-0.5203247,11.0625,25.265625,-10.4375
262,0.6296387,-0.7151489,-0.30621338,-14.953125,10.03125,23.953125
263,0.7614746,0.14837646,0.18328857,-63.328125,29.65625,-7.0
264,0.28027344,-0.012268066,0.20135498,4.1875,26.453125,-13.921875
265,-0.109375,0.1359253,0.1005249,59.953125,16.3125,0.578125
266,0.030029297,0.22161865,0.014831543,59.609375,-4.8125,-10.0625
267,0.1821289,0.4882202,-0.022521973,11.546875,-17.640625,-36.0
268,0.16967773,0.44403076,-0.52911377,-55.21875,-32.625,-8.1875
269,0.2849121,-0.4163208,-0.1506958,-110.359375,-25.15625,-82.5625
270,0.040283203,-2.0,1.999939,-0.28125,-28.109375,-60.6875
271,0.56152344,-0.659729,-1.8164673,122.828125,-110.59375,-22.90625
272,-0.21679688,-1.5044556,-0.38116455,48.59375,-55.625,-24.25
273,-0.21264648,-0.9507446,-0.07501221,-19.0,23.75,-2.3125
274,0.13452148,-0.051086426,0.49993896,-46.609375,35.84375,-7.453125
275,-0.14990234,0.35809326,-0.16680908,35.5625,2.0,7.859375
276,-0.17504883,0.5397339,0.043151855,-14.078125,8.734375,58.1875
277,-0.3347168,0.3361206,-0.15484619,0.703125,7.828125,-35.03125
278,0.2783203,0.19476318,-0.48345947,-9.53125,2.0,-21.78125
279,1.7370605,-0.31304932,-1.1768188,42.40625,-11.21875,117.75
280,1.4528809,-2.0,-0.18756104,-167.82812,115.578125,8.84375
281,-0.19067383,-2.0,0.51605225,148.39062,12.9375,-41.703125
282,0.21655273,-1.3919067,-0.74664307,-7.984375,61.21875,-2.59375
283,0.7871094,-0.0134887695,-0.31988525,-80.65625,20.890625,24.828125
284,0.60717773,-0.005432129,0.29437256,-53.890625,39.046875,-2.09375
285,0.008300781,0.0014038086,0.050476074,29.75,11.5,-2.9375
286,-0.05517578,0.21209717,-0.015930176,41.78125,-2.21875,0.84375
287,0.115234375,0.27166748,0.13519287,35.390625,-14.34375,-35.765625
288,0.025878906,0.45013428,-0.23492432,-6.71875,-19.703125,-13.75
289,0.42285156,0.45770264,-0.9998169,12.921875,-83.21875,-11.578125
290,1.999939,-2.0,1.999939,-512.0,217.125,275.28125
291,0.37109375,-0.84869385,0.0038452148,219.82812,-198.65625,-126.125
292,0.40673828,-2.0,-1.7966919,61.25,-57.171875,2.625
293,-0.040527344,-1.3372192,-0.11846924,-11.359375,10.390625,-43.234375
294,-0.18652344,-0.27496338,0.12908936,4.84375,14.453125,-32.140625
295,-0.08105469,0.34588623,0.16619873,17.078125,28.5,-4.59375
296,-0.2084961,0.3156128,0.2723999,12.90625,11.140625,63.96875
297,-0.27954102,0.6100464,-0.08282471,-7.765625,6.359375,-63.90625
298,0.14160156,0.2189331,-0.14117432,-14.1875,39.09375,-40.1875
299,1.0073242,-0.29034424,-0.7686157,-6.6875,-22.28125,7.203125
300,1.999939,-2.0,-1.2380981,-331.07812,7.078125,363.70312
301,0.18334961,-0.5930786,0.5075073,-8.640625,9.28125,-139.04688
302,0.012451172,-2.0,-0.91534424,10.9375,21.171875,8.203125
303,0.64575195,-0.78619385,-0.44244385,-20.828125,20.15625,18.625
304,0.89990234,-0.06573486,0.19500732,-117.625,69.734375,23.171875
305,0.16821289,0.16278076,0.74993896,-22.328125,33.296875,-22.4375
306,-0.15722656,0.08660889,-0.31988525,59.234375,-18.65625,9.546875
307,-0.040039062,0.21575928,-0.015197754,59.984375,-23.90625,-7.421875
308,0.30810547,0.39886475,0.004333496,13.109375,-14.359375,-36.578125
309,0.61572266,0.3842163,-0.7661743,-24.765625,-68.578125,-25.15625
310,0.38720703,-0.34454346,0.015075684,-35.0,35.265625,-77.390625
311,0.5559082,-2.0,1.999939,99.359375,-107.40625,-25.8125
312,0.015380859,-0.7944946,-0.7449341,254.14062,-174.65625,-19.53125
313,-0.25878906,-1.7136841,-0.6643677,101.0,-89.765625,-11.890625
314,-0.24609375,-0.63360596,0.15960693,14.578125,36.0625,-44.453125
315,0.24975586,-0.2588501,0.1395874,-58.828125,46.6875,-23.765625
316,-0.033691406,0.44744873,0.011169434,13.03125,19.8125,22.109375
317,-0.29101562,0.74505615,0.12786865,12.015625,1.84375,72.234375
318,-0.0087890625,0.34002686,-0.08746338,18.78125,10.296875,-32.875
319,0.24365234,0.14300537,-0.45196533,-47.5625,24.546875,-66.6875
320,1.999939,-0.045959473,-0.80474854,47.828125,59.03125,227.79688
321,0.68115234,-2.0,-0.24884033,-268.71875,6.109375,-91.75
322,-0.21435547,-0.8257446,0.09857178,104.234375,57.453125,-67.53125
323,0.5473633,-1.2512817,-0.7835083,36.75,2.234375,11.71875
324,0.6594238,-0.4607544,-0.08258057,-117.3125,39.78125,1.921875
325,0.67456055,0.070251465,0.5700073,-80.625,64.03125,-17.765625
326,-0.15112305,0.015563965,0.007751465,82.421875,2.609375,6.46875
327,-0.19189453,0.1461792,-0.13580322,79.09375,-2.015625,47.234375
328,-0.25634766,0.5519409,0.120788574,40.0625,-4.59375,-39.46875
329,0.3425293,0.49554443,-0.18218994,-48.328125,-27.640625,-117.703125
330,0.79833984,-0.30010986,-0.92437744,-134.5625,-115.34375,-70.09375
331,1.612793,-2.0,1.999939,-176.1875,418.09375,110.984375
332,0.28833008,-0.4290161,0.061462402,262.5625,-223.26562,-127.140625
333,-0.31567383,-1.9251099,-0.97662354,31.546875,-79.765625,3.515625
334,-0.55566406,-1.0964966,-0.19122314,64.765625,-37.75,-18.703125
335,-0.068359375,-0.39312744,-0.12945557,-27.671875,41.875,-23.46875
336,0.16455078,0.56414795,0.1749878,31.1875,47.453125,12.859375
337,-0.107421875,0.3829956,0.22088623,3.375,25.296875,63.796875
338,-0.43237305,0.4315796,-0.11602783,9.28125,0.140625,-36.140625
339,0.13916016,0.16766357,-0.06085205,-4.8125,38.921875,-40.40625
340,0.54711914,-0.39752197,-0.06817627,-143.375,61.859375,-21.1875
341,1.999939,-2.0,0.95721436,-75.234375,-245.51562,511.98438
342,0.5085449,-0.25933838,-0.11260986,7.90625,135.10938,-85.640625
343,0.33789062,-2.0,-0.23052979,-44.90625,78.96875,-18.296875
344,0.41552734,-0.46099854,-0.29766846,-26.328125,5.828125,19.671875
345,0.5698242,0.19525146,0.044128418,-24.359375,7.625,27.328125
346,0.23852539,0.013122559,0.3168335,-12.3125,17.5,-7.59375
347,-0.063964844,0.21429443,0.0067749023,47.15625,14.671875,-6.328125
348,0.024414062,0.29974365,0.01751709,35.9375,-14.3125,-16.9375
349,-0.03564453,0.4401245,0.09637451,-6.703125,-7.6875,-12.171875
350,0.3659668,0.21844482,-0.7522583,3.328125,-82.03125,-0.65625
351,0.41796875,-0.67974854,-0.54229736,-17.890625,-84.953125,-94.609375
352,1.168457,-0.6030884,1.999939,84.046875,-61.640625,-115.9375
353,0.20410156,-1.3103638,-1.5037231,142.90625,-146.85938,20.4375
354,-0.049560547,-1.4312134,-0.16339111,29.71875,-38.78125,5.96875
355,-0.050048828,-0.69073486,0.04119873,25.75,-7.375,-43.859375
356,0.21313477,-0.22247314,0.17376709,4.3125,-4.765625,-0.234375
357,-0.0029296875,0.37713623,0.055847168,49.265625,18.015625,-4.890625
358,-0.14868164,0.6630249,0.21038818,-7.125,22.53125,62.890625
359,-0.26245117,0.35784912,-0.2793579,10.46875,-8.078125,-13.984375
360,0.21801758,0.15008545,-0.3496704,-15.265625,14.359375,-0.078125
361,0.99853516,-0.46759033,-1.0501099,26.796875,-38.765625,4.125
362,1.1945801,-2.0,-1.0671997,-13.6875,254.76562,43.421875
363,0.35766602,-1.2356567,0.31976318,67.5,-21.546875,-9.171875
364,0.62719727,-1.4710083,-0.5293579,-46.265625,25.921875,-11.4375
365,0.52685547,-0.10064697,-0.04937744,-40.5625,26.203125,9.3125
366,0.46191406,-0.15582275,0.22723389,-42.0625,48.3125,11.71875
367,0.049804688,-0.0015258789,-0.0095825195,20.875,-9.96875,6.140625
368,-0.11376953,0.17767334,-0.051574707,58.890625,0.75,2.578125
369,0.013671875,0.34222412,-0.17047119,51.484375,3.734375,1.1875
370,-0.021240234,0.56951904,0.1798706,14.71875,5.171875,-26.265625
371,0.46118164,0.37200928,-1.0830688,-19.34375,-148.98438,-9.375
372,1.999939,-2.0,-0.94244385,-448.3125,-315.09375,332.71875
373,0.66796875,-1.7676392,0.3522339,128.125,-173.07812,-140.26562
374,0.69970703,-1.2608032,-1.2678833,73.953125,-120.453125,16.0625
375,-0.3684082,-1.536438,-0.10772705,103.90625,-17.265625,-22.3125
376,-0.31835938,-0.48077393,0.13787842,-1.40625,14.9375,-38.890625
377,0.36450195,0.26727295,0.16790771,-6.484375,-5.71875,-19.0
378,0.056152344,0.3463745,0.33514404,37.75,25.015625,11.109375
379,-0.07543945,0.72088623,0.0006713867,-24.765625,53.25,48.859375
380,-0.16748047,0.19915771,-0.027648926,12.65625,14.375,-5.875
381,0.29736328,-0.01373291,-0.5730591,-75.921875,-20.0,-12.953125
382,1.999939,-1.354065,-1.7300415,-158.92188,125.875,357.82812
383,0.7246094,-1.3018188,1.2262573,-175.10938,-16.296875,-162.76562
384,-0.5222168,-2.0,-0.43585205,22.21875,69.421875,-4.515625
385,0.47436523,-1.1589966,-0.29229736,41.859375,39.4375,-11.953125
386,0.60131836,0.12542725,-0.0647583,-15.8125,3.796875,19.90625
387,0.4675293,-0.09503174,0.32513428,-23.96875,49.28125,6.71875
388,0.059570312,0.14031982,0.043640137,38.03125,25.8125,2.234375
389,0.042236328,0.24700928,0.039001465,58.96875,8.296875,1.8125
390,-0.022460938,0.56073,0.032165527,17.046875,-22.03125,-24.265625
391,0.026367188,0.5663452,-0.48687744,-5.4375,-54.234375,-28.296875
392,0.6855469,-0.44244385,-0.49371338,-25.515625,-68.03125,-77.0625
393,0.22241211,-2.0,1.999939,-19.453125,140.23438,107.234375
394,0.4104004,-0.8057251,-0.3875122,207.17188,-234.14062,-88.984375
395,0.14477539,-1.6052856,-0.75177,111.125,-91.078125,-4.890625
396,-0.3269043,-1.3267212,-0.28936768,29.75,-21.015625,-26.671875
397,0.0014648438,-0.30914307,0.16278076,-44.03125,38.984375,-24.140625
398,0.04663086,0.555603,0.3805542,41.609375,12.109375,18.3125
399,-0.13354492,0.73114014,0.15496826,-26.609375,38.484375,69.71875
400,-0.19140625,0.5775757,-0.13604736,-8.453125,-22.625,-26.0
401,0.16870117,0.20281982,-0.17510986,3.40625,19.375,-26.59375
402,0.5378418,-0.144104,-0.30499268,-13.0,0.21875,22.640625
403,1.999939,-2.0,1.999939,-147.21875,58.4375,354.42188
404,0.7126465,-0.027404785,0.5543823,-37.296875,105.65625,-116.765625
405,-0.24194336,-2.0,-0.89849854,3.953125,43.0625,18.4375
406,0.53149414,-0.7503052,-0.15802002,-29.671875,8.671875,13.078125
407,0.7585449,0.17352295,0.1762085,-24.265625,21.328125,25.953125
408,0.3544922,-0.04156494,0.44622803,-11.734375,29.15625,-7.453125
409,-0.13378906,0.17181396,-0.043762207,55.0625,-0.5625,8.171875
410,0.14404297,0.23309326,-0.10357666,46.421875,-17.578125,-21.5625
411,0.087646484,0.5199585,0.01727295,7.09375,-0.25,-12.234375
412,0.28515625,0.44256592,-0.9072876,22.46875,-75.0625,-4.84375
413,0.20703125,-0.62701416,0.12884521,-101.296875,-39.609375,-104.203125
414,0.15649414,-2.0,1.906189,125.96875,-6.34375,-59.875
415,0.5708008,-0.2954712,-1.2546997,124.5,-126.625,-15.359375
416,-0.14111328,-1.7097778,-0.31915283,114.96875,-57.734375,-20.546875
417,-0.35717773,-1.0064087,-0.38238525,11.09375,-22.390625,-15.96875
418,0.13867188,-0.054260254,0.17230225,-36.421875,52.921875,-21.90625
419,-0.0056152344,0.43450928,0.17962646,19.34375,9.65625,12.328125
420,-0.15307617,0.4887085,0.0211792,-3.6875,3.46875,64.40625
421,-0.28076172,0.33270264,-0.23614502,12.046875,14.84375,-30.4375
422,0.24609375,0.17791748,-0.54888916,-45.890625,-11.4375,-25.1875
423,1.3161621,-0.14239502,-1.0134888,18.59375,38.375,64.78125
424,1.999939,-2.0,-1.18219,-52.578125,74.0625,-0.359375
425,-0.19482422,-0.784729,0.73553467,150.3125,71.640625,-98.40625
426,0.39160156,-1.5132446,-0.45587158,7.984375,38.46875,23.59375
427,0.65405273,-0.18267822,-0.4475708,-19.15625,-6.359375,41.46875
428,0.9501953,0.19793701,0.2518921,-85.59375,45.46875,13.796875
429,0.16772461,-0.0049438477,0.35028076,-1.59375,19.0625,-21.671875
430,-0.08642578,0.11126709,0.08660889,58.265625,17.25,-1.96875
431,0.059570312,0.26922607,-0.039611816,39.78125,-28.40625,-13.390625
432,0.099121094,0.49725342,-0.12310791,-4.34375,-21.4375,-28.25
433,0.4272461,0.41986084,-0.9092407,-30.34375,-72.859375,-17.015625
434,1.999939,-2.0,1.999939,-512.0,-512.0,511.98438
435,0.704834,-1.0745239,0.04046631,178.3125,-221.84375,-172.64062
436,0.61743164,-1.7942505,-1.255188,59.140625,-57.65625,25.828125
437,0.026123047,-1.4937134,-0.44830322,37.4375,-17.4375,-19.78125
438,-0.20214844,-0.49298096,0.074401855,33.234375,-9.125,-40.78125
439,-0.012939453,0.02923584,0.2255249,1.515625,27.609375,-0.734375
440,-0.17480469,0.43450928,0.057556152,6.703125,20.25,7.75
441,-0.03466797,0.88690186,-0.14459229,-53.609375,17.484375,50.53125
442,-0.075683594,0.20672607,-0.039123535,-7.671875,3.171875,-19.984375
443,0.17919922,-0.031555176,-0.51568604,-40.46875,6.03125,-10.328125
444,1.999939,-0.21368408,-0.9104614,119.046875,19.296875,178.25
445,0.85131836,-1.9666138,-0.23199463,-330.57812,127.828125,-145.76562
446,0.2536621,-2.0,0.3829956,-30.84375,89.03125,-20.625
447,0.47680664,-1.1533813,-0.4668579,-21.96875,31.28125,5.59375
448,0.60180664,0.06878662,-0.08721924,-31.96875,-2.921875,45.40625
449,0.55566406,-0.1428833,0.3649292,-51.21875,4.921875,7.265625
450,0.03173828,0.030944824,0.10467529,41.484375,0.046875,0.796875
451,-0.08569336,0.20477295,-0.05255127,67.953125,6.375,-10.453125
452,0.084228516,0.3776245,0.0048217773,42.1875,-14.296875,-13.671875
453,0.26489258,0.5319214,-0.61016846,14.203125,-45.484375,-23.828125
454,0.69262695,-0.51934814,-1.1748657,-84.359375,-99.78125,-61.453125
455,0.8408203,-2.0,1.4979858,-65.28125,436.32812,1.1875
456,0.41748047,-0.72613525,-0.11016846,168.65625,-213.04688,-135.29688
457,0.21313477,-1.7051392,-0.93927,117.578125,-59.34375,3.109375
458,-0.41723633,-1.2842407,-0.15118408,66.25,-37.359375,-33.859375
459,-0.076660156,-0.519104,-0.077697754,-5.59375,18.203125,-18.328125
460,0.27661133,0.40838623,0.2765503,-17.015625,53.046875,-2.734375
461,-0.024414062,0.36419678,0.3180542,-6.109375,31.65625,65.765625
462,-0.6105957,0.6083374,-0.10089111,-29.0,7.9375,-34.46875
463,0.24487305,0.16888428,-0.4866333,-9.609375,-19.25,-5.171875
464,1.1083984,-0.40777588,-0.63116455,-39.796875,6.015625,-1.6875
465,1.999939,-2.0,1.999939,188.82812,103.375,298.60938
466,-0.3203125,0.18060303,0.04144287,77.234375,60.421875,-149.04688
467,0.14990234,-2.0,-0.12506104,-33.75,97.203125,67.359375
468,0.68847656,-0.45562744,-0.3135376,-46.3125,2.21875,13.640625
469,0.72802734,0.10443115,0.2230835,-34.328125,29.609375,9.625
470,0.15161133,-0.06817627,0.41156006,-0.375,41.421875,-16.734375
471,-0.03955078,0.24017334,-0.20977783,41.984375,6.921875,5.796875
472,0.31567383,0.26507568,-0.06768799,24.46875,-28.328125,-27.21875
473,0.30029297,0.5326538,0.07269287,-5.640625,-7.3125,-28.921875
474,0.31860352,0.3986206,-0.65093994,-2.09375,-20.34375,0.953125
475,0.7775879,-2.0,-2.0,-81.671875,-123.625,-98.421875
476,1.354248,-1.5830688,0.7531128,19.5,-15.046875,-148.60938
477,0.6154785,-1.2925415,-1.2349243,82.84375,-102.6875,33.8125
478,0.12475586,-1.3775024,-0.14434814,81.984375,-69.3125,-4.71875
479,-0.14794922,-0.7937622,-0.1741333,72.171875,-16.140625,-36.875
480,-0.08911133,-0.17364502,0.23602295,-21.484375,24.90625,-20.078125
481,-0.107666016,0.40472412,0.1473999,34.34375,26.96875,15.921875
482,-0.13208008,1.0343628,0.08441162,-53.375,32.1875,48.046875
483,0.039794922,0.40130615,-0.10333252,-7.3125,-17.78125,-25.15625
484,0.36254883,0.15374756,-0.45318604,-33.859375,5.953125,-56.28125
485,1.7226562,-0.42510986,-0.77056885,-57.15625,9.25,128.85938
486,0.87280273,-2.0,-0.3501587,-192.8125,45.59375,-61.609375
487,-0.28320312,-1.5022583,0.30291748,107.875,40.890625,-17.796875
488,0.64501953,-1.135315,-0.86846924,-12.125,51.65625,4.140625
489,0.79663086,-0.12042236,-0.033996582,-97.375,31.453125,29.6875
490,0.5456543,-0.15655518,0.59832764,-44.1875,56.9375,-6.046875
491,-0.06933594,0.0040893555,-0.029846191,55.21875,-4.453125,-6.34375
492,-0.095703125,0.23358154,-0.066711426,53.65625,7.28125,-2.390625
493,0.3972168,0.36273193,-0.070373535,22.40625,-28.1875,-24.609375
494,0.20678711,0.7033081,0.12298584,-20.859375,-9.125,2.828125
495,0.59350586,0.37591553,-1.0801392,-16.921875,-107.4375,1.765625
496,1.999939,-2.0,1.999939,-457.65625,115.84375,379.53125
497,0.7570801,-0.83380127,0.45770264,178.0,-204.95312,-208.51562
498,0.5847168,-1.6692505,-0.8230591,-8.0,-69.15625,13.109375
499,-0.0031738281,-1.5322876,0.030944824,40.34375,-49.921875,-16.703125
500,-0.29516602,-0.3069458,0.1605835,18.890625,-1.46875,-51.546875
501,-0.075683594,0.4064331,-0.019592285,23.53125,1.3125,-5.5625
502,-0.19165039,0.22601318,0.08758545,12.984375,16.265625,48.828125
503,-0.48217773,0.7418823,0.04071045,-7.109375,19.59375,-44.53125
504,0.14160156,0.15008545,-0.12750244,-21.8125,36.015625,-21.125
505,0.79296875,-0.19610596,-0.39996338,-53.8125,15.140625,-60.890625
506,1.999939,-2.0,-1.9832153,-368.96875,-383.45312,511.98438
507,0.49487305,-0.5640259,0.48358154,-112.484375,95.640625,-141.28125
508,0.2668457,-1.9898071,-0.0064086914,88.8125,-60.609375,9.75
509,0.67871094,-0.9365845,-0.597229,-50.5,31.71875,7.953125
510,0.98168945,0.43060303,0.3390503,-89.25,97.140625,4.09375
511,0.32739258,-0.22174072,0.6190796,-9.109375,18.34375,1.84375
512,-0.2253418,0.04901123,-0.3279419,53.859375,-40.421875,7.96875
513,-0.040771484,0.19378662,-0.112854004,54.9375,-25.3125,-27.25
514,0.099853516,0.34100342,0.1774292,10.0625,9.96875,-44.015625
515,0.45629883,0.36102295,-0.84161377,-13.8125,-85.03125,-28.71875
516,1.7062988,-2.0,-2.0,-46.03125,-110.34375,-19.84375
517,0.89990234,-2.0,0.715271,115.0625,-127.53125,-111.578125
518,0.9555664,-1.0864868,-1.2612915,100.15625,-126.453125,14.1875
519,-0.25708008,-1.694397,-0.07281494,62.984375,-0.640625,-40.328125
520,-0.2854004,-0.35333252,0.1281128,31.4375,-23.1875,-31.40625
521,0.14770508,0.0045776367,0.042175293,-11.078125,-0.9375,2.28125
522,-0.115234375,0.2670288,0.17962646,-4.921875,43.9375,17.625
523,-0.5410156,0.8788452,-0.109436035,-6.25,-12.34375,19.703125
524,0.064208984,0.26019287,-0.03741455,14.96875,6.703125,-38.9375
525,0.23779297,0.06463623,-0.16607666,-54.15625,1.578125,-63.640625
526,1.999939,-0.46002197,-2.0,-111.328125,31.203125,435.76562
527,0.84936523,-1.8601685,0.50115967,-231.60938,74.828125,-136.875
528,-0.36401367,-2.0,-0.47198486,44.734375,18.09375,8.6875
529,0.5720215,-1.005188,-0.4006958,-44.859375,41.671875,0.3125
530,0.7849121,0.24822998,-0.1182251,-43.78125,-11.453125,13.421875
531,0.46923828,-0.20025635,0.37664795,-55.0625,51.359375,-4.4375
532,0.0031738281,0.03656006,0.06707764,54.53125,29.25,2.296875
533,-0.030029297,0.31951904,-0.08770752,72.484375,9.375,4.625
534,-0.0146484375,0.5807495,0.00091552734,3.09375,1.6875,-1.390625
535,0.0546875,0.5775757,-0.81207275,-11.453125,-52.703125,-7.765625
536,0.7380371,-1.0652466,-0.659729,-138.67188,-95.65625,-69.28125
537,0.67163086,-2.0,1.999939,133.34375,-31.21875,13.484375
538,-0.033691406,-0.1975708,-0.6524048,271.48438,-157.0,-92.0
539,-0.020263672,-1.5940552,-0.39874268,80.328125,-93.65625,4.53125
540,-0.36523438,-1.0125122,-0.22198486,107.9375,-42.375,-19.984375
541,-0.08666992,-0.28082275,0.00018310547,13.03125,4.984375,23.515625
542,0.041992188,0.1749878,0.089538574,-38.59375,77.390625,-15.09375
543,0.08178711,0.88031006,0.4064331,-67.5,95.0,25.421875
544,-0.38305664,0.59368896,-0.08428955,-21.734375,10.578125,-6.875
545,0.20263672,0.2230835,-0.25152588,12.828125,27.5,-35.78125
546,0.9157715,-0.16314697,-0.8062134,58.546875,19.375,46.6875
547,1.999939,-2.0,-0.5652466,314.39062,281.07812,141.92188
548,0.9638672,-0.59698486,0.37347412,40.09375,84.40625,-99.265625
549,0.0949707,-1.4981079,-0.74835205,15.15625,23.71875,-14.609375
550,0.5004883,-0.2288208,-0.3242798,-19.53125,35.15625,26.46875
551,0.71533203,0.16400146,0.18914795,-46.28125,33.3125,31.078125
552,0.08618164,0.028259277,0.40350342,32.140625,14.359375,-11.6875
553,-0.09814453,0.14666748,0.039001465,18.640625,15.453125,11.5
554,0.12548828,0.45672607,-0.0647583,15.984375,-27.171875,-23.25
555,0.088134766,0.47406006,-0.13775635,1.015625,-28.3125,-25.65625
556,0.5390625,0.09661865,-1.1253052,-63.921875,-82.046875,-17.21875
557,1.999939,-2.0,1.999939,-343.79688,438.96875,70.578125
558,0.38183594,-1.2197876,-0.10015869,216.84375,-255.71875,-127.96875
559,0.54907227,-1.7852173,-0.90826416,85.390625,-73.484375,20.53125
560,0.07836914,-0.9607544,0.11419678,54.125,-43.984375,-13.921875
561,-0.26098633,-0.71759033,-0.16656494,18.75,12.265625,-25.171875
562,-0.045166016,-0.049865723,-0.08282471,-35.46875,45.71875,0.78125
563,-0.20483398,0.34320068,0.09320068,23.03125,42.8125,-2.84375
564,-0.13085938,0.9586792,-0.07208252,-47.046875,46.734375,15.609375
565,0.15014648,0.35516357,0.019714355,-5.203125,2.828125,-37.09375
566,0.64868164,-0.20562744,-0.10601807,-102.75,8.0,-25.265625
567,1.999939,-1.1636353,-2.0,-206.54688,-67.125,347.60938
568,0.3334961,-1.1480103,0.066101074,-159.76562,9.78125,-154.73438
569,-0.28027344,-2.0,-0.394104,-29.265625,59.828125,34.3125
570,0.4819336,-0.75982666,-0.42681885,-24.6875,30.609375,10.375
571,0.83691406,0.031188965,-0.085998535,-85.921875,38.4375,20.734375
572,0.5061035,0.010681152,0.6364136,-29.25,65.140625,-4.109375
573,-0.072509766,0.13397217,-0.06500244,43.59375,2.21875,-7.234375
574,-0.046142578,0.3102417,-0.047424316,56.078125,-10.03125,-0.640625
575,0.115722656,0.35931396,0.008239746,26.078125,-28.84375,-13.9375
576,0.13891602,0.39788818,-0.4475708,-48.78125,-6.140625,-15.375
577,0.85791016,-0.6609497,-0.80963135,-60.625,-101.390625,-97.40625
578,-0.06689453,-2.0,1.999939,105.6875,65.859375,50.3125
579,0.85839844,0.14056396,-0.8496704,218.89062,-161.65625,-95.765625
580,0.12939453,-1.7615356,-0.35723877,26.859375,-59.046875,36.390625
581,-0.3046875,-1.1626587,-0.14093018,67.46875,-46.21875,-41.6875
582,-0.27392578,-0.33184814,0.17913818,-3.125,26.21875,-27.140625
583,-0.06274414,0.40374756,0.08050537,24.921875,19.671875,-0.4375
584,-0.08105469,0.30169678,0.19476318,-18.6875,58.75,44.671875
585,-0.3486328,0.996521,0.14837646,-46.640625,19.28125,-44.71875
586,0.2529297,0.15032959,-0.5745239,-28.046875,-32.40625,-23.078125
587,1.5175781,0.0033569336,-0.4746704,31.53125,-18.359375,70.859375
588,0.79125977,-2.0,-0.8982544,78.578125,-30.4375,4.953125
589,-0.53808594,-0.8994751,-0.6392212,124.859375,141.67188,0.234375
590,0.6262207,-1.2324829,-0.6057739,-36.625,36.6875,-7.171875
591,0.93847656,-0.3928833,-0.13311768,-64.09375,11.296875,13.859375
592,0.75097656,-0.30645752,0.5656128,-55.46875,52.3125,-10.796875
593,-0.06640625,-0.18243408,0.13104248,21.734375,2.671875,-13.96875
594,-0.20483398,0.21942139,-0.16119385,73.796875,8.875,5.71875
595,0.041503906,0.28533936,-0.07330322,48.78125,-31.65625,-2.25
596,0.32421875,0.7160034,0.1071167,-8.6875,-7.0625,-51.4375
597,0.6213379,0.67401123,-0.66656494,-2.78125,-73.65625,-7.21875
598,0.125,-2.0,-0.5718384,-154.10938,-23.109375,-123.140625
599,0.59887695,-2.0,1.5150757,4.34375,14.375,-104.890625
600,0.6777344,-0.5393677,-1.25177,79.640625,-114.328125,9.359375
601,-0.20947266,-1.8814087,-0.0413208,127.4375,-49.46875,17.5
602,-0.3149414,-0.7647095,-0.144104,67.171875,0.828125,-43.921875
603,0.2770996,0.101257324,0.10076904,-22.140625,9.171875,-1.75
604,0.044921875,0.25579834,0.20281982,18.203125,49.890625,0.0
605,-0.035888672,0.61932373,0.12054443,-42.75,84.484375,35.859375
606,-0.22387695,0.39691162,-0.047424316,-22.375,11.546875,-25.09375
607,0.25073242,0.11541748,-0.67681885,-79.015625,-70.296875,-25.125
608,1.7851562,-0.71539307,-0.2456665,-101.390625,106.21875,160.14062
609,0.9614258,-2.0,-0.2390747,-54.078125,-27.5625,-34.890625
610,-0.03881836,-1.076477,0.5258179,-9.9375,103.0625,-40.3125
611,0.46044922,-1.1658325,-0.802063,-7.859375,58.859375,26.46875
612,0.6184082,-0.4421997,0.21502686,-42.03125,18.9375,34.703125
613,0.46948242,-0.033996582,0.2411499,-30.453125,23.640625,6.65625
614,0.2319336,-0.06378174,-0.06500244,11.96875,9.0625,-19.484375
615,-0.036865234,0.1864624,0.08319092,63.984375,10.609375,-7.75
616,0.13720703,0.27825928,0.0048217773,45.078125,-12.546875,-10.484375
617,0.18847656,0.60443115,-0.3045044,-24.03125,-12.953125,-16.6875
618,0.16210938,-0.081604004,-0.83673096,-34.265625,-133.71875,-28.609375
619,1.999939,-2.0,1.999939,-181.125,459.45312,48.921875
620,-0.042236328,-0.76641846,0.20281982,210.76562,-192.96875,-147.4375
621,0.51342773,-1.5750122,-0.48272705,31.5625,-82.953125,-5.625
622,-0.13232422,-1.2212524,-0.04058838,68.203125,-29.640625,-11.953125
623,-0.049804688,-0.5552368,0.17645264,-6.875,-4.640625,-24.59375
624,0.1394043,0.41864014,0.062438965,-7.734375,42.59375,-16.625
625,-0.021972656,0.25872803,0.29144287,14.140625,13.9375,44.0625
626,-0.5007324,0.98846436,0.042663574,-46.296875,11.859375,-11.09375
627,0.0871582,0.16644287,-0.2156372,-0.640625,-9.90625,-14.3125
628,0.8781738,-0.38897705,-0.30426025,-90.625,-1.390625,-59.578125
629,1.999939,-2.0,-2.0,-278.48438,-162.29688,420.875
630,0.203125,-0.77423096,0.078063965,-97.46875,47.078125,-121.3125
631,0.25219727,-2.0,0.31976318,-60.0,103.578125,12.34375
632,0.59643555,-0.70196533,-0.40118408,-11.140625,16.984375,16.78125
633,0.75341797,-0.03765869,-0.02960205,-14.84375,13.59375,10.28125
634,0.2998047,-0.18292236,0.49432373,-22.984375,32.5,-11.96875
635,0.008056641,0.101257324,-0.12335205,49.609375,12.765625,7.40625
636,0.036865234,0.2909546,-0.027648926,44.953125,-14.953125,-3.53125
637,0.11425781,0.41375732,-0.00592041,10.59375,-19.140625,-17.015625
638,-0.0043945312,0.47528076,-0.46954346,-10.78125,-47.421875,-14.625
639,1.0036621,-0.8518677,-1.2764282,-39.890625,-106.453125,-70.71875
640,0.5834961,-2.0,1.999939,-104.21875,172.32812,49.0
641,0.3803711,-0.31134033,-1.1421509,160.29688,-101.546875,-18.796875
642,-0.07495117,-1.7957153,-0.0178833,67.546875,-70.96875,28.4375
643,-0.31982422,-0.8792114,-0.2678833,116.765625,-94.21875,-30.28125
644,-0.31469727,-0.4727173,-0.13995361,39.015625,-31.859375,-24.46875
645,0.03881836,0.24481201,0.25213623,-13.796875,50.8125,-4.515625
646,0.15722656,0.49261475,0.039733887,-70.875,95.890625,19.921875
647,-0.19995117,0.9953003,0.14007568,-32.0625,21.375,-14.84375
648,0.37524414,0.21087646,-0.59454346,-32.984375,-2.703125,-29.78125
649,1.71875,-0.925354,-0.9338989,64.203125,40.046875,-21.9375
650,1.4387207,-2.0,-0.4763794,75.125,84.25,29.484375
651,-0.072753906,-2.0,-0.27618408,103.828125,94.890625,29.109375
652,0.53686523,-1.4417114,-0.43048096,-54.5625,94.015625,-10.4375
653,0.6843262,-0.02911377,-0.26690674,-50.5,16.984375,25.328125
654,0.64575195,-0.18756104,0.36663818,-51.25,19.171875,-9.25
655,-0.17260742,-0.08380127,0.13543701,21.796875,7.046875,-4.8125
656,-0.19677734,0.30511475,-0.20440674,32.265625,4.53125,0.171875
657,0.14575195,0.5006714,-0.08062744,18.65625,-20.3125,-17.59375
658,0.30566406,0.5206909,0.15765381,0.90625,9.84375,-11.328125
659,0.38916016,0.11273193,-0.35406494,-73.0625,-23.265625,-7.9375
660,1.999939,-2.0,1.999939,-175.26562,-185.85938,462.8125
661,1.0270996,0.02557373,0.30975342,143.60938,-101.765625,-92.796875
662,-0.18457031,-2.0,-0.4241333,21.1875,-106.0,54.953125
663,-0.41235352,-1.1817017,0.07757568,49.234375,-61.375,-2.5
664,-0.31274414,-0.6621704,-0.07550049,92.765625,-72.015625,-45.46875
665,0.23632812,-0.08282471,-0.109191895,10.234375,18.3125,-21.015625
666,0.11352539,0.5956421,0.13763428,16.578125,45.5,15.703125
667,-0.026367188,0.9581909,0.105895996,-32.578125,34.15625,44.53125
668,0.046142578,0.24749756,0.08538818,-52.015625,38.1875,-3.984375
669,0.56225586,-0.19342041,-0.40802002,-63.515625,0.578125,-31.0
670,1.999939,-2.0,-1.3870239,-320.17188,-174.82812,511.98438
671,0.3449707,-0.27764893,0.35638428,-31.5625,53.546875,-148.07812
672,0.5515137,-2.0,-0.105041504,-70.015625,121.015625,13.171875
673,0.5097656,-0.9817505,-0.27130127,-45.796875,11.125,22.984375
674,0.6875,-0.1807251,-0.042541504,-24.640625,8.65625,10.59375
675,0.2524414,-0.028625488,0.30828857,3.296875,7.71875,-17.5
676,-0.008056641,0.07318115,-0.14727783,57.9375,10.765625,6.359375
677,0.03125,0.27020264,0.038024902,63.1875,15.234375,-6.59375
678,0.2626953,0.3847046,-0.022766113,-11.875,4.140625,-5.265625
679,0.09765625,0.43988037,-0.77301025,-19.0,-24.890625,-10.5
680,0.7832031,-0.78497314,-0.44439697,-53.75,-90.6875,-172.15625
681,0.7717285,-2.0,1.999939,106.5625,9.875,25.265625
682,0.6569824,-0.87457275,-1.4851685,134.32812,-95.265625,-30.546875
683,0.14086914,-1.5252075,-0.10675049,16.0625,-66.0,13.265625
684,-0.35253906,-1.2940063,-0.22052002,66.53125,-12.40625,-12.828125
685,0.041015625,-0.3237915,0.11834717,-16.328125,20.65625,-44.125
686,0.014892578,0.5309448,-0.0647583,27.03125,36.359375,14.828125
687,-0.20361328,0.5270386,-0.04473877,-12.359375,22.171875,18.90625
688,-0.0769043,0.5067749,0.062927246,-16.171875,21.40625,-20.71875
689,0.31860352,0.14788818,-0.64312744,-57.125,-15.046875,-22.3125
690,1.999939,-0.36895752,-0.5779419,74.859375,13.5625,82.25
691,1.3291016,-2.0,-1.1016235,-45.515625,129.35938,-22.703125
692,0.10083008,-1.8294067,-0.2210083,73.140625,121.875,1.734375
693,0.5214844,-1.2642212,-0.68463135,-57.90625,33.625,-14.75
694,0.8535156,0.19378662,-0.13238525,-61.5,30.9375,24.328125
695,0.70166016,-0.11236572,0.3829956,-41.453125,28.4375,-10.859375
696,-0.25610352,-0.028869629,0.17108154,49.078125,-8.984375,-12.28125
697,-0.22851562,0.19476318,-0.054260254,49.5,3.65625,2.34375
698,0.028808594,0.18548584,0.00579834,31.125,-30.09375,-30.375
699,0.3305664,0.36688232,-0.25421143,-21.46875,-19.59375,-38.5
700,1.0834961,-0.37091064,-1.0982056,-82.046875,-43.078125,-71.046875
701,1.999939,-2.0,1.999939,-512.0,97.859375,372.15625
702,0.5686035,-0.755188,-0.5689087,140.0625,-87.375,-87.28125
703,0.19433594,-2.0,-0.16070557,57.65625,-87.140625,39.203125
704,-0.18359375,-1.430481,-0.28448486,20.015625,-66.375,-45.765625
705,-0.1430664,-0.39483643,0.035583496,29.296875,15.875,-45.671875
706,0.05834961,0.035583496,0.20159912,42.890625,0.8125,-16.703125
707,0.0026855469,0.47576904,0.2855835,47.859375,11.4375,71.125
708,-0.47973633,0.53411865,0.07269287,-30.390625,31.328125,-50.46875
709,0.21069336,0.3336792,-0.18048096,-44.671875,13.046875,-53.859375
710,0.7729492,-0.12823486,-0.35308838,-56.078125,60.59375,-9.5
711,0.5124512,-2.0,-1.7798462,-35.390625,-211.03125,511.98438
712,-0.16845703,-0.55596924,0.5963745,-112.578125,96.46875,-188.10938
713,0.53564453,-2.0,-0.22271729,26.78125,30.609375,17.140625
714,0.6376953,-0.57037354,-0.442688,-43.03125,25.09375,26.171875
715,0.8815918,0.059020996,0.25408936,-99.703125,69.453125,3.265625
716,0.12158203,0.089538574,0.37005615,30.34375,8.875,5.46875
717,-0.16772461,-0.0025024414,0.019470215,94.75,20.0,3.609375
718,-0.1809082,0.09954834,-0.10333252,21.859375,8.765625,-0.53125
719,0.123535156,0.4989624,-0.039611816,-32.390625,-9.78125,-33.59375
720,0.5817871,-0.0017700195,-0.9336548,-98.4375,-94.453125,-74.28125
721,1.999939,-2.0,-2.0,-133.76562,-164.42188,205.21875
722,0.76586914,-1.5342407,0.711853,121.46875,-139.76562,-103.21875
723,0.032226562,-1.9463501,-1.1651001,101.671875,-167.39062,51.03125
724,-0.057861328,-1.3870239,-0.08721924,57.984375,-22.53125,-32.296875
725,0.060791016,-0.4492798,-0.039367676,-14.90625,23.078125,-52.515625
726,0.043945312,0.1473999,0.16033936,17.828125,44.40625,4.96875
727,-0.19799805,0.23382568,0.078552246,-4.90625,41.953125,20.96875
728,-0.3395996,0.760437,0.06903076,-14.15625,21.734375,26.453125
729,0.1171875,0.17669678,-0.0056762695,-1.6875,4.046875,-36.78125
730,0.9296875,-0.18927002,-0.37774658,-81.15625,6.859375,-30.125
731,1.999939,-0.038146973,-1.8511353,18.359375,-33.890625,389.78125
732,0.8569336,-2.0,-0.1663208,-236.01562,30.5625,-136.28125
733,0.18530273,-2.0,-0.17999268,60.140625,67.3125,41.984375
734,0.5932617,-1.0095825,-0.72857666,-19.71875,5.890625,3.828125
735,0.7355957,-0.06793213,-0.08453369,-107.90625,78.875,-0.140625
736,0.27294922,0.11785889,0.6281128,-50.15625,68.046875,11.578125
737,-0.15625,-0.02130127,0.15740967,60.171875,21.234375,12.265625
738,-0.084228516,0.19647217,-0.020812988,51.515625,-4.515625,-9.53125
739,0.20703125,0.41497803,-0.01373291,11.1875,-25.703125,-14.796875
740,0.2775879,0.45526123,-0.1404419,-57.453125,-25.546875,-14.984375
741,0.76000977,-0.33746338,-0.8911743,-67.59375,-133.57812,-76.5
742,1.999939,-2.0,1.999939,-260.48438,504.15625,28.203125
743,0.35253906,-0.74468994,0.24847412,221.45312,-239.9375,-102.296875
744,0.46191406,-1.9692993,-0.70758057,84.078125,-82.734375,12.796875
745,-0.28320312,-1.3457642,0.06756592,72.84375,-6.75,-28.796875
746,-0.080566406,-0.26568604,-0.1404419,6.421875,9.09375,-13.421875
747,0.20507812,0.37225342,0.24847412,13.3125,40.71875,9.46875
748,-0.11376953,0.48944092,0.26483154,7.203125,49.53125,52.296875
749,-0.34350586,0.6918335,-0.06768799,-29.75,-3.875,-50.046875
750,0.09887695,0.19744873,-0.012023926,-14.578125,15.5,-20.15625
751,0.3869629,-0.21246338,-0.1638794,-77.53125,18.40625,11.40625
752,1.5800781,-0.52423096,-0.6482544,27.890625,-9.015625,155.42188
753,0.42382812,-2.0,-0.3027954,-291.64062,140.64062,-133.5625
754,0.6315918,-1.6101685,-0.089904785,60.578125,72.703125,25.484375
755,0.54541016,-1.3047485,-0.6226196,-32.078125,2.3125,1.578125
756,0.56884766,0.1630249,-0.21051025,-36.203125,-20.765625,0.0
757,0.5126953,0.025817871,0.5741577,-24.484375,117.25,-36.90625
758,-0.03930664,0.17840576,0.37542725,71.28125,48.3125,7.71875
759,-0.059570312,0.20648193,-0.18218994,53.828125,1.15625,21.25
