sample_no,accel_x,accel_y,accel_z,gyro_x,gyro_y,gyro_z
0,-0.6726074,-0.06866455,-0.7612915,-0.25,-0.25,-0.046875
1,-0.66308594,-0.07110596,-0.7576294,-0.1875,-0.53125,0.0
2,-0.6660156,-0.07110596,-0.76397705,-0.34375,-0.296875,0.046875
3,-0.66064453,-0.070373535,-0.7515259,-0.390625,-0.34375,0.0625
4,-0.67163086,-0.07354736,-0.767395,-0.484375,-1.109375,-0.015625
5,-0.67285156,-0.07720947,-0.7632446,-0.640625,-1.109375,-0.15625
6,-0.67285156,-0.070129395,-0.7659302,-0.390625,-0.90625,-0.171875
7,-0.6652832,-0.077941895,-0.75982666,-0.234375,-0.921875,0.015625
8,-0.6628418,-0.07891846,-0.7642212,-0.515625,-1.1875,-0.046875
9,-0.6677246,-0.07720947,-0.76519775,-0.53125,-1.046875,0.09375
10,-0.66137695,-0.07672119,-0.76641846,-0.453125,-0.875,-0.0625
11,-0.6706543,-0.074035645,-0.76275635,-0.46875,-0.828125,-0.28125
12,-0.66186523,-0.0725708,-0.76348877,-0.296875,-0.921875,-0.140625
13,-0.6591797,-0.07891846,-0.7588501,-0.421875,-1.4375,-0.0625
14,-0.66064453,-0.07989502,-0.7764282,-0.671875,-1.234375,-0.109375
15,-0.66015625,-0.07598877,-0.7678833,-0.734375,-0.53125,-0.03125
16,-0.6525879,-0.07110596,-0.7637329,-0.125,-0.734375,-0.21875
17,-0.66308594,-0.0791626,-0.7686157,-0.484375,-0.640625,0.015625
18,-0.6582031,-0.08062744,-0.7649536,-0.46875,-0.765625,-0.109375
19,-0.6621094,-0.078186035,-0.7593384,-0.265625,-0.953125,-0.046875
20,-0.66430664,-0.08087158,-0.75982666,-0.484375,-0.96875,-0.046875
21,-0.6633301,-0.0791626,-0.7671509,-0.421875,-1.109375,0.0625
22,-0.6628418,-0.07647705,-0.76641846,-0.703125,-0.90625,-0.015625
23,-0.65356445,-0.077697754,-0.767395,-0.265625,-0.859375,0.03125
24,-0.657959,-0.07623291,-0.7647095,-0.078125,-0.9375,-0.03125
25,-0.65527344,-0.074035645,-0.76519775,-0.125,-1.0,-0.046875
26,-0.65771484,-0.07623291,-0.7661743,-0.21875,-0.984375,-0.015625
27,-0.6533203,-0.08331299,-0.7666626,-0.484375,-1.03125,0.0625
28,-0.65722656,-0.07281494,-0.7683716,-0.359375,-0.84375,0.015625
29,-0.6621094,-0.07598877,-0.7752075,-0.59375,-0.96875,0.0
30,-0.65185547,-0.081848145,-0.7710571,-0.4375,-0.671875,0.0
31,-0.6555176,-0.07330322,-0.769104,-0.078125,-0.90625,0.0
32,-0.66064453,-0.07525635,-0.7859497,-0.703125,-1.046875,0.125
33,-0.6533203,-0.074279785,-0.76690674,-0.125,-0.5,0.09375
34,-0.6557617,-0.07745361,-0.7612915,-0.59375,-0.28125,-0.109375
35,-0.6520996,-0.07940674,-0.7774048,-0.109375,-0.8125,-0.109375
36,-0.6557617,-0.07647705,-0.77423096,-0.28125,-0.734375,0.0625
37,-0.6513672,-0.07965088,-0.77130127,-0.25,-0.4375,-0.015625
38,-0.65722656,-0.078430176,-0.77423096,-0.046875,-0.609375,-0.046875
39,-0.6533203,-0.08111572,-0.7600708,0.140625,-0.34375,-0.125
40,-0.66015625,-0.077697754,-0.7781372,-0.125,-0.734375,-0.0625
41,-0.6557617,-0.085510254,-0.7654419,-0.4375,-0.4375,-0.140625
42,-0.6520996,-0.0803833,-0.77301025,-0.203125,-0.65625,0.015625
43,-0.65600586,-0.081848145,-0.7649536,0.25,-0.828125,-0.046875
44,-0.654541,-0.078430176,-0.770813,-0.03125,-0.6875,-0.078125
45,-0.6489258,-0.074279785,-0.77593994,-0.234375,-0.625,-0.015625
46,-0.6542969,-0.08135986,-0.77349854,-0.265625,-0.484375,-0.09375
47,-0.6586914,-0.07476807,-0.77471924,-0.21875,-0.484375,0.046875
48,-0.6542969,-0.07598877,-0.7698364,-0.21875,-0.453125,-0.046875
49,-0.6484375,-0.07745361,-0.77349854,0.078125,-0.453125,-0.046875
50,-0.64331055,-0.07305908,-0.76641846,0.09375,-0.40625,-0.015625
51,-0.6567383,-0.0791626,-0.77911377,0.0,-0.4375,-0.1875
52,-0.6591797,-0.07720947,-0.77911377,-0.578125,-0.09375,-0.125
53,-0.654541,-0.081848145,-0.77349854,0.078125,-0.125,-0.09375
54,-0.65625,-0.077697754,-0.77545166,-0.078125,-0.09375,-0.3125
55,-0.6550293,-0.07720947,-0.767395,-0.15625,-0.0625,-0.125
56,-0.6503906,-0.074279785,-0.7666626,-0.0625,-0.09375,0.03125
57,-0.66186523,-0.07550049,-0.7732544,-0.140625,-0.203125,-0.171875
58,-0.65771484,-0.08013916,-0.7683716,0.078125,-0.34375,0.0
59,-0.6533203,-0.07574463,-0.7637329,-0.390625,-0.34375,-0.125
60,-0.65600586,-0.07330322,-0.77008057,-0.015625,-0.25,-0.140625
61,-0.6533203,-0.078186035,-0.77008057,0.0625,-0.125,0.015625
62,-0.6616211,-0.07647705,-0.7749634,-0.046875,-0.296875,-0.140625
63,-0.65527344,-0.074035645,-0.772522,-0.0625,-0.21875,-0.09375
64,-0.6567383,-0.077941895,-0.7737427,-0.109375,-0.296875,-0.171875
65,-0.6582031,-0.06793213,-0.77423096,-0.203125,0.203125,-0.109375
66,-0.66064453,-0.07232666,-0.767395,0.21875,0.0,0.015625
67,-0.65478516,-0.07720947,-0.7661743,0.0625,-0.171875,-0.015625
68,-0.65600586,-0.07501221,-0.7654419,0.140625,-0.046875,-0.125
69,-0.66381836,-0.0791626,-0.7698364,-0.6875,-0.703125,-0.078125
70,-0.66064453,-0.08013916,-0.77008057,-0.125,-0.203125,-0.078125
71,-0.6582031,-0.07672119,-0.7612915,-0.40625,0.203125,-0.15625
72,-0.66015625,-0.07574463,-0.7637329,0.109375,-0.046875,-0.140625
73,-0.66381836,-0.074523926,-0.7678833,-0.21875,-0.203125,-0.015625
74,-0.65771484,-0.078430176,-0.7671509,-0.203125,-0.234375,-0.078125
75,-0.6611328,-0.07159424,-0.7661743,-0.140625,-0.3125,0.03125
76,-0.66625977,-0.07598877,-0.7649536,-0.140625,-0.171875,-0.1875
77,-0.66186523,-0.07330322,-0.7605591,0.0,-0.296875,0.046875
78,-0.6594238,-0.07672119,-0.7617798,-0.125,-0.265625,0.015625
79,-0.6657715,-0.07672119,-0.7654419,0.015625,-0.453125,-0.109375
80,-0.6574707,-0.078186035,-0.7630005,0.125,-0.40625,-0.09375
81,-0.6591797,-0.070373535,-0.767395,-0.078125,-0.296875,-0.0625
82,-0.6608887,-0.07208252,-0.76641846,-0.125,-0.4375,0.0
83,-0.66137695,-0.07550049,-0.7671509,-0.125,-0.5,-0.125
84,-0.66625977,-0.07330322,-0.76812744,-0.171875,-0.4375,-0.046875
85,-0.6640625,-0.07330322,-0.7659302,-0.109375,-0.265625,-0.0625
86,-0.66381836,-0.073791504,-0.7620239,0.0625,-0.109375,0.046875
87,-0.66186523,-0.07965088,-0.76031494,0.15625,0.203125,0.03125
88,-0.6657715,-0.06768799,-0.7774048,-0.375,-0.328125,-0.046875
89,-0.6699219,-0.070617676,-0.7630005,0.0625,-0.1875,0.0
90,-0.6652832,-0.06744385,-0.7649536,-0.3125,0.109375,-0.09375
91,-0.66625977,-0.074035645,-0.7617798,0.09375,0.03125,-0.203125
92,-0.6657715,-0.06939697,-0.7654419,-0.09375,-0.125,-0.046875
93,-0.6640625,-0.074279785,-0.7630005,-0.40625,-0.40625,-0.0625
94,-0.6657715,-0.0725708,-0.7625122,-0.296875,-0.1875,-0.171875
95,-0.66748047,-0.07330322,-0.7642212,-0.234375,-0.1875,-0.046875
96,-0.66381836,-0.0725708,-0.7588501,-0.0625,-0.578125,-0.09375
97,-0.66381836,-0.07354736,-0.76226807,-0.34375,-0.375,0.015625
98,-0.6699219,-0.077697754,-0.7632446,-0.265625,-0.5625,0.046875
99,-0.6657715,-0.078186035,-0.7588501,-0.140625,-0.46875,-0.09375
100,-0.66748047,-0.07208252,-0.76226807,-0.21875,-0.796875,-0.015625
101,-0.6689453,-0.07623291,-0.7642212,-0.375,-0.84375,0.03125
102,-0.6677246,-0.07672119,-0.7632446,-0.234375,-0.8125,0.03125
103,-0.66430664,-0.07891846,-0.7581177,-0.4375,-1.03125,-0.03125
104,-0.6647949,-0.074279785,-0.76397705,-0.328125,-0.84375,-0.015625
105,-0.66674805,-0.08087158,-0.76568604,-0.28125,-0.859375,-0.21875
106,-0.6621094,-0.07623291,-0.7625122,-0.3125,-0.8125,-0.109375
107,-0.6652832,-0.07110596,-0.76275635,-0.1875,-0.59375,0.0
108,-0.65893555,-0.07574463,-0.7632446,-0.21875,-0.84375,-0.109375
109,-0.6635742,-0.07354736,-0.767395,-0.625,-0.84375,-0.09375
110,-0.66503906,-0.06964111,-0.7715454,-0.671875,-0.40625,0.0
111,-0.66552734,-0.07476807,-0.7630005,-0.1875,-0.5625,-0.125
112,-0.6608887,-0.077697754,-0.7632446,-0.296875,-0.75,0.015625
113,-0.66625977,-0.077941895,-0.769104,-0.515625,-0.9375,-0.046875
114,-0.6582031,-0.082336426,-0.7612915,-0.375,-1.03125,-0.03125
115,-0.6586914,-0.077941895,-0.7625122,-0.484375,-0.828125,-0.15625
116,-0.6599121,-0.07208252,-0.77349854,-0.25,-1.0625,0.109375
117,-0.66381836,-0.07891846,-0.7683716,-0.828125,-0.796875,-0.15625
118,-0.65893555,-0.07891846,-0.76812744,-0.21875,-0.90625,-0.046875
119,-0.6604004,-0.0803833,-0.7605591,0.03125,-0.890625,-0.09375
120,-0.6604004,-0.078430176,-0.7686157,-0.25,-1.390625,-0.015625
121,-0.66674805,-0.07720947,-0.7761841,-0.40625,-1.234375,-0.0625
122,-0.65722656,-0.07525635,-0.76934814,-0.609375,-1.109375,0.078125
123,-0.6567383,-0.0725708,-0.77130127,-0.46875,-0.90625,0.015625
124,-0.65112305,-0.078430176,-0.769104,-0.390625,-0.609375,-0.078125
125,-0.6582031,-0.08087158,-0.7744751,-0.3125,-0.8125,-0.0625
126,-0.654541,-0.08428955,-0.77008057,-0.234375,-0.3125,-0.09375
127,-0.65405273,-0.07623291,-0.76812744,-0.21875,-0.53125,-0.046875
128,-0.6569824,-0.081848145,-0.767395,-0.03125,-0.5,0.03125
129,-0.64990234,-0.07623291,-0.7710571,-0.125,-0.46875,-0.171875
130,-0.65405273,-0.08428955,-0.7788696,-0.765625,-0.1875,-0.15625
131,-0.65649414,-0.07720947,-0.77423096,0.0,-0.640625,-0.078125
132,-0.65722656,-0.0791626,-0.7720337,-0.203125,-0.546875,-0.09375
133,-0.65649414,-0.07720947,-0.7671509,-0.171875,-0.578125,-0.109375
134,-0.65625,-0.07598877,-0.77130127,-0.09375,-0.546875,-0.171875
135,-0.65600586,-0.08355713,-0.7666626,-0.234375,-0.421875,0.03125
136,-0.6569824,-0.081604004,-0.7637329,0.09375,-0.75,0.015625
137,-0.6611328,-0.078186035,-0.767395,-0.453125,-0.703125,-0.109375
138,-0.65649414,-0.085510254,-0.77423096,-0.015625,-0.65625,-0.046875
139,-0.6501465,-0.08013916,-0.7659302,0.265625,-0.640625,0.03125
140,-0.6567383,-0.077941895,-0.7732544,0.0625,-0.859375,-0.125
141,-0.66186523,-0.077941895,-0.770813,-0.109375,-0.734375,-0.03125
142,-0.6557617,-0.086242676,-0.77301025,-0.109375,-0.578125,-0.015625
143,-0.65625,-0.07720947,-0.76812744,-0.25,-0.546875,-0.109375
144,-0.6520996,-0.07720947,-0.7744751,-0.109375,-0.59375,-0.125
145,-0.6520996,-0.0803833,-0.77301025,0.0,-0.484375,-0.15625
146,-0.6567383,-0.078186035,-0.7720337,0.25,-0.25,-0.078125
147,-0.6555176,-0.07525635,-0.7769165,-0.125,-0.84375,-0.046875
148,-0.6525879,-0.08087158,-0.76519775,0.09375,-0.21875,-0.03125
149,-0.65649414,-0.07989502,-0.77593994,-0.328125,-0.265625,-0.140625
150,-0.65722656,-0.07598877,-0.7749634,0.21875,-0.03125,-0.0625
151,-0.6567383,-0.074035645,-0.7698364,0.109375,-0.25,-0.078125
152,-0.65625,-0.073791504,-0.76568604,-0.0625,-0.234375,-0.1875
153,-0.65356445,-0.07623291,-0.7737427,-0.09375,-0.453125,-0.171875
154,-0.65600586,-0.078186035,-0.7649536,-0.15625,-0.34375,0.046875
155,-0.6647949,-0.07305908,-0.76934814,0.265625,-0.359375,-0.0625
156,-0.66064453,-0.074523926,-0.7761841,-0.296875,-0.46875,-0.0625
157,-0.6569824,-0.077697754,-0.77227783,-0.09375,-0.484375,-0.171875
158,-0.6542969,-0.07672119,-0.7671509,0.109375,-0.265625,-0.078125
159,-0.6582031,-0.07989502,-0.772522,0.09375,-0.359375,-0.171875
160,-0.6555176,-0.07720947,-0.7659302,0.03125,-0.140625,-0.140625
161,-0.6586914,-0.07598877,-0.76934814,-0.03125,-0.1875,-0.046875
162,-0.6555176,-0.07525635,-0.7698364,0.0,-0.046875,-0.015625
163,-0.6591797,-0.07623291,-0.7671509,-0.078125,-0.125,0.09375
164,-0.65966797,-0.07281494,-0.77056885,0.0,-0.140625,-0.0625
165,-0.6635742,-0.07965088,-0.76519775,-0.046875,0.0625,-0.09375
166,-0.6599121,-0.07354736,-0.7612915,0.015625,0.140625,-0.140625
167,-0.6669922,-0.07720947,-0.77667236,-0.453125,-0.328125,-0.140625
168,-0.6604004,-0.07574463,-0.7703247,-0.140625,-0.25,-0.109375
169,-0.65649414,-0.07623291,-0.7600708,-0.3125,0.09375,-0.078125
170,-0.6586914,-0.0803833,-0.7588501,0.15625,0.03125,-0.125
171,-0.6599121,-0.07720947,-0.7647095,0.109375,-0.171875,-0.046875
172,-0.65893555,-0.07183838,-0.7595825,-0.28125,-0.390625,-0.015625
173,-0.6645508,-0.073791504,-0.7666626,-0.1875,-0.25,0.0625
174,-0.66748047,-0.07281494,-0.7654419,-0.28125,-0.078125,-0.171875
175,-0.66308594,-0.07330322,-0.76446533,-0.046875,-0.515625,0.015625
176,-0.66259766,-0.07305908,-0.7605591,-0.328125,-0.078125,-0.109375
177,-0.6645508,-0.0803833,-0.7654419,0.03125,-0.4375,-0.03125
178,-0.6665039,-0.07574463,-0.7581177,-0.015625,-0.1875,-0.109375
179,-0.66259766,-0.073791504,-0.7625122,0.0,-0.671875,-0.140625
180,-0.6633301,-0.07330322,-0.76763916,-0.1875,-0.328125,-0.0625
181,-0.66503906,-0.0725708,-0.7620239,-0.0625,-0.53125,-0.015625
182,-0.6611328,-0.07305908,-0.7637329,-0.28125,-0.28125,0.0625
183,-0.6660156,-0.06890869,-0.76812744,-0.078125,-0.25,-0.109375
184,-0.6665039,-0.0725708,-0.7576294,-0.296875,-0.34375,0.0625
185,-0.6633301,-0.07354736,-0.7654419,-0.1875,-0.359375,-0.15625
186,-0.6621094,-0.07281494,-0.7632446,0.03125,-0.28125,-0.015625
187,-0.6628418,-0.07159424,-0.7649536,-0.1875,-0.40625,-0.1875
188,-0.6635742,-0.0713501,-0.7630005,-0.203125,-0.671875,-0.171875
189,-0.66674805,-0.078430176,-0.76641846,-0.46875,-0.546875,-0.0625
190,-0.66552734,-0.07330322,-0.76275635,-0.078125,-0.140625,-0.1875
191,-0.6660156,-0.074279785,-0.769104,0.046875,-0.4375,-0.171875
192,-0.66503906,-0.070373535,-0.76568604,-0.296875,-0.359375,-0.1875
193,-0.6635742,-0.07501221,-0.7637329,-0.296875,-0.421875,0.015625
194,-0.6628418,-0.07281494,-0.76568604,-0.234375,-0.421875,0.0
195,-0.6652832,-0.07354736,-0.7632446,-0.203125,-0.546875,-0.046875
196,-0.67163086,-0.06500244,-0.7695923,-0.40625,-0.4375,0.09375
197,-0.66186523,-0.06842041,-0.76031494,-0.140625,-0.421875,-0.046875
198,-0.6608887,-0.07159424,-0.7612915,-0.203125,-0.578125,-0.015625
199,-0.66796875,-0.07330322,-0.7642212,-0.140625,-0.71875,-0.0625
200,-0.6647949,-0.07183838,-0.7612915,-0.28125,-0.828125,0.046875
201,-0.66552734,-0.074279785,-0.7625122,-0.28125,-0.671875,-0.046875
202,-0.6660156,-0.070129395,-0.7617798,-0.328125,-0.921875,-0.0625
203,-0.6694336,-0.06915283,-0.7637329,-0.28125,-0.515625,-0.078125
204,-0.6652832,-0.07965088,-0.7605591,-0.296875,-0.859375,-0.078125
205,-0.6594238,-0.06939697,-0.7654419,-0.421875,-0.921875,-0.046875
206,-0.65966797,-0.07159424,-0.76568604,-0.34375,-0.703125,-0.03125
207,-0.65844727,-0.074279785,-0.7625122,-0.296875,-0.734375,0.015625
208,-0.6633301,-0.07354736,-0.7654419,-0.171875,-0.703125,-0.015625
209,-0.6611328,-0.07086182,-0.7678833,-0.578125,-1.015625,-0.046875
210,-0.66430664,-0.07354736,-0.7683716,-0.625,-0.6875,-0.03125
211,-0.6640625,-0.07281494,-0.75909424,-0.25,-0.703125,-0.0625
212,-0.6591797,-0.07330322,-0.76690674,-0.515625,-0.953125,0.03125
213,-0.66259766,-0.070129395,-0.7659302,-0.4375,-0.9375,-0.015625
214,-0.6608887,-0.07720947,-0.7661743,-0.359375,-1.046875,-0.21875
215,-0.6623535,-0.07525635,-0.7625122,-0.40625,-0.703125,-0.125
216,-0.6569824,-0.08062744,-0.76641846,-0.265625,-1.3125,-0.046875
217,-0.65844727,-0.08013916,-0.7715454,-0.6875,-0.984375,0.03125
218,-0.65600586,-0.07525635,-0.76763916,-0.34375,-0.890625,-0.171875
219,-0.6557617,-0.07598877,-0.76519775,-0.171875,-0.796875,-0.15625
220,-0.6567383,-0.07989502,-0.76885986,-0.0625,-1.234375,-0.09375
221,-0.65893555,-0.081848145,-0.7695923,-0.390625,-1.140625,0.0625
222,-0.65478516,-0.07574463,-0.76641846,-0.390625,-1.078125,0.0
223,-0.65478516,-0.074279785,-0.769104,-0.5625,-0.96875,-0.078125
224,-0.65722656,-0.08135986,-0.7671509,-0.53125,-0.921875,-0.046875
225,-0.65356445,-0.07867432,-0.77545166,-0.53125,-0.734375,-0.140625
226,-0.66015625,-0.074523926,-0.77301025,-0.5,-0.796875,-0.03125
227,-0.6586914,-0.08111572,-0.76885986,-0.296875,-0.875,-0.09375
228,-0.65844727,-0.07354736,-0.7666626,-0.390625,-1.234375,-0.03125
229,-0.65234375,-0.08306885,-0.7698364,-0.359375,-0.734375,-0.21875
230,-0.6542969,-0.074035645,-0.77911377,-0.421875,-0.640625,-0.015625
231,-0.6530762,-0.08013916,-0.7715454,-0.234375,-0.671875,-0.171875
232,-0.65722656,-0.07745361,-0.77349854,-0.203125,-0.859375,0.0625
233,-0.65405273,-0.07647705,-0.7732544,-0.234375,-0.765625,-0.171875
234,-0.6491699,-0.07550049,-0.7744751,-0.109375,-0.4375,-0.0625
235,-0.6530762,-0.07574463,-0.7710571,-0.1875,-0.75,-0.15625
236,-0.6542969,-0.07623291,-0.7749634,0.03125,-0.625,-0.078125
237,-0.6520996,-0.07965088,-0.7720337,-0.1875,-0.546875,-0.0625
238,-0.6533203,-0.07745361,-0.77056885,-0.03125,-0.578125,-0.015625
239,-0.65600586,-0.07696533,-0.76641846,0.125,-0.34375,-0.1875
240,-0.6574707,-0.07696533,-0.7727661,0.21875,-0.6875,-0.15625
241,-0.6530762,-0.0791626,-0.7739868,0.125,-0.875,-0.03125
242,-0.6513672,-0.08331299,-0.7727661,0.015625,-0.359375,-0.109375
243,-0.6574707,-0.077941895,-0.7744751,-0.15625,-0.453125,-0.015625
244,-0.657959,-0.07550049,-0.7727661,-0.046875,-0.4375,0.0
245,-0.654541,-0.07623291,-0.77349854,0.0625,-0.265625,0.03125
246,-0.65063477,-0.085754395,-0.7695923,0.015625,-0.3125,0.0
247,-0.64868164,-0.07745361,-0.77423096,0.25,-0.296875,-0.015625
248,-0.6520996,-0.07086182,-0.77471924,-0.171875,-0.46875,-0.078125
249,-0.6484375,-0.08306885,-0.76812744,-0.140625,-0.734375,-0.03125
250,-0.6503906,-0.07965088,-0.77593994,-0.375,-0.0625,-0.015625
251,-0.657959,-0.07574463,-0.77056885,0.15625,-0.25,-0.109375
252,-0.65966797,-0.07672119,-0.77716064,-0.140625,-0.125,-0.171875
253,-0.65649414,-0.08013916,-0.7698364,-0.265625,-0.046875,0.015625
254,-0.6574707,-0.07305908,-0.77178955,-0.078125,-0.21875,-0.09375
255,-0.65527344,-0.0713501,-0.77227783,-0.078125,-0.296875,-0.125
256,-0.65283203,-0.07720947,-0.77008057,-0.140625,-0.375,-0.09375
257,-0.65625,-0.07867432,-0.7752075,-0.375,-0.390625,-0.015625
258,-0.6538086,-0.07354736,-0.7764282,-0.03125,-0.46875,-0.09375
259,-0.65478516,-0.07476807,-0.769104,0.078125,-0.25,-0.078125
260,-0.65356445,-0.081604004,-0.77130127,-0.0625,-0.515625,-0.078125
261,-0.65844727,-0.07354736,-0.7695923,-0.09375,-0.578125,-0.03125
262,-0.6594238,-0.06817627,-0.76641846,-0.109375,-0.53125,-0.203125
263,-0.6555176,-0.07208252,-0.7686157,-0.09375,-0.3125,-0.109375
264,-0.65844727,-0.07305908,-0.77008057,-0.15625,-0.296875,-0.015625
265,-0.6574707,-0.07525635,-0.77471924,-0.0625,-0.578125,-0.125
266,-0.6567383,-0.07501221,-0.77545166,-0.046875,-0.1875,-0.125
267,-0.6623535,-0.07647705,-0.7678833,0.015625,-0.25,-0.109375
268,-0.6569824,-0.074035645,-0.76934814,-0.203125,-0.359375,-0.03125
269,-0.6569824,-0.07598877,-0.7642212,-0.25,-0.78125,-0.03125
270,-0.6633301,-0.07550049,-0.7732544,-0.46875,-0.21875,-0.15625
271,-0.65722656,-0.07232666,-0.76519775,-0.046875,-0.203125,-0.15625
272,-0.6628418,-0.06842041,-0.76934814,-0.21875,-0.34375,-0.03125
273,-0.6635742,-0.07647705,-0.7666626,-0.34375,-0.515625,-0.15625
274,-0.66186523,-0.066223145,-0.7659302,-0.21875,-0.390625,-0.109375
275,-0.65966797,-0.06817627,-0.76885986,-0.234375,-0.5625,-0.09375
276,-0.6594238,-0.070129395,-0.769104,-0.21875,-0.5,-0.015625
277,-0.6647949,-0.07330322,-0.76153564,-0.421875,-0.4375,0.0625
278,-0.65356445,-0.07720947,-0.7671509,-0.03125,-0.4375,0.0625
279,-0.6550293,-0.078430176,-0.7608032,-0.15625,-0.484375,0.0625
280,-0.6635742,-0.070617676,-0.769104,-0.046875,-0.796875,-0.125
281,-0.6604004,-0.0713501,-0.7642212,-0.09375,-0.46875,-0.0625
282,-0.66552734,-0.06695557,-0.7649536,-0.234375,-0.546875,-0.03125
283,-0.6567383,-0.07476807,-0.76568604,-0.078125,-0.40625,-0.046875
284,-0.6599121,-0.0713501,-0.77008057,-0.28125,-0.453125,-0.078125
285,-0.6567383,-0.07330322,-0.76568604,-0.125,-0.53125,-0.078125
286,-0.6567383,-0.07476807,-0.77008057,-0.21875,-0.640625,-0.171875
287,-0.65893555,-0.07574463,-0.7630005,-0.140625,-0.5625,-0.03125
288,-0.65966797,-0.07501221,-0.7620239,-0.125,-0.53125,0.03125
289,-0.657959,-0.07696533,-0.77716064,-0.6875,-0.8125,-0.046875
290,-0.66259766,-0.07720947,-0.77130127,-0.21875,-0.53125,-0.0625
291,-0.6623535,-0.07305908,-0.76519775,-0.375,-0.296875,-0.015625
292,-0.65893555,-0.077941895,-0.7686157,-0.140625,-0.453125,-0.1875
293,-0.6604004,-0.073791504,-0.7695923,-0.359375,-0.640625,0.0
294,-0.657959,-0.07330322,-0.7654419,-0.5,-0.75,-0.046875
295,-0.66015625,-0.07354736,-0.7637329,-0.375,-0.75,-0.1875
296,-0.65771484,-0.07696533,-0.76446533,-0.25,-0.703125,0.015625
297,-0.654541,-0.07745361,-0.769104,-0.328125,-0.875,-0.03125
298,-0.6569824,-0.07672119,-0.7605591,-0.5625,-0.75,-0.03125
299,-0.66064453,-0.07696533,-0.7671509,-0.1875,-0.640625,0.078125
300,-0.65893555,-0.07501221,-0.76763916,-0.328125,-0.9375,-0.140625
301,-0.65966797,-0.07086182,-0.77056885,-0.25,-1.015625,-0.140625
302,-0.66064453,-0.07086182,-0.7686157,-0.328125,-0.8125,-0.234375
303,-0.6533203,-0.07965088,-0.7671509,-0.546875,-0.75,-0.125
304,-0.654541,-0.07501221,-0.76690674,-0.546875,-1.078125,-0.03125
305,-0.657959,-0.077941895,-0.7710571,-0.4375,-0.828125,-0.015625
306,-0.6567383,-0.077697754,-0.7671509,-0.3125,-0.859375,-0.09375
307,-0.6569824,-0.078186035,-0.7649536,-0.34375,-1.015625,-0.140625
308,-0.65649414,-0.077697754,-0.7715454,-0.375,-1.03125,-0.15625
309,-0.6501465,-0.074523926,-0.7710571,-0.3125,-0.890625,0.03125
310,-0.65771484,-0.078186035,-0.7776489,-0.515625,-1.234375,-0.03125
311,-0.6542969,-0.078430176,-0.7715454,-0.78125,-1.09375,-0.046875
312,-0.6503906,-0.08135986,-0.7749634,-0.40625,-0.765625,0.015625
313,-0.65063477,-0.08380127,-0.76348877,-0.1875,-0.640625,-0.078125
314,-0.6557617,-0.081604004,-0.7774048,-0.390625,-0.921875,-0.09375
315,-0.64819336,-0.074523926,-0.769104,-0.53125,-0.875,-0.078125
316,-0.6467285,-0.0869751,-0.77008057,-0.375,-1.109375,-0.03125
317,-0.6503906,-0.08477783,-0.7788696,-0.5,-1.109375,-0.140625
318,-0.64941406,-0.07940674,-0.77423096,-0.390625,-0.8125,0.0
319,-0.65625,-0.07720947,-0.7774048,-0.328125,-1.15625,0.046875
320,-0.65112305,-0.08258057,-0.77056885,-0.40625,-0.78125,-0.109375
321,-0.64868164,-0.07720947,-0.77716064,-0.15625,-0.828125,-0.0625
322,-0.6503906,-0.07965088,-0.7710571,-0.015625,-0.6875,-0.046875
323,-0.6447754,-0.078430176,-0.77593994,0.0,-0.875,-0.03125
324,-0.6525879,-0.07940674,-0.7749634,-0.375,-0.765625,-0.140625
325,-0.6435547,-0.08111572,-0.77471924,-0.28125,-0.71875,-0.078125
326,-0.6533203,-0.07867432,-0.7744751,-0.28125,-0.65625,0.03125
327,-0.6425781,-0.08380127,-0.7764282,-0.28125,-0.5625,-0.234375
328,-0.6418457,-0.08355713,-0.7727661,-0.234375,-0.8125,-0.125
329,-0.64404297,-0.07696533,-0.7715454,-0.03125,-0.625,-0.0625
330,-0.64990234,-0.07672119,-0.7883911,-0.203125,-0.734375,-0.03125
331,-0.6442871,-0.08355713,-0.76934814,-0.359375,-0.296875,-0.078125
332,-0.64819336,-0.07891846,-0.78131104,-0.3125,-0.546875,-0.125
333,-0.64501953,-0.08111572,-0.7686157,0.15625,-0.421875,-0.09375
334,-0.6447754,-0.08087158,-0.7822876,0.015625,-0.390625,-0.078125
335,-0.64697266,-0.0803833,-0.77471924,-0.1875,-0.515625,-0.09375
336,-0.6491699,-0.0791626,-0.77716064,-0.125,-0.28125,-0.109375
337,-0.64746094,-0.07867432,-0.7739868,-0.125,-0.359375,-0.046875
338,-0.64819336,-0.08062744,-0.7769165,0.203125,-0.3125,-0.015625
339,-0.6491699,-0.07989502,-0.7803345,-0.140625,-0.4375,-0.109375
340,-0.6467285,-0.07891846,-0.7686157,-0.09375,-0.25,-0.09375
341,-0.64453125,-0.08135986,-0.7761841,-0.03125,-0.28125,-0.15625
342,-0.64575195,-0.08062744,-0.772522,0.125,-0.40625,0.03125
343,-0.654541,-0.07525635,-0.7761841,0.140625,-0.328125,-0.234375
344,-0.6496582,-0.07867432,-0.7756958,-0.015625,-0.25,0.03125
345,-0.6496582,-0.07989502,-0.7769165,-0.1875,-0.3125,-0.140625
346,-0.64501953,-0.082092285,-0.7764282,-0.15625,-0.359375,-0.234375
347,-0.65185547,-0.0791626,-0.7817993,-0.046875,-0.34375,-0.03125
348,-0.64404297,-0.08306885,-0.7744751,-0.125,-0.25,0.0625
349,-0.65234375,-0.07672119,-0.7815552,0.046875,-0.109375,-0.109375
350,-0.64941406,-0.07476807,-0.78009033,-0.1875,-0.34375,-0.046875
351,-0.6467285,-0.08380127,-0.7720337,0.109375,0.0,-0.09375
352,-0.65185547,-0.07183838,-0.7835083,-0.1875,-0.078125,-0.078125
353,-0.65112305,-0.073791504,-0.769104,-0.09375,0.0,-0.125
354,-0.65283203,-0.07940674,-0.7720337,0.140625,0.03125,-0.109375
355,-0.6533203,-0.07965088,-0.772522,-0.21875,-0.421875,-0.046875
356,-0.6491699,-0.07647705,-0.7703247,-0.203125,-0.296875,-0.0625
357,-0.6525879,-0.078186035,-0.77178955,-0.25,-0.265625,-0.015625
358,-0.6538086,-0.07647705,-0.7671509,-0.109375,-0.28125,-0.171875
359,-0.6533203,-0.07598877,-0.7720337,-0.046875,-0.484375,0.0625
360,-0.6530762,-0.07232666,-0.76885986,-0.140625,-0.421875,-0.125
361,-0.65405273,-0.07745361,-0.7798462,-0.046875,-0.3125,-0.140625
362,-0.64941406,-0.0791626,-0.77545166,-0.015625,-0.4375,0.0
363,-0.6516113,-0.07330322,-0.7749634,-0.046875,-0.453125,0.015625
364,-0.65600586,-0.07330322,-0.7756958,-0.1875,-0.453125,-0.125
365,-0.6520996,-0.07525635,-0.77349854,-0.1875,-0.375,0.0
366,-0.65600586,-0.082092285,-0.7686157,-0.203125,-0.453125,0.125
367,-0.6557617,-0.074279785,-0.7739868,-0.078125,-0.4375,0.015625
368,-0.6550293,-0.07940674,-0.77423096,-0.25,-0.328125,-0.015625
369,-0.6586914,-0.07525635,-0.7715454,0.125,-0.296875,-0.03125
370,-0.65234375,-0.077697754,-0.77960205,-0.40625,-0.546875,-0.171875
371,-0.6516113,-0.08013916,-0.76446533,0.03125,-0.390625,-0.109375
372,-0.6557617,-0.07354736,-0.77960205,-0.3125,-0.46875,-0.015625
373,-0.6555176,-0.077941895,-0.76397705,0.046875,-0.125,-0.109375
374,-0.65234375,-0.070373535,-0.770813,0.140625,-0.40625,-0.234375
375,-0.6542969,-0.07623291,-0.77227783,-0.21875,-0.5625,0.1875
376,-0.6533203,-0.07891846,-0.76568604,-0.34375,-0.484375,-0.078125
377,-0.6574707,-0.08355713,-0.7686157,-0.0625,-0.484375,-0.203125
378,-0.6623535,-0.07330322,-0.7703247,0.078125,-0.359375,-0.109375
379,-0.6586914,-0.07989502,-0.77716064,-0.234375,-0.59375,-0.078125
380,-0.65405273,-0.07598877,-0.76812744,-0.09375,-0.390625,-0.03125
381,-0.6608887,-0.08013916,-0.77130127,-0.046875,-0.5,-0.015625
382,-0.6525879,-0.0791626,-0.769104,-0.125,-0.53125,-0.1875
383,-0.6542969,-0.07525635,-0.7715454,-0.1875,-0.65625,0.0
384,-0.65966797,-0.078186035,-0.769104,-0.328125,-0.65625,-0.0625
385,-0.65600586,-0.08062744,-0.76934814,-0.21875,-0.75,-0.109375
386,-0.65185547,-0.0713501,-0.7749634,-0.28125,-0.578125,-0.046875
387,-0.6533203,-0.07208252,-0.77911377,-0.21875,-0.671875,-0.203125
388,-0.65527344,-0.077697754,-0.7739868,-0.1875,-0.5625,-0.03125
389,-0.6555176,-0.07745361,-0.7698364,-0.234375,-0.546875,-0.125
390,-0.66015625,-0.07501221,-0.77545166,-0.046875,-0.5,-0.125
391,-0.6516113,-0.07696533,-0.77008057,-0.453125,-0.265625,-0.015625
392,-0.6491699,-0.08087158,-0.7756958,-0.140625,-0.453125,-0.09375
393,-0.65771484,-0.082092285,-0.77008057,-0.21875,-0.375,-0.140625
394,-0.65527344,-0.07720947,-0.7698364,-0.25,-0.59375,-0.296875
395,-0.65649414,-0.082092285,-0.77301025,-0.484375,-0.765625,0.078125
396,-0.6484375,-0.077941895,-0.77471924,-0.296875,-0.71875,-0.078125
397,-0.6555176,-0.078186035,-0.7727661,-0.4375,-0.9375,0.015625
398,-0.6501465,-0.07940674,-0.7739868,-0.234375,-0.875,-0.046875
399,-0.65283203,-0.08331299,-0.77789307,-0.421875,-1.21875,-0.046875
400,-0.65356445,-0.08111572,-0.7715454,-0.5,-1.0,-0.15625
401,-0.65283203,-0.08331299,-0.7715454,-0.40625,-1.046875,-0.03125
402,-0.6496582,-0.07720947,-0.77056885,-0.0625,-1.078125,-0.1875
403,-0.6430664,-0.07965088,-0.77593994,-0.28125,-1.171875,0.015625
404,-0.65112305,-0.07672119,-0.7774048,-0.3125,-1.1875,0.0625
405,-0.64697266,-0.082092285,-0.7810669,-0.484375,-0.78125,0.0
406,-0.64990234,-0.085998535,-0.77789307,-0.28125,-0.671875,-0.109375
407,-0.64868164,-0.07647705,-0.77593994,-0.296875,-1.0,-0.109375
408,-0.64331055,-0.07598877,-0.7761841,-0.203125,-0.578125,-0.1875
409,-0.6464844,-0.078430176,-0.7774048,-0.109375,-0.6875,-0.125
410,-0.6491699,-0.081848145,-0.7883911,-0.390625,-1.125,0.140625
411,-0.64624023,-0.077697754,-0.7776489,-0.140625,-0.484375,-0.078125
412,-0.64331055,-0.08428955,-0.77227783,-0.625,-0.3125,-0.046875
413,-0.64819336,-0.08404541,-0.7810669,-0.28125,-0.84375,-0.046875
414,-0.6455078,-0.077697754,-0.7822876,-0.234375,-0.765625,-0.03125
415,-0.6459961,-0.0803833,-0.7769165,-0.296875,-0.625,-0.0625
416,-0.6452637,-0.08502197,-0.7786255,-0.1875,-0.671875,0.015625
417,-0.6472168,-0.07720947,-0.78692627,-0.28125,-0.71875,-0.03125
418,-0.6425781,-0.08453369,-0.7781372,0.03125,-0.65625,-0.0625
419,-0.6425781,-0.07940674,-0.7835083,-0.328125,-0.796875,-0.015625
420,-0.6447754,-0.08502197,-0.7761841,-0.078125,-0.796875,-0.109375
421,-0.64282227,-0.07940674,-0.77423096,0.265625,-0.59375,-0.078125
422,-0.64819336,-0.08404541,-0.7774048,0.125,-0.609375,-0.046875
423,-0.6452637,-0.07989502,-0.78009033,-0.078125,-0.546875,-0.203125
424,-0.64624023,-0.077941895,-0.7774048,-0.265625,-0.484375,-0.15625
425,-0.64208984,-0.08331299,-0.7769165,-0.109375,-0.484375,-0.140625
426,-0.6452637,-0.082336426,-0.7822876,-0.28125,-0.578125,-0.078125
427,-0.6455078,-0.08111572,-0.7769165,-0.140625,-0.375,-0.015625
428,-0.642334,-0.08453369,-0.7739868,0.21875,-0.46875,-0.15625
429,-0.64160156,-0.07940674,-0.78326416,-0.203125,-0.5625,-0.234375
430,-0.6452637,-0.07598877,-0.7739868,-0.078125,-0.453125,-0.109375
431,-0.6503906,-0.07672119,-0.7803345,-0.375,0.0625,-0.203125
432,-0.64990234,-0.078186035,-0.7781372,-0.0625,-0.21875,-0.15625
433,-0.6484375,-0.07501221,-0.77667236,-0.046875,-0.3125,-0.15625
434,-0.64819336,-0.078430176,-0.7788696,0.03125,-0.3125,0.0
435,-0.64453125,-0.07647705,-0.7781372,-0.109375,-0.3125,-0.09375
436,-0.64038086,-0.082092285,-0.772522,-0.15625,-0.25,-0.21875
437,-0.6491699,-0.07891846,-0.77960205,-0.078125,-0.375,-0.046875
438,-0.64746094,-0.08404541,-0.78131104,-0.421875,-0.4375,0.0
439,-0.64086914,-0.07989502,-0.784729,-0.171875,-0.328125,-0.15625
440,-0.64404297,-0.07476807,-0.7715454,0.03125,-0.171875,0.0
441,-0.64697266,-0.07867432,-0.7776489,0.109375,-0.34375,0.046875
442,-0.6477051,-0.07159424,-0.7769165,-0.09375,-0.328125,-0.078125
443,-0.6555176,-0.07501221,-0.77301025,0.015625,-0.109375,0.0
444,-0.6496582,-0.07940674,-0.77008057,-0.09375,-0.15625,-0.109375
445,-0.65185547,-0.07476807,-0.7803345,-0.15625,-0.3125,-0.046875
446,-0.6555176,-0.07501221,-0.78131104,-0.015625,-0.078125,-0.078125
447,-0.6472168,-0.08087158,-0.767395,0.015625,-0.234375,0.0625
448,-0.6455078,-0.07940674,-0.77301025,0.0,-0.296875,-0.09375
449,-0.6489258,-0.07623291,-0.77423096,-0.015625,-0.328125,-0.15625
450,-0.6508789,-0.081848145,-0.7786255,-0.34375,-0.109375,-0.0625
451,-0.6489258,-0.07623291,-0.77545166,-0.046875,0.015625,-0.140625
452,-0.64868164,-0.078186035,-0.7727661,0.0,-0.015625,0.046875
453,-0.6530762,-0.077941895,-0.77178955,-0.265625,-0.375,-0.0625
454,-0.6557617,-0.078186035,-0.77423096,-0.3125,-0.421875,-0.03125
455,-0.65356445,-0.07208252,-0.7769165,-0.171875,-0.359375,-0.09375
456,-0.65893555,-0.07696533,-0.7732544,0.03125,-0.515625,-0.140625
457,-0.6516113,-0.07330322,-0.77960205,-0.34375,-0.53125,0.03125
458,-0.64819336,-0.07550049,-0.77056885,-0.03125,-0.40625,0.046875
459,-0.6533203,-0.06817627,-0.7756958,-0.09375,-0.390625,-0.140625
460,-0.6520996,-0.07574463,-0.77056885,0.078125,-0.484375,-0.125
461,-0.6501465,-0.077697754,-0.769104,-0.078125,-0.4375,-0.171875
462,-0.6542969,-0.08258057,-0.77056885,-0.203125,-0.484375,-0.109375
463,-0.6538086,-0.074035645,-0.77423096,-0.296875,-0.546875,0.03125
464,-0.6479492,-0.07696533,-0.7781372,-0.046875,-0.4375,-0.15625
465,-0.6608887,-0.07183838,-0.7761841,-0.1875,-0.3125,-0.109375
466,-0.657959,-0.081848145,-0.7744751,-0.09375,-0.40625,0.015625
467,-0.6555176,-0.07305908,-0.767395,0.0,-0.1875,-0.15625
468,-0.65112305,-0.0791626,-0.77178955,-0.328125,-0.5625,-0.015625
469,-0.6530762,-0.07891846,-0.77716064,-0.078125,-0.578125,-0.046875
470,-0.65283203,-0.0791626,-0.77716064,-0.296875,-0.546875,-0.140625
471,-0.6550293,-0.08111572,-0.76641846,0.03125,-0.21875,0.0
472,-0.65185547,-0.07525635,-0.7659302,-0.140625,-0.359375,-0.03125
473,-0.6491699,-0.07208252,-0.7727661,-0.4375,-0.5,-0.109375
474,-0.65063477,-0.07476807,-0.76763916,-0.25,-0.5,0.0
475,-0.6525879,-0.073791504,-0.77960205,-0.296875,-0.640625,0.0
476,-0.6557617,-0.070373535,-0.77056885,0.0,-0.484375,-0.03125
477,-0.6555176,-0.07281494,-0.7776489,-0.421875,-0.65625,-0.03125
478,-0.65405273,-0.07989502,-0.76763916,0.0,-0.515625,-0.078125
479,-0.6503906,-0.074279785,-0.7715454,0.03125,-0.25,-0.078125
480,-0.65625,-0.06817627,-0.7683716,0.03125,-0.578125,0.078125
481,-0.6513672,-0.06842041,-0.7739868,-0.078125,-0.578125,-0.078125
482,-0.6520996,-0.07672119,-0.77227783,-0.171875,-0.390625,-0.046875
483,-0.65356445,-0.081604004,-0.7737427,-0.234375,-0.578125,0.09375
484,-0.65405273,-0.07354736,-0.7720337,-0.21875,-0.609375,-0.078125
485,-0.6555176,-0.06793213,-0.7727661,-0.1875,-0.5,0.015625
486,-0.6503906,-0.07476807,-0.76690674,-0.34375,-0.4375,-0.265625
487,-0.654541,-0.07598877,-0.7715454,-0.09375,-0.296875,-0.0625
488,-0.65356445,-0.074279785,-0.7739868,-0.203125,-0.46875,0.0
489,-0.6555176,-0.07281494,-0.7630005,-0.328125,-0.296875,-0.03125
490,-0.6555176,-0.07281494,-0.77545166,-0.3125,-0.46875,-0.046875
491,-0.65966797,-0.07281494,-0.76885986,-0.203125,-0.296875,-0.15625
492,-0.65600586,-0.074035645,-0.76641846,-0.140625,-0.515625,-0.0625
493,-0.65234375,-0.07550049,-0.7678833,-0.328125,-0.5625,-0.078125
494,-0.6604004,-0.07281494,-0.7749634,-0.3125,-0.53125,-0.109375
495,-0.657959,-0.074523926,-0.7732544,-0.390625,-0.78125,-0.078125
496,-0.65771484,-0.074035645,-0.7698364,-0.34375,-0.8125,-0.015625
497,-0.65649414,-0.07476807,-0.7749634,-0.296875,-0.71875,-0.03125
498,-0.65283203,-0.07647705,-0.76934814,-0.390625,-0.78125,-0.046875
499,-0.6574707,-0.081604004,-0.77789307,-0.1875,-0.609375,0.03125
500,-0.65283203,-0.0803833,-0.7698364,-0.03125,-0.59375,-0.0625
501,-0.654541,-0.07867432,-0.7737427,-0.125,-0.765625,-0.109375
502,-0.64941406,-0.07208252,-0.7695923,-0.140625,-0.703125,-0.015625
503,-0.6501465,-0.07550049,-0.77593994,-0.4375,-0.53125,0.0
504,-0.6520996,-0.077941895,-0.77593994,-0.390625,-0.5,0.03125
505,-0.65600586,-0.08135986,-0.7666626,-0.34375,-0.53125,-0.109375
506,-0.65356445,-0.08062744,-0.7727661,-0.125,-0.703125,-0.171875
507,-0.65625,-0.07623291,-0.77471924,-0.34375,-0.578125,-0.046875
508,-0.6567383,-0.07989502,-0.77227783,-0.234375,-0.6875,-0.078125
509,-0.6557617,-0.07354736,-0.7788696,-0.625,-0.703125,-0.015625
510,-0.65356445,-0.07574463,-0.77130127,-0.46875,-0.84375,-0.046875
511,-0.6520996,-0.07598877,-0.77349854,-0.5,-0.390625,0.078125
512,-0.65356445,-0.08087158,-0.77130127,-0.234375,-0.859375,-0.109375
513,-0.6430664,-0.073791504,-0.7727661,-0.3125,-0.703125,-0.125
514,-0.65966797,-0.07574463,-0.77301025,-0.265625,-0.640625,0.03125
515,-0.6459961,-0.07867432,-0.7769165,-0.1875,-0.734375,0.03125
516,-0.654541,-0.078430176,-0.78009033,-0.453125,-0.65625,-0.046875
517,-0.6501465,-0.07867432,-0.77301025,-0.109375,-0.78125,0.0625
518,-0.6491699,-0.07550049,-0.77545166,-0.453125,-0.796875,0.046875
519,-0.6604004,-0.08331299,-0.7764282,-0.1875,-0.828125,-0.078125
520,-0.64282227,-0.078430176,-0.77349854,0.109375,-0.625,-0.03125
521,-0.64624023,-0.08404541,-0.7737427,-0.015625,-0.765625,0.046875
522,-0.6459961,-0.07305908,-0.78253174,-0.1875,-0.796875,-0.046875
523,-0.6467285,-0.07965088,-0.7786255,-0.21875,-0.546875,0.0625
524,-0.6516113,-0.077697754,-0.7752075,-0.1875,-0.59375,0.046875
525,-0.6491699,-0.08404541,-0.7793579,-0.1875,-0.390625,-0.015625
526,-0.6398926,-0.0803833,-0.7776489,-0.109375,-0.609375,-0.203125
527,-0.64819336,-0.08453369,-0.77593994,-0.03125,-0.515625,-0.078125
528,-0.6516113,-0.07745361,-0.7817993,-0.125,-0.78125,-0.046875
529,-0.6452637,-0.078430176,-0.7744751,-0.296875,-0.296875,-0.109375
530,-0.6503906,-0.06939697,-0.7827759,-0.1875,-0.296875,-0.1875
531,-0.64624023,-0.077941895,-0.77471924,-0.03125,-0.125,-0.078125
532,-0.65185547,-0.07525635,-0.7774048,-0.046875,-0.375,-0.125
533,-0.6530762,-0.07574463,-0.7737427,-0.09375,-0.171875,-0.140625
534,-0.6413574,-0.08282471,-0.77227783,-0.109375,-0.34375,-0.15625
535,-0.6501465,-0.07672119,-0.77960205,-0.25,-0.5,0.015625
536,-0.6442871,-0.08526611,-0.76885986,0.109375,-0.28125,-0.015625
537,-0.64404297,-0.08062744,-0.7827759,-0.25,-0.484375,-0.046875
538,-0.64868164,-0.07745361,-0.7749634,-0.21875,-0.28125,0.0
539,-0.6516113,-0.077941895,-0.7764282,-0.09375,-0.265625,-0.1875
540,-0.6447754,-0.078186035,-0.7744751,0.203125,-0.375,0.0
541,-0.65234375,-0.07354736,-0.7761841,-0.09375,-0.34375,-0.125
542,-0.6459961,-0.077941895,-0.77911377,-0.09375,-0.34375,-0.140625
543,-0.6530762,-0.074523926,-0.77545166,-0.09375,-0.4375,-0.09375
544,-0.6496582,-0.07574463,-0.77667236,-0.125,-0.4375,-0.046875
545,-0.6503906,-0.07696533,-0.77423096,-0.046875,-0.265625,-0.109375
546,-0.65405273,-0.08331299,-0.7776489,-0.03125,0.015625,-0.046875
547,-0.64819336,-0.07476807,-0.77301025,0.203125,-0.15625,-0.03125
548,-0.6533203,-0.077941895,-0.7876587,-0.46875,-0.453125,-0.046875
549,-0.65283203,-0.06964111,-0.7769165,-0.109375,-0.21875,0.03125
550,-0.64868164,-0.07305908,-0.76641846,-0.328125,0.109375,-0.125
551,-0.65649414,-0.07159424,-0.77301025,0.15625,-0.25,-0.109375
552,-0.6530762,-0.07623291,-0.7732544,-0.078125,-0.21875,-0.140625
553,-0.65600586,-0.07745361,-0.77593994,-0.203125,-0.359375,0.109375
554,-0.6533203,-0.077941895,-0.7715454,-0.15625,-0.359375,-0.140625
555,-0.6550293,-0.08331299,-0.7727661,-0.15625,-0.5625,-0.078125
556,-0.6550293,-0.07647705,-0.7703247,-0.03125,-0.5,-0.03125
557,-0.6567383,-0.07354736,-0.77130127,-0.421875,-0.421875,0.015625
558,-0.6479492,-0.06500244,-0.7649536,0.078125,-0.4375,-0.09375
559,-0.6520996,-0.07354736,-0.769104,-0.078125,-0.25,0.015625
560,-0.6591797,-0.07989502,-0.7737427,0.0,-0.5,-0.015625
561,-0.65356445,-0.07720947,-0.77227783,-0.0625,-0.53125,0.0625
562,-0.65356445,-0.074035645,-0.7739868,-0.203125,-0.6875,-0.046875
563,-0.6574707,-0.069885254,-0.77301025,-0.125,-0.5,-0.015625
564,-0.65771484,-0.07745361,-0.7744751,-0.03125,-0.5625,-0.015625
565,-0.65185547,-0.07940674,-0.77545166,-0.359375,-0.546875,0.015625
566,-0.65112305,-0.08013916,-0.7666626,0.0,-0.359375,-0.125
567,-0.6520996,-0.07208252,-0.77789307,-0.375,-0.59375,-0.015625
568,-0.64868164,-0.07525635,-0.77423096,0.0,-0.375,-0.0625
569,-0.6496582,-0.07281494,-0.77227783,-0.390625,-0.4375,0.0625
570,-0.6604004,-0.07354736,-0.7698364,0.0,-0.296875,-0.109375
571,-0.6520996,-0.07525635,-0.7732544,0.015625,-0.421875,-0.046875
572,-0.65771484,-0.077941895,-0.77056885,-0.265625,-0.546875,-0.140625
573,-0.65112305,-0.07672119,-0.76812744,-0.09375,-0.65625,0.03125
574,-0.6542969,-0.07720947,-0.77178955,-0.265625,-0.46875,0.0
575,-0.6533203,-0.0725708,-0.7715454,0.0,-0.375,-0.046875
576,-0.6533203,-0.07745361,-0.77593994,-0.234375,-0.578125,-0.015625
577,-0.66259766,-0.07647705,-0.77301025,-0.109375,-0.609375,-0.125
578,-0.65893555,-0.0725708,-0.77471924,0.0,-0.296875,-0.0625
579,-0.65185547,-0.07965088,-0.772522,-0.03125,-0.609375,-0.125
580,-0.6555176,-0.06549072,-0.77056885,-0.203125,-0.734375,-0.078125
581,-0.6538086,-0.07208252,-0.7737427,-0.25,-0.375,0.015625
582,-0.6530762,-0.073791504,-0.77301025,-0.1875,-0.640625,0.03125
583,-0.65722656,-0.074523926,-0.7695923,-0.265625,-0.421875,-0.28125
584,-0.65600586,-0.07305908,-0.7744751,-0.109375,-0.5,-0.109375
585,-0.65283203,-0.07208252,-0.77471924,-0.328125,-0.375,-0.03125
586,-0.65649414,-0.07525635,-0.77056885,-0.203125,-0.40625,-0.015625
587,-0.6508789,-0.074035645,-0.7761841,-0.28125,-0.453125,0.0625
588,-0.6533203,-0.07574463,-0.7715454,-0.4375,-0.5625,-0.078125
589,-0.6567383,-0.07720947,-0.77349854,-0.34375,-0.53125,-0.078125
590,-0.6599121,-0.0791626,-0.7752075,-0.1875,-0.609375,0.0
591,-0.65893555,-0.06939697,-0.76885986,-0.375,-0.515625,-0.140625
592,-0.6555176,-0.07208252,-0.77349854,-0.328125,-0.703125,-0.125
593,-0.657959,-0.069885254,-0.7666626,-0.265625,-0.6875,-0.09375
594,-0.6555176,-0.07745361,-0.7727661,-0.28125,-0.71875,0.03125
595,-0.6569824,-0.07232666,-0.77593994,-0.296875,-0.78125,0.0625
596,-0.6508789,-0.074279785,-0.77667236,-0.5,-0.890625,-0.046875
597,-0.6533203,-0.07354736,-0.7744751,-0.15625,-0.796875,-0.125
598,-0.65844727,-0.07623291,-0.77301025,-0.15625,-0.671875,-0.125
599,-0.6538086,-0.074523926,-0.7752075,-0.09375,-0.78125,-0.1875
600,-0.6611328,-0.08013916,-0.77545166,-0.28125,-0.859375,0.03125
601,-0.65478516,-0.078186035,-0.7737427,-0.296875,-0.84375,0.0625
602,-0.6508789,-0.07672119,-0.7732544,-0.328125,-0.875,-0.046875
603,-0.65478516,-0.07574463,-0.77667236,-0.40625,-0.78125,0.0
604,-0.6508789,-0.078430176,-0.7715454,-0.515625,-0.84375,-0.1875
605,-0.64990234,-0.07232666,-0.77593994,-0.265625,-0.71875,-0.015625
606,-0.6516113,-0.07745361,-0.77471924,-0.234375,-0.890625,-0.0625
607,-0.65625,-0.07354736,-0.77667236,-0.34375,-0.9375,-0.03125
608,-0.64868164,-0.07891846,-0.7761841,-0.421875,-0.640625,-0.09375
609,-0.6538086,-0.07696533,-0.7761841,-0.59375,-0.3125,-0.03125
610,-0.65112305,-0.078186035,-0.7756958,-0.078125,-0.734375,-0.078125
611,-0.64404297,-0.074035645,-0.77667236,-0.234375,-0.671875,0.078125
612,-0.6447754,-0.073791504,-0.770813,-0.140625,-0.75,-0.125
613,-0.64990234,-0.07623291,-0.7732544,-0.21875,-0.84375,-0.109375
614,-0.65063477,-0.07574463,-0.77789307,-0.359375,-0.734375,-0.03125
615,-0.6425781,-0.07354736,-0.7737427,-0.03125,-0.8125,-0.109375
616,-0.6533203,-0.08477783,-0.7803345,-0.265625,-0.703125,0.0625
617,-0.64501953,-0.07696533,-0.7805786,-0.234375,-0.671875,-0.046875
618,-0.6467285,-0.08087158,-0.7732544,0.078125,-0.625,-0.078125
619,-0.6501465,-0.08282471,-0.77423096,-0.109375,-0.625,0.0
620,-0.6467285,-0.07867432,-0.7749634,0.078125,-0.5625,-0.015625
621,-0.64404297,-0.073791504,-0.7776489,-0.140625,-0.53125,-0.078125
622,-0.6472168,-0.078430176,-0.77789307,-0.234375,-0.515625,-0.046875
623,-0.65063477,-0.0803833,-0.77789307,-0.3125,-0.515625,-0.125
624,-0.64697266,-0.07672119,-0.7732544,-0.171875,-0.421875,-0.015625
625,-0.6503906,-0.07891846,-0.7769165,-0.15625,-0.46875,-0.078125
626,-0.6459961,-0.07867432,-0.7686157,-0.046875,-0.375,-0.03125
627,-0.6520996,-0.07623291,-0.7761841,0.046875,-0.125,-0.09375
628,-0.6464844,-0.07989502,-0.7810669,-0.375,-0.34375,-0.140625
629,-0.6484375,-0.07867432,-0.7749634,0.296875,-0.34375,-0.03125
630,-0.64990234,-0.07940674,-0.7769165,0.0625,-0.328125,-0.203125
631,-0.6530762,-0.07672119,-0.77911377,-0.109375,-0.40625,-0.0625
632,-0.64868164,-0.07330322,-0.77178955,0.015625,-0.4375,-0.125
633,-0.6530762,-0.078186035,-0.77838135,-0.09375,-0.328125,-0.03125
634,-0.6525879,-0.077941895,-0.7744751,-0.03125,-0.21875,-0.046875
635,-0.65112305,-0.07672119,-0.77423096,-0.25,-0.234375,-0.125
636,-0.6501465,-0.07501221,-0.770813,-0.1875,-0.46875,-0.0625
637,-0.64624023,-0.08062744,-0.7761841,-0.03125,-0.234375,-0.109375
638,-0.6533203,-0.074035645,-0.77716064,0.125,-0.171875,-0.015625
639,-0.6455078,-0.07281494,-0.7698364,-0.046875,-0.484375,-0.1875
640,-0.6491699,-0.069885254,-0.7769165,0.0,-0.34375,-0.078125
641,-0.6569824,-0.07623291,-0.77301025,-0.140625,-0.375,0.109375
642,-0.65063477,-0.07696533,-0.77130127,-0.0625,-0.328125,-0.09375
643,-0.65283203,-0.07891846,-0.7752075,-0.046875,-0.234375,-0.03125
644,-0.6542969,-0.07720947,-0.7744751,0.125,-0.34375,-0.078125
645,-0.654541,-0.07574463,-0.78253174,-0.140625,-0.296875,0.015625
646,-0.64819336,-0.07989502,-0.7659302,-0.0625,0.09375,-0.0625
647,-0.6520996,-0.074035645,-0.77545166,-0.28125,-0.390625,-0.109375
648,-0.654541,-0.07501221,-0.767395,-0.0625,-0.015625,-0.078125
649,-0.6567383,-0.07110596,-0.77301025,0.09375,-0.234375,-0.234375
650,-0.65893555,-0.078186035,-0.7695923,-0.140625,-0.59375,-0.046875
651,-0.65893555,-0.07574463,-0.76934814,-0.234375,-0.421875,0.09375
652,-0.6557617,-0.07550049,-0.769104,-0.15625,-0.40625,0.03125
653,-0.6503906,-0.07232666,-0.770813,0.078125,-0.484375,-0.15625
654,-0.6555176,-0.077697754,-0.7695923,-0.15625,-0.546875,0.015625
655,-0.6574707,-0.07525635,-0.7686157,-0.140625,-0.5,0.03125
656,-0.66186523,-0.07672119,-0.7737427,0.0625,-0.3125,-0.25
657,-0.6503906,-0.078186035,-0.77130127,0.046875,-0.203125,0.0
658,-0.65771484,-0.07623291,-0.7678833,0.0,-0.3125,-0.046875
659,-0.64941406,-0.07525635,-0.77423096,-0.078125,-0.390625,-0.171875
660,-0.65234375,-0.07330322,-0.77349854,-0.078125,-0.453125,-0.1875
661,-0.65527344,-0.0803833,-0.77227783,-0.046875,-0.390625,-0.125
662,-0.65283203,-0.07965088,-0.7749634,-0.25,-0.453125,0.015625
663,-0.65356445,-0.0713501,-0.76812744,-0.1875,-0.359375,-0.078125
664,-0.6557617,-0.07598877,-0.7720337,0.0,-0.171875,0.03125
665,-0.6525879,-0.07330322,-0.7661743,0.046875,-0.28125,-0.03125
666,-0.6567383,-0.06890869,-0.77716064,-0.21875,-0.625,-0.140625
667,-0.65893555,-0.073791504,-0.7737427,-0.515625,-0.28125,-0.15625
668,-0.6516113,-0.07476807,-0.7661743,-0.015625,-0.1875,-0.078125
669,-0.6516113,-0.07647705,-0.7703247,0.078125,-0.359375,0.015625
670,-0.6633301,-0.06915283,-0.7683716,-0.3125,-0.40625,-0.140625
671,-0.6616211,-0.07305908,-0.76446533,-0.21875,-0.40625,-0.078125
672,-0.6555176,-0.07940674,-0.76641846,-0.265625,-0.3125,-0.21875
673,-0.6591797,-0.074523926,-0.77423096,-0.140625,-0.46875,-0.078125
674,-0.65527344,-0.074035645,-0.77423096,-0.296875,-0.625,-0.125
675,-0.657959,-0.07696533,-0.7654419,-0.09375,-0.5,-0.09375
676,-0.6652832,-0.074035645,-0.772522,0.109375,-0.59375,-0.125
677,-0.6594238,-0.07183838,-0.7710571,-0.109375,-0.703125,-0.046875
678,-0.65600586,-0.07232666,-0.770813,-0.15625,-0.640625,-0.046875
679,-0.65625,-0.07647705,-0.7752075,-0.234375,-0.421875,0.015625
680,-0.65722656,-0.07647705,-0.77008057,-0.171875,-0.359375,-0.03125
681,-0.6582031,-0.07598877,-0.7671509,-0.234375,-0.515625,-0.046875
682,-0.66064453,-0.073791504,-0.77227783,-0.109375,-0.65625,-0.125
683,-0.66015625,-0.0713501,-0.7678833,-0.203125,-0.40625,-0.171875
684,-0.6567383,-0.07330322,-0.7642212,-0.046875,-0.53125,-0.125
685,-0.65405273,-0.077697754,-0.76446533,-0.328125,-0.65625,-0.046875
686,-0.6516113,-0.07330322,-0.77008057,0.015625,-0.46875,-0.078125
687,-0.6599121,-0.069885254,-0.77227783,-0.4375,-0.640625,-0.109375
688,-0.6574707,-0.07623291,-0.7671509,-0.203125,-0.609375,0.015625
689,-0.65893555,-0.07867432,-0.7720337,-0.359375,-0.703125,-0.03125
690,-0.65625,-0.08013916,-0.7715454,-0.4375,-0.59375,-0.234375
691,-0.65356445,-0.074035645,-0.772522,-0.375,-0.65625,-0.03125
692,-0.6555176,-0.07208252,-0.76812744,-0.375,-0.625,-0.109375
693,-0.65356445,-0.07305908,-0.769104,-0.125,-0.640625,0.015625
694,-0.65185547,-0.07232666,-0.767395,-0.359375,-0.734375,-0.03125
695,-0.6525879,-0.07525635,-0.76934814,-0.4375,-0.828125,-0.09375
696,-0.6513672,-0.07965088,-0.7737427,-0.21875,-0.6875,-0.109375
697,-0.65405273,-0.07159424,-0.77545166,-0.125,-1.09375,-0.203125
698,-0.65356445,-0.07305908,-0.772522,-0.15625,-0.765625,-0.078125
699,-0.6530762,-0.07330322,-0.7781372,-0.421875,-1.0625,0.0
700,-0.6530762,-0.07476807,-0.76885986,-0.328125,-0.84375,-0.015625
701,-0.6516113,-0.07183838,-0.77056885,-0.28125,-0.71875,-0.03125
702,-0.6459961,-0.07623291,-0.7715454,-0.234375,-0.71875,-0.125
703,-0.65234375,-0.07330322,-0.7739868,-0.28125,-0.671875,0.0
704,-0.6516113,-0.070617676,-0.77130127,-0.5625,-0.71875,0.015625
705,-0.6525879,-0.07525635,-0.7683716,-0.140625,-0.71875,-0.125
706,-0.6550293,-0.077697754,-0.78082275,-1.09375,-1.21875,0.125
707,-0.6484375,-0.077697754,-0.7774048,-0.4375,-0.984375,-0.0625
708,-0.6442871,-0.078430176,-0.7715454,-0.578125,-0.6875,-0.09375
709,-0.6513672,-0.07940674,-0.7774048,-0.34375,-1.03125,-0.046875
710,-0.6467285,-0.07159424,-0.77667236,-0.40625,-1.0625,0.078125
711,-0.64990234,-0.08331299,-0.77545166,-0.484375,-0.84375,-0.140625
712,-0.6508789,-0.07598877,-0.7854614,-0.515625,-1.109375,-0.078125
713,-0.6496582,-0.07623291,-0.7749634,-0.328125,-0.984375,0.140625
714,-0.6520996,-0.08258057,-0.78009033,-0.46875,-1.15625,0.0625
715,-0.6467285,-0.074279785,-0.7822876,-0.640625,-0.84375,0.0
716,-0.6430664,-0.08477783,-0.78131104,-0.328125,-1.09375,-0.0625
717,-0.6516113,-0.082336426,-0.77838135,0.0,-0.75,-0.015625
718,-0.6479492,-0.08380127,-0.7761841,-0.171875,-1.140625,-0.0625
719,-0.64746094,-0.07745361,-0.7866821,-0.453125,-1.234375,-0.0625
720,-0.64575195,-0.074279785,-0.7786255,-0.5,-0.75,0.078125
721,-0.64331055,-0.085998535,-0.78204346,-0.234375,-0.859375,-0.125
722,-0.64575195,-0.07940674,-0.77960205,-0.4375,-0.765625,-0.03125
723,-0.6425781,-0.081604004,-0.7739868,-0.21875,-0.609375,-0.1875
724,-0.6411133,-0.08111572,-0.77789307,-0.234375,-0.765625,-0.03125
725,-0.6398926,-0.08306885,-0.784729,-0.234375,-0.78125,-0.109375
726,-0.6452637,-0.07476807,-0.7798462,-0.125,-0.390625,-0.171875
727,-0.6413574,-0.08428955,-0.7803345,-0.3125,-0.25,-0.015625
728,-0.6425781,-0.0881958,-0.7786255,-0.046875,-0.65625,-0.140625
729,-0.6467285,-0.08062744,-0.77667236,-0.09375,-0.421875,-0.109375
730,-0.6464844,-0.08111572,-0.7786255,-0.140625,-0.359375,-0.09375
731,-0.6447754,-0.074279785,-0.7810669,0.0,-0.484375,-0.109375
732,-0.6430664,-0.078430176,-0.77716064,-0.171875,-0.3125,-0.0625
733,-0.64208984,-0.08331299,-0.7776489,0.109375,-0.40625,-0.015625
734,-0.64501953,-0.08087158,-0.7817993,-0.203125,-0.375,0.0625
735,-0.64331055,-0.0803833,-0.77911377,-0.125,-0.296875,-0.015625
736,-0.642334,-0.07867432,-0.77667236,0.140625,-0.203125,-0.125
737,-0.64160156,-0.07623291,-0.7798462,0.15625,-0.484375,-0.203125
738,-0.64453125,-0.08135986,-0.77545166,-0.015625,-0.46875,-0.1875
739,-0.64038086,-0.077941895,-0.7810669,-0.109375,-0.375,-0.125
740,-0.6459961,-0.07574463,-0.78082275,-0.078125,-0.34375,0.03125
741,-0.64624023,-0.082092285,-0.7803345,-0.171875,-0.40625,-0.09375
742,-0.6413574,-0.08404541,-0.77789307,-0.078125,-0.28125,-0.0625
743,-0.64868164,-0.07672119,-0.77227783,0.28125,-0.1875,-0.109375
744,-0.6501465,-0.08062744,-0.7888794,-0.40625,-0.53125,-0.078125
745,-0.64038086,-0.077941895,-0.7744751,0.0625,-0.265625,-0.140625
746,-0.64624023,-0.08355713,-0.77423096,-0.140625,0.15625,-0.109375
747,-0.64501953,-0.07867432,-0.7835083,0.078125,-0.328125,-0.078125
748,-0.64990234,-0.078186035,-0.78009033,-0.03125,-0.25,-0.046875
749,-0.64941406,-0.07525635,-0.77227783,-0.15625,-0.3125,-0.078125
750,-0.64697266,-0.07086182,-0.77716064,-0.28125,-0.296875,-0.046875
751,-0.6484375,-0.07525635,-0.7776489,-0.421875,-0.296875,-0.09375
752,-0.6503906,-0.08062744,-0.77667236,-0.125,-0.484375,-0.21875
753,-0.6520996,-0.07623291,-0.78009033,-0.484375,-0.296875,-0.03125
754,-0.6513672,-0.074279785,-0.7720337,0.03125,-0.28125,-0.109375
755,-0.6491699,-0.07183838,-0.7786255,0.109375,-0.140625,-0.140625
756,-0.6484375,-0.07989502,-0.78253174,0.125,-0.375,-0.203125
757,-0.6484375,-0.07208252,-0.7776489,-0.125,-0.34375,-0.09375
758,-0.6477051,-0.07647705,-0.7737427,-0.171875,-0.234375,-0.109375
759,-0.64868164,-0.07159424,-0.7774048,-0.109375,-0.1875,-0.09375
