sample_no,accel_x,accel_y,accel_z,gyro_x,gyro_y,gyro_z
0,0.26171875,-0.9570923,0.01361084,-8.828125,6.359375,-5.65625
1,0.18237305,-0.9890747,0.1395874,-18.765625,3.25,-4.09375
2,-0.03466797,-0.8045044,0.16888428,-20.609375,5.28125,-11.46875
3,0.03857422,-0.69073486,0.059265137,-16.78125,14.0625,-9.9375
4,0.111083984,-0.600647,0.074645996,-9.5625,15.359375,-8.359375
5,0.057373047,-0.6514282,0.11248779,-5.46875,14.546875,-7.796875
6,0.09106445,-0.69195557,0.13665771,-1.03125,16.890625,-5.546875
7,0.10644531,-0.78497314,0.21258545,1.796875,16.625,-3.53125
8,-0.040039062,-0.8911743,0.23406982,2.140625,18.96875,-3.140625
9,0.021972656,-0.9470825,0.17547607,1.1875,26.859375,-6.84375
10,0.19433594,-0.89556885,0.2802124,0.21875,29.609375,-4.40625
11,-0.08520508,-1.1694946,0.2765503,2.3125,23.40625,-6.625
12,-0.1184082,-1.362854,0.015319824,3.15625,29.515625,-18.203125
13,0.20678711,-1.4036255,-0.09283447,9.375,37.203125,-19.015625
14,0.1394043,-1.0178833,-0.093566895,2.890625,57.21875,0.453125
15,-0.072021484,-0.7185669,-0.19781494,-2.796875,54.703125,-4.4375
16,0.19946289,-0.98638916,-0.070129395,6.375,48.703125,-10.953125
17,0.16918945,-1.1401978,-0.03741455,4.375,37.4375,2.1875
18,-0.06933594,-0.9065552,-0.037902832,-2.90625,45.921875,5.90625
19,0.020751953,-0.8296509,-0.035461426,-0.21875,47.984375,-1.390625
20,0.10424805,-0.88897705,-0.053527832,1.265625,41.125,1.921875
21,0.084228516,-0.96099854,-0.019836426,3.875,32.828125,6.9375
22,0.025634766,-0.98223877,0.021911621,5.0,28.40625,6.828125
23,0.036132812,-1.0857544,0.03338623,3.78125,23.25,8.953125
24,0.07324219,-1.1897583,0.039733887,-5.9375,17.703125,11.125
25,0.18334961,-1.2090454,0.0045776367,-3.765625,7.40625,14.46875
26,0.12402344,-1.4475708,-0.13409424,-2.734375,-0.546875,17.890625
27,0.31201172,-1.5271606,-0.18463135,-9.390625,-3.03125,14.3125
28,0.39086914,-0.9573364,-0.1416626,-10.203125,-7.671875,12.28125
29,0.25708008,-0.8674927,-0.1729126,-2.53125,-19.03125,5.90625
30,0.20825195,-1.0620728,-0.055236816,-3.03125,-10.9375,-4.46875
31,0.33422852,-1.0215454,0.08148193,-9.203125,-11.53125,5.03125
32,0.017578125,-0.8123169,0.06781006,-12.203125,-7.328125,-1.25
33,0.12768555,-0.65948486,0.061950684,-9.734375,-3.78125,-6.390625
34,0.10229492,-0.66119385,0.10101318,-6.15625,-4.078125,-3.921875
35,0.021240234,-0.6140747,0.101257324,-5.59375,2.609375,-2.625
36,0.080322266,-0.7437134,0.10247803,-1.1875,7.5,-4.71875
37,0.13208008,-0.89923096,0.15740967,0.203125,14.5625,-6.71875
38,0.16137695,-1.0530396,0.18084717,0.21875,19.796875,-3.625
39,0.15405273,-0.9932251,0.20013428,3.671875,22.125,-3.671875
40,0.13964844,-1.1304321,0.20013428,10.921875,22.96875,-12.28125
41,0.20947266,-1.7041626,-0.024230957,9.359375,19.5,-19.890625
42,0.40014648,-1.2932739,-0.02935791,1.125,27.734375,-0.71875
43,-0.2680664,-1.0422974,-0.25030518,-3.25,22.46875,-9.3125
44,0.3256836,-0.85406494,-0.105285645,0.0625,37.625,-8.34375
45,0.19824219,-1.2312622,-0.023742676,-0.09375,23.109375,-1.015625
46,-0.04663086,-0.8596802,-0.010314941,-7.0625,25.84375,-4.078125
47,0.013183594,-0.7439575,0.010192871,-6.953125,23.5,-2.046875
48,0.03125,-0.6807251,0.027038574,-5.453125,23.96875,-0.84375
49,0.057373047,-0.7007446,0.014587402,-2.421875,17.9375,1.84375
50,0.099853516,-0.6897583,0.019714355,-0.125,9.734375,3.015625
51,0.07495117,-0.8008423,0.057800293,6.015625,3.234375,5.453125
52,0.042236328,-0.9907837,0.030700684,6.296875,1.96875,5.578125
53,0.032714844,-1.1817017,0.020690918,4.234375,0.71875,4.703125
54,-0.00390625,-1.3396606,0.054626465,0.953125,-1.3125,7.75
55,0.1274414,-1.3106079,0.13616943,-6.75,-5.375,11.5625
56,0.21142578,-1.5530396,-0.35357666,1.078125,-14.4375,18.71875
57,0.5048828,-1.0772095,0.12762451,-7.890625,-8.046875,7.296875
58,0.1940918,-0.9470825,-0.113342285,-4.984375,-30.421875,22.40625
59,-0.11743164,-1.085022,-0.13287354,-4.859375,-9.25,-17.859375
60,0.39257812,-1.0271606,0.07537842,-5.265625,-1.59375,5.296875
61,0.009521484,-0.8792114,0.09320068,-13.28125,-0.8125,-2.890625
62,0.052001953,-0.6670532,0.06756592,-13.296875,4.453125,-3.578125
63,0.16357422,-0.60162354,0.08343506,-8.046875,4.234375,0.53125
64,0.06542969,-0.6343384,0.10223389,-3.859375,4.90625,-1.671875
65,0.087890625,-0.74957275,0.06072998,0.5625,6.25,-1.203125
66,0.1496582,-0.83917236,0.17034912,3.8125,6.421875,-2.390625
67,0.10180664,-1.0435181,0.1720581,6.59375,6.46875,0.109375
68,0.13916016,-1.0593872,0.13470459,3.796875,2.90625,0.0
69,0.095458984,-1.0005493,0.2296753,9.890625,2.6875,-4.84375
70,0.11645508,-1.4441528,-0.0335083,15.28125,-0.359375,-12.015625
71,0.35083008,-1.5679321,0.0289917,15.5,0.609375,-10.8125
72,-0.05859375,-1.2630005,-0.085510254,3.1875,17.1875,-1.4375
73,0.080322266,-0.76031494,-0.1716919,0.6875,33.984375,-14.28125
74,0.5136719,-1.019104,0.0018920898,5.125,20.015625,5.21875
75,0.0007324219,-0.9788208,-0.010559082,-2.3125,8.921875,-1.953125
76,0.0048828125,-0.7727661,0.051208496,-6.25,14.9375,-0.71875
77,0.0024414062,-0.6511841,0.0038452148,-3.0625,15.21875,-0.046875
78,0.087402344,-0.73809814,-0.012268066,-3.9375,12.828125,1.4375
79,0.106933594,-0.7571411,-0.015197754,-0.21875,7.71875,6.484375
80,0.037597656,-0.8875122,-0.011291504,1.328125,2.75,8.4375
81,0.09741211,-1.0462036,0.03387451,3.484375,2.3125,7.359375
82,0.044921875,-1.204895,0.055358887,-1.75,-0.015625,7.578125
83,0.13671875,-1.1411743,0.050476074,-5.625,4.3125,11.453125
84,0.039794922,-1.3308716,-0.09869385,-1.234375,-6.375,7.546875
85,0.17871094,-1.3760376,-0.10821533,-3.625,-8.484375,-0.171875
86,0.6118164,-1.1384888,0.028015137,-7.078125,0.625,7.984375
87,0.45629883,-0.88946533,-0.028381348,-1.21875,-24.53125,19.3125
88,0.1003418,-0.9277954,0.09295654,0.640625,-30.53125,-2.625
89,0.31176758,-1.0291138,0.1383667,-7.1875,-22.59375,1.765625
90,0.06713867,-0.8418579,0.1239624,-10.578125,-16.671875,1.5625
91,0.03540039,-0.68341064,0.09539795,-6.609375,-12.234375,-1.796875
92,0.17944336,-0.67559814,0.16033936,-2.46875,-11.015625,-2.796875
93,0.03540039,-0.6748657,0.08685303,-0.53125,-9.84375,-2.3125
94,0.125,-0.6626587,0.16668701,3.265625,-5.671875,-3.703125
95,0.100097656,-0.87994385,0.1864624,6.75,-4.734375,1.5625
96,0.061523438,-1.0759888,0.24017334,7.03125,1.28125,-3.3125
97,0.17578125,-1.0779419,0.16204834,5.703125,7.28125,-4.890625
98,0.20581055,-1.0110474,0.17718506,15.78125,12.0625,-12.390625
99,0.15258789,-1.5874634,0.036315918,19.328125,1.078125,-16.953125
100,0.46972656,-1.5122681,0.035583496,3.484375,17.234375,-0.28125
101,-0.083496094,-0.97247314,-0.124572754,-2.609375,17.65625,-14.390625
102,0.3149414,-0.9072876,-0.09698486,-0.984375,31.609375,-3.875
103,0.24438477,-1.0166626,-0.03253174,-0.375,17.171875,-1.59375
104,-0.03540039,-0.8386841,-0.01763916,-7.15625,16.828125,-4.65625
105,0.07421875,-0.7595825,0.05267334,-6.140625,17.65625,-3.3125
106,0.057373047,-0.7293091,0.024841309,-7.65625,12.859375,-0.234375
107,0.07080078,-0.663147,0.046081543,-3.03125,10.3125,-0.21875
108,0.075683594,-0.77227783,0.010437012,2.59375,8.5,4.46875
109,0.11376953,-0.90338135,0.04486084,7.453125,1.8125,4.6875
110,0.14208984,-1.0613403,0.06976318,8.859375,-4.328125,9.453125
111,0.041015625,-1.2647095,0.06390381,5.0,-7.609375,9.84375
112,0.15136719,-1.1863403,0.117614746,-8.296875,-4.9375,14.34375
113,0.15600586,-1.5498657,-0.08331299,8.078125,-5.96875,12.21875
114,0.34057617,-1.1658325,0.010681152,-5.8125,-10.25,7.765625
115,0.5336914,-0.84747314,-0.101867676,0.1875,-14.953125,21.203125
116,0.17504883,-1.041565,-0.06524658,1.21875,-21.953125,4.234375
117,0.35107422,-1.0025024,0.08392334,-2.8125,-18.9375,1.40625
118,0.09008789,-0.9546509,0.07757568,-12.8125,-17.0,-3.9375
119,0.06665039,-0.7280884,0.109558105,-7.4375,-11.8125,-3.9375
120,0.10888672,-0.6709595,0.12615967,-8.40625,-7.359375,-6.25
121,0.01977539,-0.6506958,0.121520996,-3.921875,-2.40625,-4.71875
122,0.092285156,-0.6983032,0.10638428,0.75,1.796875,-5.984375
123,0.12060547,-0.79107666,0.14813232,4.5,2.859375,-5.390625
124,0.14111328,-0.92803955,0.20574951,6.484375,5.84375,-4.359375
125,0.12841797,-1.0628052,0.24432373,9.390625,3.421875,-4.265625
126,0.08520508,-1.0869751,0.105651855,12.125,10.515625,-12.640625
127,0.16772461,-1.4331665,-0.034973145,20.703125,16.25,-11.171875
128,0.296875,-1.6633911,-0.08721924,14.109375,14.15625,-7.625
129,-0.09350586,-1.2109985,-0.16192627,4.921875,23.796875,-8.984375
130,0.122802734,-0.9043579,-0.18267822,5.4375,38.8125,-5.5
131,0.2253418,-1.097229,-0.0635376,6.71875,34.0,3.1875
132,-0.033447266,-0.88067627,-0.051330566,-2.359375,31.84375,-0.8125
133,-0.033935547,-0.75616455,-0.009338379,-6.40625,27.90625,4.109375
134,-0.013671875,-0.63604736,-0.039123535,-2.796875,28.125,3.015625
135,0.060302734,-0.7005005,0.0004272461,-5.375,27.65625,3.078125
136,0.055419922,-0.71539307,-0.039855957,-5.59375,22.265625,8.15625
137,0.0068359375,-0.81866455,-0.009338379,-1.34375,16.984375,10.015625
138,0.05810547,-1.0818481,-0.031555176,2.0625,12.6875,5.78125
139,0.044433594,-1.2078247,-0.0049438477,-3.40625,16.375,10.875
140,0.041992188,-1.1997681,-0.0095825195,-8.953125,20.75,18.703125
141,0.032958984,-1.2371216,-0.0076293945,-6.328125,26.609375,19.96875
142,0.13793945,-1.4580688,-0.12310791,-5.828125,25.46875,17.15625
143,0.5822754,-1.1619263,-0.20709229,-10.90625,15.09375,15.875
144,0.28076172,-0.9458618,-0.097473145,-13.5625,0.640625,10.234375
145,0.17553711,-1.0186157,-0.07305908,-11.53125,-2.078125,-9.46875
146,0.27294922,-1.0203247,0.05316162,-17.265625,2.046875,-9.15625
147,-0.007080078,-0.89141846,0.12957764,-21.921875,8.28125,-13.0
148,0.0703125,-0.7024536,0.057556152,-19.296875,11.296875,-12.5
149,0.16064453,-0.6148071,0.062927246,-11.15625,8.828125,-5.875
150,0.040771484,-0.6199341,0.06561279,-5.609375,6.125,-3.8125
151,0.05078125,-0.66729736,0.12591553,-6.546875,8.828125,-5.28125
152,0.09350586,-0.77593994,0.20013428,-1.0625,5.953125,-2.703125
153,0.04272461,-0.8792114,0.21551514,-3.375,8.609375,-4.734375
154,-0.022216797,-0.973938,0.20648193,0.46875,13.9375,-5.609375
155,0.06665039,-0.97735596,0.15496826,-1.953125,23.6875,-7.25
156,0.053710938,-0.90631104,0.3793335,-2.34375,22.015625,-9.6875
157,-0.13427734,-1.1338501,0.18084717,-3.109375,20.9375,-11.09375
158,-0.0546875,-1.4890747,-0.05718994,5.296875,30.765625,-18.578125
159,0.21313477,-1.3486938,-0.27593994,3.03125,46.0,-12.390625
160,-0.09448242,-0.7920532,-0.11383057,-4.25,47.8125,9.609375
161,0.040039062,-0.80352783,0.028259277,3.203125,45.3125,-7.046875
162,0.044433594,-1.1565552,0.050964355,1.53125,42.75,-7.90625
163,0.09423828,-0.95391846,-0.042297363,-5.421875,41.359375,4.484375
164,-0.10058594,-0.895813,-0.029846191,-0.171875,38.578125,5.40625
165,-0.033935547,-0.94610596,0.06463623,-0.75,42.046875,0.59375
166,-0.02709961,-0.93536377,0.0021362305,-0.4375,35.296875,4.484375
167,0.018798828,-0.9998169,0.06829834,-0.609375,29.140625,6.5
168,0.025146484,-1.0808716,0.094177246,3.59375,22.359375,6.578125
169,0.05834961,-1.1057739,0.07513428,-5.140625,18.25,8.90625
170,0.0637207,-1.1836548,0.109558105,0.25,14.6875,10.96875
171,-0.00390625,-1.3208618,0.020446777,-0.40625,8.890625,13.4375
172,0.19799805,-1.5232544,-0.20904541,0.6875,7.140625,13.421875
173,0.62939453,-1.0037231,-0.24151611,0.78125,10.78125,12.625
174,0.3059082,-1.0117798,-0.17218018,2.171875,-10.546875,22.671875
175,0.18432617,-1.1062622,-0.08258057,-1.0,-3.28125,-5.953125
176,0.36621094,-0.9512329,0.0138549805,-5.671875,4.8125,4.796875
177,0.10229492,-0.7908325,0.015808105,-11.3125,4.328125,-1.40625
178,0.1586914,-0.64849854,0.04144287,-7.296875,2.640625,-1.8125
179,0.10058594,-0.6397095,0.061950684,-5.375,5.0,-3.265625
180,0.061035156,-0.62628174,0.03656006,-4.1875,6.5,-2.078125
181,0.0871582,-0.7263794,0.03729248,0.640625,10.28125,-3.25
182,0.16992188,-0.8904419,0.12176514,1.765625,12.21875,-4.421875
183,0.14477539,-1.0691528,0.09979248,-2.03125,12.8125,-4.703125
184,0.1003418,-1.0440063,0.12542725,1.609375,14.84375,-7.53125
185,0.14331055,-1.0408325,0.08709717,2.421875,23.65625,-16.09375
186,0.24609375,-1.3877563,-0.029846191,10.46875,15.75,-16.671875
187,0.41967773,-1.506897,-0.14337158,8.265625,6.46875,-8.125
188,-0.044189453,-1.1663208,-0.17803955,1.1875,17.359375,-7.578125
189,-0.026611328,-0.8648071,-0.22320557,0.8125,35.75,-9.5625
190,0.16308594,-1.1370239,-0.054992676,1.84375,30.90625,-4.84375
191,0.044433594,-0.942688,-0.04156494,-9.21875,22.765625,-1.71875
192,0.011230469,-0.7905884,0.014099121,-9.765625,19.921875,0.796875
193,0.012207031,-0.60943604,-0.027893066,-7.875,21.3125,0.21875
194,0.03173828,-0.6260376,0.005554199,-2.96875,20.625,0.9375
195,0.06689453,-0.7168579,0.018737793,1.34375,17.125,3.609375
196,-0.056884766,-0.81622314,0.055358887,7.765625,12.53125,5.03125
197,-0.040283203,-1.0261841,0.051452637,5.890625,12.703125,5.125
198,0.020996094,-1.171936,0.09246826,3.75,19.15625,3.046875
199,0.10253906,-1.2368774,0.09246826,-2.4375,15.625,9.125
200,0.11743164,-1.2178345,0.031188965,-5.625,7.140625,12.96875
201,0.095214844,-1.2573853,-0.07720947,-7.25,0.53125,12.578125
202,0.10498047,-1.5332642,-0.15411377,-4.5625,-2.5,6.75
203,0.64160156,-1.1653442,-0.16290283,-11.4375,-3.09375,6.40625
204,0.087646484,-0.864563,-0.11114502,-12.75,-13.203125,14.453125
205,0.13476562,-0.93585205,0.05291748,-4.09375,-2.90625,-12.03125
206,0.28198242,-1.1218872,0.18719482,-13.484375,-8.53125,0.03125
207,-0.13696289,-0.75079346,0.0680542,-16.734375,0.703125,-5.34375
208,0.033203125,-0.5623169,0.06390381,-11.578125,4.578125,-3.4375
209,0.075683594,-0.60821533,0.082458496,-4.578125,4.671875,-0.71875
210,0.020996094,-0.6680298,0.10687256,-1.625,5.734375,-1.78125
211,0.095947266,-0.7637329,0.10760498,2.453125,11.109375,-0.984375
212,0.15307617,-0.9951782,0.19696045,6.96875,13.921875,0.046875
213,0.22802734,-1.1734009,0.2062378,7.578125,11.8125,4.53125
214,0.1496582,-1.0823364,0.3348999,7.765625,8.03125,3.125
215,0.06298828,-1.072815,0.1408081,11.953125,7.78125,-5.609375
216,0.2109375,-1.3477173,0.026062012,11.671875,7.921875,-6.734375
217,0.2409668,-1.5349731,-0.1482544,8.46875,8.96875,1.25
218,-0.21728516,-0.98443604,-0.07672119,-5.171875,22.234375,-12.71875
219,0.20019531,-0.9898071,-0.14093018,-1.890625,36.921875,-1.953125
220,0.11376953,-1.0652466,0.031433105,-7.5,27.0,-5.984375
221,-0.099609375,-0.95391846,0.11053467,-11.640625,25.0625,-6.234375
222,-0.09399414,-0.8167114,0.08074951,-16.953125,34.375,-6.828125
223,0.032958984,-0.7127075,0.04876709,-17.515625,39.21875,-5.578125
224,0.08520508,-0.6897583,0.051696777,-13.46875,32.625,-0.5
225,0.01977539,-0.6565552,0.09466553,-9.921875,26.953125,5.25
226,-0.068115234,-0.75616455,0.090270996,-3.78125,26.171875,6.8125
227,-0.088378906,-0.8706665,0.13787842,-2.84375,27.953125,3.796875
228,-0.029785156,-0.92681885,0.19158936,-4.46875,28.359375,4.015625
229,-0.0029296875,-1.0022583,0.17669678,-7.203125,24.59375,4.84375
230,-0.0034179688,-1.0025024,0.19378662,-15.296875,24.25,4.765625
231,0.12109375,-1.1323853,0.25531006,-14.265625,21.71875,6.671875
232,0.22387695,-1.5488892,0.05340576,-5.90625,-1.8125,4.734375
233,0.19555664,-1.1538696,0.02508545,-17.671875,8.171875,0.671875
234,0.44848633,-0.63165283,-0.23297119,-7.0,6.46875,-0.828125
235,0.15039062,-0.9558716,0.18231201,6.265625,3.421875,2.921875
236,-0.19262695,-1.1797485,0.1449585,-3.671875,15.5,-0.484375
237,0.091552734,-0.92803955,0.074157715,-8.984375,23.671875,-4.390625
238,0.0847168,-0.7805786,0.1437378,-5.84375,18.046875,-3.84375
239,-0.035888672,-0.90509033,0.18304443,-1.140625,22.390625,-1.578125
240,0.10083008,-0.88165283,0.19793701,-2.109375,24.203125,-4.953125
241,0.080322266,-0.9241333,0.23651123,-2.015625,22.515625,-2.421875
242,0.033203125,-0.9336548,0.23358154,-2.4375,22.65625,-0.34375
243,0.07299805,-0.9573364,0.2531128,-1.609375,21.625,-2.09375
244,0.0625,-0.9590454,0.17156982,-2.109375,17.40625,-3.5
245,0.0871582,-1.0635376,0.29656982,-1.296875,24.15625,-6.15625
246,-0.016601562,-1.159729,0.29779053,0.03125,24.171875,-9.25
247,0.19750977,-1.47052,0.055847168,7.09375,25.671875,-15.25
248,0.37280273,-1.5855103,-0.014709473,16.8125,18.125,-9.296875
249,-0.07861328,-1.298645,-0.2131958,3.34375,31.609375,-6.515625
250,0.18286133,-0.83721924,-0.2715454,6.078125,45.15625,-5.640625
251,0.19824219,-1.0498657,-0.12384033,15.15625,35.5625,-5.53125
252,-0.0061035156,-0.99957275,-0.03253174,8.0,27.5625,-5.6875
253,0.005859375,-0.8953247,-0.023498535,-0.046875,31.328125,-1.59375
254,0.023925781,-0.71221924,0.008483887,-0.875,31.4375,-0.953125
255,0.06616211,-0.68756104,-0.0005493164,2.640625,28.59375,5.15625
256,0.041748047,-0.7398071,0.031188965,6.96875,26.875,7.640625
257,0.038085938,-0.86016846,-0.0051879883,6.875,21.015625,9.21875
258,0.056640625,-0.95025635,0.0016479492,4.828125,14.828125,8.0
259,0.100097656,-1.1970825,0.006286621,2.9375,11.03125,8.203125
260,0.09082031,-1.2727661,-0.030578613,-10.453125,9.578125,13.328125
261,0.051757812,-1.2791138,-0.13189697,-4.34375,-4.5625,17.46875
262,0.3347168,-1.3494263,-0.28082275,-1.90625,-13.453125,10.046875
263,0.49560547,-0.9998169,-0.11920166,1.265625,-7.4375,13.625
264,0.24584961,-1.0877075,-0.04156494,-7.65625,-22.578125,8.671875
265,0.18334961,-0.97198486,0.06121826,-6.515625,-8.203125,-4.8125
266,0.32080078,-0.9607544,0.14935303,-10.765625,-12.140625,0.9375
267,0.06323242,-0.7241821,0.07244873,-9.484375,-12.765625,-2.09375
268,0.07910156,-0.6187134,0.062194824,-4.3125,-9.71875,-3.453125
269,0.05859375,-0.62335205,0.04852295,-0.390625,-6.75,-0.015625
270,0.063964844,-0.68585205,0.09100342,1.9375,-2.046875,-2.5625
271,0.103759766,-0.8242798,0.10809326,4.3125,0.234375,-3.171875
272,0.1862793,-1.0352173,0.16986084,8.75,2.515625,-1.59375
273,0.1899414,-1.1135864,0.17718506,7.71875,1.015625,-1.921875
274,0.12402344,-1.1150513,0.20574951,3.046875,7.78125,-8.5625
275,0.24511719,-1.4692993,-0.10772705,8.6875,5.484375,-16.21875
276,0.37695312,-1.4783325,-0.031066895,1.4375,12.4375,-6.140625
277,-0.05517578,-0.975647,-0.17242432,-9.484375,17.5625,-8.0
278,0.24438477,-0.84820557,-0.051086426,2.5625,29.25,-9.703125
279,0.32788086,-1.0859985,0.01361084,0.21875,12.03125,2.703125
280,-0.057861328,-0.8311157,0.057556152,-6.78125,16.984375,-5.234375
281,0.06616211,-0.72613525,0.030700684,-4.78125,18.203125,-0.53125
282,0.05419922,-0.67755127,0.04119873,-3.09375,15.140625,1.625
283,0.072265625,-0.6917114,0.05999756,1.109375,10.796875,1.640625
284,0.12036133,-1.019104,0.22210693,5.234375,11.28125,7.90625
285,0.24487305,-1.2669067,0.2675171,16.390625,4.328125,13.5625
286,0.032226562,-1.3965454,0.16033936,9.265625,8.921875,-0.84375
287,0.32958984,-1.3823853,-0.175354,9.328125,13.6875,-10.921875
288,0.13671875,-1.4180298,-0.32086182,4.25,13.828125,-6.28125
289,0.12084961,-0.8250122,-0.34527588,-3.875,33.421875,-12.703125
290,0.39868164,-0.98272705,-0.20440674,10.640625,38.328125,-4.71875
291,-0.05883789,-1.0823364,-0.09185791,0.34375,26.265625,-13.3125
292,0.103759766,-0.93878174,-0.053771973,-7.296875,37.15625,-10.796875
293,0.12158203,-0.77960205,-0.057922363,-12.578125,37.625,-8.765625
294,0.0087890625,-0.7542114,-0.07647705,-8.765625,36.34375,-5.359375
295,0.01928711,-0.70758057,-0.047668457,-7.546875,35.125,-4.65625
296,0.009033203,-0.7036743,-0.03253174,-6.0,31.390625,-2.453125
297,-0.0036621094,-0.6983032,0.010437012,-3.78125,27.5625,0.59375
298,-0.00390625,-0.7515259,-0.0010375977,-1.0625,22.65625,2.15625
299,-0.040771484,-0.8911743,0.0016479492,1.5625,17.09375,4.8125
300,-0.014404297,-0.972229,0.05316162,4.4375,13.828125,6.515625
301,-0.0146484375,-1.0852661,0.14910889,4.765625,15.546875,7.390625
302,0.0715332,-1.2444458,0.18060303,4.53125,14.21875,10.21875
303,0.11669922,-1.3235474,0.097839355,2.734375,-3.484375,17.15625
304,-0.11010742,-1.5357056,-0.011047363,3.84375,8.140625,17.8125
305,0.1538086,-1.5913696,-0.23980713,-2.46875,9.515625,5.28125
306,0.62719727,-0.8826294,-0.3821411,-4.40625,6.359375,12.65625
307,0.46484375,-0.7564087,-0.2703247,-0.828125,-11.140625,24.546875
308,0.1665039,-1.055481,-0.14483643,-2.84375,-11.3125,-3.390625
309,0.28710938,-1.0027466,-0.11846924,-11.125,5.703125,-0.296875
310,0.19799805,-0.9138794,-0.1182251,-15.96875,5.34375,-4.203125
311,0.140625,-0.7119751,-0.0647583,-11.203125,4.796875,-2.921875
312,0.059814453,-0.64141846,-0.022766113,-11.265625,8.46875,-2.765625
313,0.08129883,-0.61065674,0.030944824,-5.15625,11.28125,-2.140625
314,0.08154297,-0.6194458,0.026794434,-0.734375,15.546875,-1.203125
315,0.19238281,-0.7439575,0.0060424805,2.109375,17.1875,3.8125
316,0.1953125,-0.8858032,0.09246826,8.625,9.34375,5.828125
317,0.1472168,-1.1382446,0.18109131,7.96875,15.140625,5.203125
318,0.12939453,-1.2581177,0.074157715,6.75,22.0625,-2.5625
319,0.30395508,-1.2671509,0.051208496,9.921875,23.5,-6.484375
320,0.3244629,-1.5073853,-0.1519165,15.203125,16.0,-5.015625
321,0.32861328,-1.3684692,-0.3106079,11.015625,20.75,5.03125
322,0.06640625,-1.0154419,-0.3369751,4.8125,26.984375,0.140625
323,0.11303711,-0.86016846,-0.38653564,2.046875,37.03125,0.78125
324,0.11621094,-0.9680786,-0.20733643,2.265625,31.78125,-4.265625
325,0.025878906,-0.8140259,-0.159729,-4.796875,33.984375,-2.828125
326,-0.021240234,-0.7749634,-0.16265869,-10.359375,34.140625,2.765625
327,-0.004638672,-0.6565552,-0.14068604,-8.5625,34.203125,1.125
328,0.13134766,-0.66241455,-0.08477783,-11.4375,36.140625,-0.578125
329,0.15063477,-0.8171997,-0.105041504,-7.6875,27.625,6.0
330,0.15478516,-0.8904419,-0.08673096,-5.796875,19.25,7.15625
331,0.07006836,-1.1567993,-0.007873535,-0.421875,16.171875,8.453125
332,0.18432617,-1.2632446,-0.03326416,-8.03125,17.96875,10.5625
333,0.14013672,-1.0908813,0.12420654,-10.78125,18.453125,24.75
334,-0.04321289,-1.1824341,-0.31451416,1.46875,-3.953125,30.328125
335,0.9172363,-1.3184204,-0.37261963,18.671875,-3.609375,16.03125
336,0.18286133,-1.1099243,-0.28302002,-12.21875,-21.53125,33.78125
337,0.24560547,-0.9290161,-0.2576294,-5.796875,-8.609375,0.890625
338,0.13745117,-1.0623169,-0.042785645,-16.078125,2.421875,-9.0
339,0.15600586,-0.88775635,-0.02130127,-24.296875,6.15625,-10.390625
340,0.25854492,-0.70391846,-0.04547119,-22.6875,4.265625,-10.375
341,0.21801758,-0.6655884,0.058532715,-18.90625,-3.53125,-3.859375
342,0.076171875,-0.6091919,-0.003967285,-22.265625,1.90625,-5.0
343,0.08911133,-0.6448364,-0.019592285,-10.65625,12.109375,-5.15625
344,0.1459961,-0.800354,0.14007568,-1.046875,14.203125,-3.328125
345,0.080322266,-1.1350708,0.1696167,1.4375,12.828125,-0.609375
346,0.22290039,-1.1138306,0.2177124,-1.515625,12.875,-3.96875
347,0.12426758,-1.144104,0.2098999,-3.171875,14.390625,-9.046875
348,0.21069336,-1.0422974,0.014343262,6.109375,17.046875,-10.40625
349,0.3046875,-1.4002075,-0.018127441,12.59375,16.546875,-13.640625
350,0.016113281,-1.2019653,-0.1519165,-8.859375,28.109375,-5.28125
351,0.10620117,-0.8530884,-0.14141846,-0.859375,39.296875,-16.03125
352,0.3203125,-1.1074829,0.019226074,0.46875,30.046875,-4.53125
353,-0.056152344,-0.9421997,0.058532715,-10.203125,29.0,-4.71875
354,-0.03173828,-0.7737427,0.012390137,-10.359375,38.6875,-4.265625
355,0.022460938,-0.68170166,0.036315918,-8.359375,41.25,-3.59375
356,0.053710938,-0.62164307,0.032165527,-9.0,39.734375,-0.65625
357,0.031982422,-0.67510986,-0.025939941,-6.5,32.640625,2.515625
358,0.03881836,-0.74005127,0.028747559,-1.40625,28.578125,4.828125
359,0.0029296875,-0.87042236,0.1005249,3.96875,23.578125,5.75
360,0.014404297,-1.0161743,0.13201904,0.3125,18.75,5.5625
361,0.039794922,-1.0261841,0.1383667,-5.140625,13.234375,5.609375
362,0.042236328,-1.0501099,0.18133545,-8.109375,14.28125,7.890625
363,0.17089844,-1.210022,0.18499756,-9.4375,11.03125,10.625
364,0.10913086,-1.5449829,0.070739746,-10.859375,-5.859375,8.625
365,-0.012207031,-1.1797485,-0.38946533,-20.28125,6.890625,-1.703125
366,0.62646484,-0.5195923,-0.2234497,-9.09375,27.546875,-2.21875
367,0.30297852,-0.99591064,0.06976318,7.90625,-8.328125,16.9375
368,-0.2175293,-1.2046509,0.059020996,-9.90625,3.15625,-4.5625
369,0.21557617,-0.9163208,-0.06085205,-9.109375,36.703125,-8.046875
370,0.28833008,-0.7727661,0.016540527,-3.125,21.078125,1.046875
371,0.025878906,-0.91729736,0.090270996,2.71875,16.359375,4.8125
372,0.13134766,-0.880188,0.07659912,-2.0625,20.546875,0.265625
373,0.080566406,-0.91729736,0.15032959,1.515625,26.828125,3.140625
374,0.092285156,-0.92193604,0.10345459,-3.1875,27.859375,2.6875
375,0.11743164,-0.8670044,0.09173584,1.40625,27.25,1.234375
376,0.12573242,-1.0227661,0.16326904,-0.109375,29.125,-3.546875
377,0.118652344,-1.0515747,0.12738037,-1.125,29.328125,-2.984375
378,0.15771484,-1.0786743,0.10345459,1.359375,26.828125,-11.34375
379,0.23291016,-1.5427856,-0.06768799,11.203125,23.25,-12.046875
380,0.48657227,-1.5459595,-0.21002197,8.25,22.265625,-5.453125
381,0.06933594,-1.2957153,-0.3562622,1.203125,28.5,-3.6875
382,0.16210938,-0.89019775,-0.30963135,-0.703125,36.953125,-6.546875
383,0.2919922,-1.0266724,-0.16070557,0.765625,23.21875,-3.09375
384,0.028320312,-0.9585571,-0.15264893,-6.03125,16.84375,-3.484375
385,-0.05126953,-0.8335571,-0.0725708,-3.75,27.203125,-2.234375
386,0.107910156,-0.75860596,-0.097229004,-10.921875,25.765625,-2.0625
387,0.03857422,-0.7112427,0.02532959,-6.265625,22.90625,1.6875
388,0.0390625,-0.69366455,-0.010803223,-7.265625,19.578125,4.625
389,0.046875,-0.7156372,-0.014953613,-5.328125,16.0625,3.984375
390,0.07861328,-0.87164307,0.016540527,1.015625,12.0625,4.09375
391,0.04638672,-1.0652466,0.01751709,-0.03125,5.53125,5.5625
392,0.09887695,-1.2542114,0.019958496,-0.734375,3.953125,8.296875
393,0.16015625,-1.1392212,0.3060913,9.046875,1.75,4.6875
394,0.1496582,-1.197815,0.34344482,7.78125,-1.359375,-1.59375
395,0.16772461,-1.2351685,0.199646,12.59375,-0.75,-5.109375
396,0.27783203,-1.4368286,-0.09063721,11.546875,1.46875,-6.671875
397,0.08666992,-1.5801392,-0.10333252,7.046875,9.078125,1.234375
398,-0.15795898,-0.93463135,-0.14898682,-8.40625,31.703125,-10.78125
399,0.22851562,-0.9138794,-0.1428833,3.609375,38.640625,-4.59375
400,0.039794922,-0.8965454,-0.04815674,-0.390625,31.71875,-2.875
401,-0.033691406,-0.7630005,-0.0037231445,-4.90625,31.046875,-5.171875
402,0.037353516,-0.67559814,0.018249512,-7.375,27.0,-0.9375
403,-0.03466797,-0.6370239,-0.016418457,-2.921875,28.171875,-2.640625
404,0.033447266,-0.7241821,-0.015930176,0.125,25.59375,-1.59375
405,0.064453125,-0.83013916,0.024353027,1.625,23.78125,3.59375
406,0.09399414,-0.9849243,0.013366699,5.5,17.546875,8.921875
407,0.064208984,-1.1472778,0.11077881,7.921875,13.890625,11.390625
408,0.068115234,-1.1504517,-0.004699707,0.640625,7.9375,17.453125
409,0.09716797,-1.2251587,-0.066711426,-4.296875,-4.6875,18.703125
410,0.07348633,-1.4258423,-0.07574463,-7.1875,-18.890625,18.5
411,0.26635742,-1.4937134,-0.10699463,-12.609375,-8.109375,11.671875
412,0.51464844,-0.86505127,-0.19561768,-8.953125,-11.640625,11.03125
413,0.2866211,-0.99346924,-0.059143066,-8.359375,-20.4375,7.046875
414,0.21801758,-0.93927,0.03753662,-7.640625,-16.640625,1.546875
415,0.17578125,-0.87457275,0.10614014,-13.171875,-8.140625,-0.921875
416,0.10449219,-0.7468872,0.09100342,-11.71875,-7.140625,-3.53125
417,0.09008789,-0.597229,0.066589355,-9.796875,-6.53125,-3.5
418,0.046875,-0.57940674,0.085876465,-2.546875,-0.703125,-2.234375
419,0.06201172,-0.67315674,0.10662842,2.890625,5.015625,-4.109375
420,0.11816406,-0.7703247,0.14569092,5.671875,9.21875,-3.15625
421,0.12182617,-0.98150635,0.21746826,8.0625,10.953125,-1.921875
422,0.10668945,-1.1026001,0.28631592,7.15625,9.484375,-3.234375
423,0.19189453,-1.0645142,0.24725342,1.546875,14.15625,-5.796875
424,0.1796875,-1.0776978,0.29315186,9.875,17.734375,-6.046875
425,0.088134766,-1.4263306,0.020935059,11.46875,21.46875,-12.3125
426,0.40161133,-1.4468384,0.024353027,5.359375,8.609375,-11.828125
427,-0.05517578,-1.2249146,-0.1795044,0.265625,27.78125,0.28125
428,0.010498047,-0.8555298,-0.22564697,-4.90625,28.34375,-13.0
429,0.18286133,-0.9873657,-0.049621582,7.234375,27.78125,-1.234375
430,0.02319336,-0.96343994,-0.0256958,-1.28125,22.59375,-2.734375
431,-0.034423828,-0.85650635,0.02532959,-2.90625,29.515625,-1.03125
432,-0.061523438,-0.8045044,0.036315918,-4.5,32.796875,-2.734375
433,0.0031738281,-0.7803345,-6.1035156e-05,-8.171875,36.890625,-1.0
434,0.026855469,-0.7485962,0.034606934,-2.734375,32.453125,1.28125
435,0.031982422,-0.77716064,0.057800293,-1.5,34.15625,1.859375
436,-0.010253906,-0.85528564,-0.0051879883,-4.703125,30.3125,4.828125
437,0.0026855469,-0.9121704,0.06732178,-0.03125,24.578125,4.796875
438,0.006591797,-0.9949341,0.09222412,-2.40625,21.234375,8.46875
439,0.052734375,-0.9920044,0.045837402,-9.34375,12.0625,11.625
440,0.05517578,-1.0691528,0.15911865,-10.484375,12.859375,11.4375
441,0.044189453,-1.1445923,0.22625732,-18.21875,5.609375,14.390625
442,0.12841797,-1.6035767,0.2020874,-17.390625,8.859375,5.375
443,0.37646484,-1.0723267,-0.17022705,-25.453125,6.75,-3.265625
444,0.19067383,-0.7901001,-0.113342285,-13.171875,8.15625,12.90625
445,0.1743164,-0.6868286,0.024108887,-1.09375,10.0625,2.84375
446,0.21972656,-1.098938,0.11956787,-3.4375,12.90625,2.03125
447,0.16357422,-0.9475708,-0.053771973,-7.0625,24.796875,-1.5625
448,0.26489258,-0.8062134,0.047058105,-4.609375,23.875,4.390625
449,0.1394043,-0.83966064,0.14788818,2.515625,13.40625,4.9375
450,0.099365234,-0.9006958,0.07098389,0.890625,23.234375,-0.078125
451,0.19677734,-0.91192627,0.13397217,3.171875,28.65625,3.203125
452,0.17407227,-0.93829346,0.13323975,-0.3125,29.671875,0.859375
453,0.14941406,-1.0029907,0.15252686,-2.390625,32.234375,-2.734375
454,0.17919922,-0.97540283,0.032409668,-4.390625,32.140625,-4.734375
455,0.37670898,-0.944397,0.22918701,-3.171875,28.859375,-8.265625
456,0.049560547,-1.1463013,0.19207764,-1.453125,22.03125,-7.59375
457,0.24975586,-1.3840942,-0.005432129,4.03125,23.84375,-21.6875
458,0.62768555,-1.6672974,-0.10675049,7.078125,13.890625,-13.1875
459,-0.10498047,-1.3916626,-0.2810669,-2.953125,17.734375,-5.3125
460,0.11743164,-0.7456665,-0.28790283,-5.9375,34.78125,-13.1875
461,0.4020996,-1.0283813,-0.1560669,6.5,25.984375,-3.90625
462,-0.044189453,-0.8921509,-0.04058838,3.84375,12.734375,-6.5625
463,0.0061035156,-0.9158325,-0.04864502,-11.078125,25.984375,-5.46875
464,0.005859375,-0.68536377,0.0138549805,-7.71875,23.25,-2.953125
465,0.024169922,-0.6524048,0.028015137,-8.5625,25.578125,-0.296875
466,0.080078125,-0.5984497,0.012878418,-4.328125,20.875,1.828125
467,0.07446289,-0.6807251,0.031921387,3.265625,17.09375,4.671875
468,0.07788086,-0.92266846,0.09320068,8.296875,23.203125,4.828125
469,0.04321289,-1.2219849,0.002380371,14.296875,11.75,8.09375
470,0.061767578,-1.3660278,0.016784668,1.625,2.734375,10.21875
471,0.1262207,-1.2764282,0.04168701,-4.125,3.15625,12.1875
472,0.18676758,-1.2322388,-0.018615723,-7.140625,-7.265625,15.640625
473,0.2602539,-1.385315,-0.2654419,0.296875,-22.328125,10.140625
474,0.4621582,-1.00177,-0.093322754,-8.296875,-18.328125,8.25
475,0.19189453,-0.8418579,0.009216309,-6.953125,-19.015625,3.875
476,0.34887695,-0.9072876,0.0067749023,-4.78125,-16.0625,-5.59375
477,0.18261719,-1.0591431,0.16864014,-6.46875,-18.5625,2.203125
478,0.040527344,-0.84820557,0.11566162,-11.65625,-16.34375,-7.703125
479,0.12060547,-0.694397,0.09490967,-10.5625,-8.9375,-3.921875
480,0.03857422,-0.6487427,0.1593628,-1.90625,-5.578125,-1.203125
481,0.0546875,-0.6433716,0.09222412,1.140625,-2.15625,-2.46875
482,0.0949707,-0.75665283,0.1552124,7.53125,3.796875,-0.84375
483,0.20581055,-0.9595337,0.25531006,11.765625,5.84375,-0.109375
484,0.17163086,-1.1670532,0.29388428,7.78125,4.546875,0.75
485,0.15698242,-1.102356,0.2838745,2.46875,5.796875,-4.546875
486,0.19921875,-1.1582642,0.04876709,7.828125,14.5,-7.328125
487,0.26879883,-1.4954224,-0.04840088,15.609375,1.71875,-12.796875
488,0.07519531,-1.3513794,-0.016662598,3.5,25.859375,-1.203125
489,-0.12475586,-0.84259033,-0.2119751,-10.25,36.828125,-19.59375
490,0.3215332,-0.9483032,-0.08648682,7.09375,39.921875,-3.9375
491,-0.044677734,-1.0073853,-0.051086426,-1.140625,27.625,-3.90625
492,-0.056640625,-0.81207275,0.011657715,-7.59375,33.921875,-4.34375
493,-0.033935547,-0.7144165,0.04046631,-6.859375,33.5625,-1.21875
494,0.03125,-0.64190674,-0.022033691,-6.40625,34.03125,1.59375
495,0.052734375,-0.7102661,0.0028686523,-0.0625,28.21875,1.28125
496,0.03100586,-0.81378174,0.02947998,3.046875,24.703125,5.578125
497,0.041015625,-0.9290161,-0.013977051,7.25,17.328125,6.5625
498,0.043701172,-1.1392212,0.04901123,10.53125,16.765625,6.203125
499,0.0637207,-1.1697388,0.019958496,2.875,12.359375,13.609375
500,0.044433594,-1.2092896,0.07318115,-0.25,8.90625,11.640625
501,0.11450195,-1.298645,0.06414795,-5.09375,7.75,13.359375
502,-0.048095703,-1.5205688,-0.12042236,-6.28125,0.984375,14.375
503,0.49145508,-1.1238403,-0.24615479,-8.578125,11.109375,5.359375
504,0.43115234,-0.86065674,-0.13311768,-10.03125,-5.25,22.0
505,0.088378906,-0.9492798,-0.023742676,-7.25,-5.78125,1.296875
506,0.32104492,-0.9553833,0.06439209,-12.546875,-1.21875,-6.328125
507,0.14746094,-0.9116821,0.09954834,-15.015625,-1.59375,-5.375
508,0.10644531,-0.7156372,0.031433105,-13.03125,0.90625,-7.78125
509,0.083496094,-0.63531494,0.07220459,-7.875,-1.390625,-5.265625
510,0.051513672,-0.66607666,0.07318115,-5.171875,0.8125,-6.28125
511,0.075683594,-0.6921997,0.113464355,-1.796875,5.125,-4.296875
512,0.111572266,-0.8088989,0.17816162,0.484375,5.328125,-4.0
513,0.044677734,-0.9194946,0.22235107,-0.171875,7.6875,-3.546875
514,0.0068359375,-1.0322876,0.21746826,-5.828125,17.421875,-7.140625
515,0.0007324219,-0.97491455,0.20916748,-4.28125,21.65625,-10.375
516,0.084228516,-0.8694458,0.17816162,-6.0625,27.90625,-16.359375
517,-0.08544922,-0.9470825,0.15985107,-0.171875,27.0625,-17.375
518,0.0029296875,-1.5332642,-0.022766113,13.625,22.90625,-22.3125
519,0.35595703,-1.5733032,-0.16265869,-0.546875,25.515625,-10.078125
520,-0.111816406,-0.6868286,-0.0010375977,-5.78125,31.625,11.359375
521,-0.09716797,-0.706604,-0.051330566,-4.328125,48.890625,-10.0625
522,0.0847168,-1.2339478,-0.016174316,6.21875,45.015625,-9.21875
523,0.052978516,-1.0071411,-0.058410645,-6.296875,35.515625,0.953125
524,-0.21728516,-0.91412354,-0.051818848,-5.359375,41.4375,6.4375
525,-0.103759766,-0.87701416,0.02142334,-1.25,44.765625,-2.828125
526,-0.02734375,-0.9678345,0.024841309,-2.65625,44.15625,3.140625
527,-0.040039062,-0.9639282,0.01776123,-2.40625,40.015625,7.359375
528,0.010253906,-0.9343872,0.06878662,2.5625,30.59375,9.15625
529,-0.029052734,-0.9585571,0.11517334,0.90625,26.828125,10.5625
530,-0.07861328,-1.0491333,0.14715576,0.734375,25.09375,10.484375
531,-0.024658203,-1.0889282,0.16107178,-3.5,21.171875,8.546875
532,0.07910156,-1.1714478,0.10101318,-3.234375,15.71875,10.96875
533,0.16040039,-1.2752075,0.168396,-4.125,5.0,19.0625
534,-0.011962891,-1.5945435,-0.08477783,2.59375,11.265625,23.453125
535,0.24536133,-1.4529419,-0.24371338,-8.515625,-1.515625,11.421875
536,0.8300781,-0.8765259,-0.113342285,-3.75,-6.171875,26.0
537,0.036376953,-1.1045532,-0.18145752,-4.390625,-1.265625,15.15625
538,0.28588867,-1.0286255,0.019958496,-8.640625,17.03125,-7.53125
539,0.35351562,-0.9505005,0.08099365,-17.328125,10.421875,5.203125
540,0.111328125,-0.7178345,0.0138549805,-16.8125,7.1875,-1.46875
541,0.16186523,-0.6084595,0.054626465,-6.203125,9.546875,-2.046875
542,0.14404297,-0.565979,0.0836792,-7.75,13.6875,-1.796875
543,0.088134766,-0.59991455,0.09320068,-3.53125,13.90625,-2.015625
544,0.07421875,-0.7432251,0.09686279,1.03125,19.375,-4.34375
545,0.16577148,-0.8899536,0.10784912,1.234375,20.140625,-5.3125
546,0.27661133,-1.0388794,0.22772217,4.921875,16.234375,-4.015625
547,0.15234375,-1.1248169,0.20672607,-0.6875,13.671875,-10.609375
548,0.13110352,-1.1709595,0.1161499,1.84375,20.0,-17.78125
549,0.3852539,-1.3880005,0.031433105,10.609375,7.5,-21.234375
550,0.083496094,-1.6585083,-0.101379395,1.40625,15.484375,-11.875
551,0.021240234,-0.8970337,-0.20977783,-12.59375,26.890625,-16.515625
552,0.4404297,-0.8599243,-0.08770752,9.78125,30.921875,-6.265625
553,0.1899414,-1.1299438,-0.070129395,1.953125,13.6875,-0.515625
554,-0.04711914,-0.8760376,-0.016174316,-0.578125,14.8125,0.59375
555,0.05126953,-0.7214966,-0.026916504,-1.5625,17.8125,-1.46875
556,0.03149414,-0.64971924,-0.0056762695,5.046875,17.53125,3.5625
557,0.11230469,-0.98809814,0.05999756,16.328125,-2.90625,4.78125
558,0.10205078,-1.2559204,0.09466553,10.46875,-0.484375,3.109375
559,0.099365234,-1.3562622,0.07904053,6.859375,1.90625,9.8125
560,0.103027344,-1.3757935,0.006286621,6.75,0.875,7.3125
561,0.13549805,-1.5213013,-0.14508057,6.78125,6.78125,11.59375
562,0.56762695,-1.2346802,-0.2798462,1.96875,4.828125,-1.0625
563,0.4494629,-0.80010986,-0.09112549,-4.515625,-22.015625,21.8125
564,-0.0012207031,-0.8843384,-0.07989502,-5.65625,-21.140625,-4.234375
565,0.41015625,-0.87335205,0.005554199,-6.328125,-8.46875,-9.421875
566,0.2529297,-0.90460205,0.04949951,-12.421875,-19.015625,2.140625
567,-0.008056641,-0.6885376,0.030212402,-6.84375,-12.4375,-4.546875
568,0.16308594,-0.70440674,0.05316162,-2.453125,-7.03125,-3.1875
569,0.053222656,-0.7490845,0.027526855,0.671875,-7.03125,0.875
570,0.09863281,-0.70147705,0.08319092,3.796875,-3.015625,-1.234375
571,0.14013672,-0.9102173,0.13739014,2.6875,2.65625,-1.21875
572,0.031982422,-1.0755005,0.18597412,6.390625,4.8125,-0.46875
573,0.05517578,-1.171936,0.08831787,2.234375,10.09375,-4.9375
574,0.2199707,-1.1768188,0.22015381,0.671875,16.46875,-12.390625
575,0.18334961,-1.7334595,-0.23028564,-2.015625,11.515625,-25.796875
576,0.63720703,-1.1765747,-0.09063721,-5.875,23.765625,-2.859375
577,-0.16918945,-1.1445923,-0.14483643,-13.609375,14.515625,-6.359375
578,0.039794922,-0.80133057,-0.06427002,-11.09375,35.578125,-16.171875
579,0.31713867,-0.8098755,-0.00592041,-7.03125,30.96875,-4.4375
580,-0.015136719,-0.79278564,0.050964355,-7.53125,25.796875,-0.125
581,-0.011230469,-0.70391846,0.005554199,-8.203125,28.984375,0.96875
582,-0.033935547,-0.6958618,0.059753418,-6.890625,27.921875,-0.984375
583,0.0053710938,-0.67803955,0.04486084,0.84375,26.25,1.65625
584,0.018798828,-0.7888794,0.02142334,1.109375,21.5,0.8125
585,-0.0234375,-0.93829346,0.06707764,11.953125,19.75,3.8125
586,0.06567383,-1.0379028,0.09051514,12.859375,15.5625,8.890625
587,0.053222656,-1.1228638,0.13494873,14.453125,12.78125,12.65625
588,0.0043945312,-1.1275024,0.06951904,8.75,10.875,14.03125
589,0.13354492,-1.2122192,0.070495605,4.671875,9.375,13.9375
590,0.020751953,-1.395813,-0.09893799,3.328125,1.609375,20.40625
591,0.38476562,-1.4050903,-0.1350708,-4.703125,5.765625,11.546875
592,0.59399414,-1.0115356,-0.16021729,-9.59375,-8.921875,24.40625
593,0.16430664,-0.94195557,-0.14581299,-5.953125,-18.15625,12.359375
594,0.28198242,-0.8687134,0.00091552734,-2.59375,-2.6875,5.703125
595,0.048828125,-0.9458618,-0.00030517578,-16.5,-0.46875,-3.046875
596,0.036865234,-0.8052368,0.019714355,-14.140625,11.984375,-5.28125
597,0.19555664,-0.65167236,0.023132324,-7.921875,7.6875,-7.375
598,0.15527344,-0.74176025,0.057800293,-5.046875,4.546875,-3.640625
599,0.11401367,-0.675354,0.042419434,-6.109375,7.0,-3.53125
600,0.1472168,-0.72735596,0.105163574,-2.265625,9.765625,-2.140625
601,0.11352539,-0.8032837,0.18914795,0.171875,7.859375,0.171875
602,0.041015625,-0.923645,0.23504639,-2.703125,9.015625,-2.359375
603,-0.059814453,-0.9624634,0.18621826,-7.265625,21.75,-6.109375
604,0.17016602,-0.93707275,0.20941162,-8.390625,33.03125,-15.953125
605,0.0026855469,-1.1109009,0.23846436,-8.15625,30.03125,-21.0
606,0.06518555,-1.5269165,-0.10479736,3.203125,26.90625,-26.53125
607,0.39624023,-1.0628052,-0.3850708,-1.28125,42.859375,-6.1875
608,0.049804688,-0.82940674,-0.11529541,-3.984375,31.765625,8.78125
609,0.091552734,-1.003479,-0.0025024414,3.90625,28.0,-17.03125
610,0.30981445,-1.1748657,-0.043273926,-0.6875,26.53125,1.109375
611,0.103515625,-0.7720337,-0.109680176,-0.65625,21.65625,6.109375
612,-0.18261719,-0.8928833,-0.07745361,4.53125,20.359375,0.234375
613,0.013671875,-0.9234009,-0.025939941,0.578125,23.15625,-3.9375
614,0.060791016,-0.95440674,-0.02154541,-1.03125,23.5625,2.28125
615,0.041748047,-1.0298462,0.00970459,-0.296875,17.921875,4.625
616,0.067871094,-0.97491455,0.042663574,-0.09375,11.796875,9.546875
617,-0.0546875,-1.0166626,0.07513428,0.765625,13.75,7.203125
618,-0.03173828,-1.0908813,0.03704834,0.5,17.59375,9.234375
619,0.041748047,-1.08844,0.046325684,-2.1875,16.796875,11.0
620,0.07373047,-1.1841431,0.0993042,-3.046875,5.203125,14.359375
621,-0.024169922,-1.3589478,-0.0413208,-0.96875,16.28125,8.6875
622,0.25341797,-1.4876099,-0.19464111,-4.375,19.71875,10.5
623,0.56152344,-1.0745239,-0.08013916,-11.15625,4.0,19.296875
624,0.1586914,-0.9939575,-0.1338501,-16.03125,7.65625,11.890625
625,0.2368164,-0.83795166,-0.11065674,-7.296875,15.703125,-7.734375
626,0.43603516,-1.0913696,-0.027648926,-9.046875,11.203125,0.625
627,0.107421875,-0.86968994,-0.01763916,-20.078125,10.25,-3.171875
628,0.2133789,-0.661438,0.031677246,-13.21875,12.953125,-6.296875
629,0.21044922,-0.68951416,0.053649902,-7.3125,2.4375,-3.296875
630,0.0390625,-0.6880493,0.10003662,-7.265625,7.046875,-2.3125
631,0.030273438,-0.6851196,0.09320068,-8.90625,11.953125,-4.859375
632,0.059326172,-0.7366333,0.070007324,-5.515625,20.546875,-4.953125
633,0.13427734,-0.90167236,0.09442139,3.4375,24.78125,-1.984375
634,0.14892578,-1.0598755,0.18719482,7.40625,24.90625,-1.328125
635,0.095458984,-1.1216431,0.13397217,0.3125,26.6875,-0.734375
636,0.072021484,-1.3294067,0.3649292,6.421875,37.21875,-5.546875
637,0.2529297,-1.4136353,0.019226074,2.53125,37.765625,-10.765625
638,0.46191406,-1.3101196,-0.007385254,6.1875,29.515625,-8.0625
639,0.24560547,-1.5645142,-0.25958252,1.890625,30.75,0.875
640,-0.12133789,-0.9819946,-0.25274658,-9.34375,36.875,-11.140625
641,0.2734375,-0.8032837,-0.24737549,-1.984375,45.5,-1.84375
642,0.07006836,-0.94781494,-0.09869385,-0.1875,37.46875,-0.25
643,-0.032470703,-0.85528564,-0.051818848,-3.90625,39.03125,-5.28125
644,0.016357422,-0.8106079,-0.023010254,-8.84375,35.53125,0.484375
645,0.038330078,-0.64556885,-0.062072754,-6.1875,34.984375,0.453125
646,0.033691406,-0.7012329,-0.051330566,-4.25,33.953125,2.515625
647,0.049316406,-0.80596924,-0.031799316,3.234375,29.171875,7.453125
648,0.028808594,-0.9338989,-0.00030517578,6.59375,24.0,3.90625
649,0.043945312,-1.1165161,0.032409668,7.4375,22.515625,6.140625
650,0.05493164,-1.225647,-0.028869629,-6.046875,17.140625,8.734375
651,0.092285156,-1.1489868,-0.00592041,-7.65625,12.609375,13.328125
652,0.009033203,-1.3308716,-0.081848145,-8.5,3.125,15.3125
653,0.26220703,-1.3447876,-0.3069458,-2.328125,2.1875,9.640625
654,0.83740234,-0.95806885,-0.30255127,-4.140625,-1.28125,9.015625
655,0.40771484,-1.0059204,-0.094055176,-7.9375,-33.703125,19.375
656,-0.048828125,-0.9678345,0.05633545,-8.3125,-16.640625,-2.015625
657,0.33374023,-0.8250122,0.094177246,-13.046875,-5.0,-0.359375
658,0.07128906,-0.6958618,0.113220215,-12.46875,-6.328125,0.609375
659,0.03955078,-0.56134033,0.05316162,-8.640625,1.140625,-5.15625
660,0.12988281,-0.66534424,0.062683105,-6.03125,-0.71875,-3.765625
661,0.01171875,-0.73272705,0.070495605,-3.453125,3.390625,-3.390625
662,0.12792969,-0.8230591,0.07659912,-0.078125,7.90625,-5.171875
663,0.22143555,-0.9998169,0.17523193,4.609375,6.234375,-0.734375
664,0.23779297,-1.1643677,0.21844482,8.046875,7.109375,2.859375
665,0.16699219,-1.1160278,0.18695068,7.46875,2.78125,-0.609375
666,0.19628906,-1.0552368,0.14569092,9.015625,8.640625,-9.171875
667,0.27954102,-1.3809204,0.024597168,15.1875,3.203125,-10.8125
668,0.18969727,-1.4644165,-0.0725708,2.3125,8.25,-16.0
669,0.19506836,-1.0466919,-0.12677002,-9.21875,11.21875,-5.84375
670,0.25878906,-0.80181885,-0.08868408,0.578125,15.234375,-11.84375
671,0.17871094,-1.1419067,0.023864746,-0.859375,7.53125,-4.46875
672,0.0021972656,-0.817688,0.042663574,-9.453125,15.40625,-8.15625
673,0.02319336,-0.74835205,0.06439209,-12.859375,15.140625,-11.4375
674,-0.0026855469,-0.6838989,0.12200928,-11.0,19.78125,-8.328125
675,0.029296875,-0.67633057,0.0836792,-10.71875,24.484375,-3.359375
676,-0.013183594,-0.69659424,0.062194824,-6.421875,23.234375,0.21875
677,-0.040039062,-0.78570557,0.053894043,-1.015625,21.96875,-0.765625
678,-0.04345703,-0.91656494,0.0993042,1.171875,20.109375,-2.453125
679,-0.06201172,-1.0132446,0.168396,-0.90625,21.0625,1.4375
680,0.0007324219,-1.0371704,0.12347412,-6.90625,14.859375,3.796875
681,-0.017089844,-1.0142212,0.23504639,-10.96875,11.5625,5.921875
682,-0.083984375,-1.173645,0.2880249,-16.734375,11.84375,4.375
683,-0.05908203,-1.4099731,0.3534546,-26.03125,8.4375,-2.15625
684,-0.042236328,-1.4089966,0.11956787,-34.21875,25.671875,-1.9375
685,0.14233398,-0.7300415,-0.18121338,-31.78125,33.515625,-0.84375
686,0.61157227,-0.38824463,-0.11968994,2.0625,13.8125,17.53125
687,0.091796875,-1.1746216,0.25897217,9.21875,-1.90625,8.734375
688,-0.17211914,-1.0881958,0.17425537,-10.15625,32.109375,-3.5625
689,0.20629883,-0.9138794,0.047058105,-9.765625,41.046875,-6.984375
690,0.2800293,-0.81622314,0.15301514,2.328125,26.296875,2.5
691,0.084472656,-0.9312134,0.18963623,5.671875,19.078125,5.09375
692,0.080566406,-0.9768677,0.22357178,2.78125,23.515625,3.3125
693,0.026123047,-0.90875244,0.21966553,-1.375,26.203125,-0.21875
694,0.03466797,-0.8982544,0.18426514,1.09375,27.484375,-0.546875
695,0.1508789,-0.8911743,0.24041748,4.203125,26.203125,-0.03125
696,0.068359375,-0.9990845,0.26507568,6.140625,21.90625,1.03125
697,0.08300781,-0.96099854,0.30291748,2.140625,29.078125,-6.859375
698,0.0703125,-1.1450806,0.081970215,7.75,32.015625,-6.828125
699,0.26513672,-1.520813,-0.09454346,15.796875,25.1875,-12.125
700,0.53393555,-1.717102,-0.14654541,17.734375,27.109375,3.5
701,-0.083984375,-1.0979614,-0.27642822,-4.015625,40.234375,-10.953125
702,0.19262695,-0.7932739,-0.24273682,6.34375,49.984375,-6.125
703,0.22705078,-1.0117798,-0.10699463,8.109375,36.484375,-5.453125
704,-0.072265625,-0.9307251,-0.09552002,-0.0625,39.4375,-5.53125
705,0.04248047,-0.9048462,-0.12506104,-8.65625,44.96875,-5.625
706,0.08276367,-0.7498169,-0.054748535,-7.3125,38.4375,0.25
707,0.046875,-0.76885986,-0.012023926,-4.765625,34.484375,3.3125
708,0.06591797,-0.7698364,-0.0037231445,-2.171875,30.953125,6.09375
709,0.09814453,-0.8255005,-0.003479004,2.390625,23.703125,8.921875
710,0.072021484,-0.92071533,0.014587402,7.8125,15.171875,9.0
711,0.072265625,-1.1704712,0.0026245117,-0.765625,15.125,6.8125
712,0.015625,-1.265686,0.008972168,0.546875,12.78125,9.859375
713,0.111816406,-1.1602173,0.020446777,-8.765625,10.53125,13.578125
714,0.13183594,-1.4346313,-0.12042236,0.59375,13.203125,10.3125
715,0.4663086,-1.2119751,-0.27252197,0.703125,13.375,3.875
716,0.81591797,-0.74176025,-0.20635986,-3.640625,-20.171875,21.0
717,0.12817383,-1.0061646,-0.04498291,-1.4375,-31.734375,7.984375
718,0.31225586,-0.8928833,0.03656006,-4.609375,-17.734375,0.03125
719,0.25073242,-0.8508911,0.04144287,-9.28125,-20.671875,-0.40625
720,0.05810547,-0.6494751,0.0099487305,-2.703125,-16.96875,-0.296875
721,0.009033203,-1.3330688,0.25360107,11.75,7.40625,3.890625
722,0.27734375,-1.3179321,-0.269104,11.359375,4.140625,-9.953125
723,0.58374023,-1.2481079,0.23529053,18.78125,-0.578125,-0.765625
724,-0.32348633,-1.5049438,-0.2871704,-7.5,11.0625,-2.46875
725,0.13867188,-0.678772,-0.40264893,-5.5,48.984375,-18.34375
726,0.40820312,-1.0200806,-0.31549072,8.359375,40.828125,-8.203125
727,-0.09350586,-1.1538696,-0.20098877,1.734375,42.140625,-17.046875
728,-0.025878906,-1.0618286,-0.085998535,-7.140625,50.75,-23.25
729,0.07763672,-0.7913208,-0.077941895,-12.671875,50.734375,-15.859375
730,0.10058594,-0.8069458,-0.11407471,-8.265625,48.40625,-12.1875
731,0.09008789,-0.7114868,-0.06304932,-6.78125,51.859375,-8.234375
732,0.017578125,-0.78741455,-0.1675415,-9.3125,44.796875,-1.4375
733,-0.018310547,-0.8352661,-0.03692627,-3.234375,39.265625,0.3125
734,-0.068603516,-0.9043579,-0.035461426,-2.15625,38.0,1.984375
735,-0.068115234,-0.88946533,-0.01739502,-7.15625,36.625,5.203125
736,-0.07128906,-0.925354,0.014343262,-2.0,32.109375,5.15625
737,-0.10913086,-0.9627075,0.03704834,-0.546875,29.796875,7.9375
738,-0.095947266,-0.99664307,0.031921387,-1.4375,29.65625,7.484375
739,-0.07470703,-1.0960083,0.10321045,-0.609375,26.96875,7.671875
740,-0.064697266,-1.269104,0.19110107,-2.75,25.9375,11.953125
741,-0.08984375,-1.3674927,0.098083496,-4.234375,19.96875,11.328125
742,0.052001953,-1.586731,-0.09454346,-5.28125,23.203125,9.265625
743,0.36010742,-1.3670044,-0.4800415,-5.609375,19.0,6.78125
744,0.5703125,-0.9055786,-0.25616455,-3.0,11.015625,13.5625
745,0.2692871,-0.9290161,-0.237854,-8.78125,5.109375,10.890625
746,0.12451172,-0.95318604,-0.0569458,-6.0,13.078125,-0.140625
747,0.16845703,-0.96051025,-0.07891846,-10.5625,23.40625,1.171875
748,0.2211914,-0.7896118,-0.05670166,-10.390625,20.5,3.4375
749,0.19433594,-0.69317627,-0.039367676,-6.484375,13.421875,1.0
750,0.15307617,-0.6975708,0.029724121,-4.234375,8.671875,1.9375
751,0.053955078,-0.7698364,0.06732178,-4.953125,9.703125,-0.015625
752,0.021972656,-0.74420166,0.073913574,-4.578125,16.5625,-4.25
753,0.14453125,-0.8374634,0.11785889,-0.515625,21.078125,-5.109375
754,0.061523438,-0.9290161,0.081970215,0.234375,19.203125,-4.078125
755,0.16967773,-0.8928833,0.19647217,1.109375,20.984375,-6.078125
756,0.050048828,-0.9553833,0.18963623,-0.890625,22.875,-5.078125
757,0.1081543,-0.9885864,0.16326904,-1.5,21.875,-4.109375
758,0.040283203,-1.0130005,0.051208496,2.25,22.5625,-7.5625
759,0.19067383,-1.1834106,-0.036193848,12.171875,22.421875,-9.625
