sample_no,accel_x,accel_y,accel_z,gyro_x,gyro_y,gyro_z
0,0.9260254,-0.7437134,0.11248779,32.0,18.015625,26.515625
1,0.056396484,-0.68536377,-0.18145752,-9.734375,-18.265625,15.65625
2,0.030029297,-0.7349243,-0.20391846,-6.734375,-15.1875,6.84375
3,0.1315918,-0.70635986,-0.120666504,5.96875,-4.34375,-0.421875
4,0.32299805,-0.80914307,-0.08331299,2.515625,-8.625,0.203125
5,0.22387695,-0.5425415,-0.09674072,5.84375,-7.265625,10.359375
6,0.091796875,-0.63165283,-0.1260376,9.171875,-8.28125,11.96875
7,0.171875,-0.84576416,-0.045715332,-6.421875,-9.96875,2.09375
8,0.26171875,-1.048645,-0.065979004,-3.5625,-14.734375,-0.875
9,0.21777344,-1.1201782,-0.043273926,-1.109375,-5.96875,-6.15625
10,0.19067383,-1.1755981,0.027526855,4.078125,1.328125,-9.703125
11,0.10449219,-1.1174927,-0.14215088,13.421875,7.625,-20.3125
12,0.54907227,-1.3413696,-0.3184204,3.078125,-24.59375,-18.28125
13,0.25268555,-1.5327759,-0.29107666,19.984375,-4.828125,-12.484375
14,0.0029296875,-0.9795532,-0.41851807,-11.34375,16.984375,-4.890625
15,0.22021484,-0.5623169,-0.33380127,-2.1875,13.984375,-13.75
16,0.084228516,-0.9788208,-0.38726807,11.546875,10.953125,-3.828125
17,0.0390625,-0.9741821,-0.24346924,9.703125,13.546875,-6.1875
18,0.13745117,-0.71343994,-0.13702393,-4.796875,14.125,4.859375
19,0.038085938,-0.5664673,-0.17877197,-1.65625,4.515625,9.5625
20,-0.06958008,-0.53741455,-0.20855713,8.3125,5.828125,1.625
21,0.10839844,-0.72784424,-0.18878174,5.515625,-1.875,4.90625
22,0.10083008,-0.9963989,-0.16290283,-1.84375,-14.375,5.09375
23,0.03540039,-1.1841431,-0.26080322,-7.078125,-15.203125,0.03125
24,0.08666992,-1.2984009,-0.21734619,-2.59375,3.359375,2.453125
25,0.032470703,-1.3782349,-0.25201416,-16.046875,-7.21875,-1.296875
26,-0.07739258,-1.2466431,-0.5105591,3.515625,-5.8125,-0.609375
27,0.39013672,-1.3154907,-0.4348755,-6.03125,-6.21875,-9.421875
28,0.6230469,-1.0747681,-0.12774658,4.640625,12.625,5.28125
29,0.15209961,-0.6902466,-0.15802002,3.5,8.859375,17.375
30,0.2607422,-0.57891846,-0.21173096,-8.734375,-18.546875,1.734375
31,0.22314453,-0.8838501,-0.05255127,-6.765625,-12.96875,4.828125
32,0.06738281,-0.8718872,-0.13067627,1.578125,-3.6875,1.90625
33,0.14941406,-0.5376587,-0.097717285,5.84375,-2.171875,3.234375
34,0.18286133,-0.5510864,-0.14361572,8.3125,-4.046875,7.734375
35,0.118652344,-0.7168579,-0.07720947,6.0625,-4.921875,9.578125
36,0.18334961,-0.99176025,-0.1362915,0.5625,-7.703125,2.34375
37,0.27246094,-1.114563,-0.06304932,4.46875,-3.53125,-1.890625
38,0.2368164,-1.1694946,-0.047668457,0.71875,0.609375,-7.21875
39,0.14282227,-1.1863403,-0.2341919,9.3125,3.4375,-15.03125
40,0.4025879,-1.3858032,-0.28253174,-3.4375,-20.03125,-22.671875
41,0.21875,-1.5615845,-0.4229126,2.859375,15.34375,-8.375
42,0.14941406,-0.7666626,-0.4492798,4.015625,19.46875,-6.90625
43,0.09692383,-0.64678955,-0.3723755,0.71875,22.828125,-8.28125
44,0.06665039,-0.85894775,-0.36138916,0.390625,8.75,0.703125
45,-0.029052734,-0.85284424,-0.24249268,7.609375,9.28125,-5.90625
46,0.08569336,-0.71759033,-0.21514893,-1.34375,6.546875,4.578125
47,0.110839844,-0.53912354,-0.12554932,-2.8125,2.625,10.8125
48,-0.033447266,-0.56915283,-0.20587158,-1.078125,-2.859375,7.359375
49,0.00390625,-0.7752075,-0.17193604,-0.84375,-6.515625,4.453125
50,0.0769043,-1.1506958,-0.19976807,-4.765625,-10.671875,4.71875
51,0.055664062,-1.416565,-0.22076416,-11.96875,-7.90625,-1.828125
52,-0.051757812,-1.3230591,-0.2197876,-16.46875,1.25,-4.5625
53,0.0063476562,-1.2825317,-0.49395752,-12.484375,-9.96875,-10.8125
54,0.39770508,-1.4973755,-0.40460205,-7.140625,-1.828125,-7.96875
55,0.5661621,-1.0908813,-0.20904541,2.453125,5.6875,9.9375
56,0.21508789,-0.6729126,-0.15509033,-0.390625,7.375,7.5625
57,0.25634766,-0.6397095,-0.14630127,-10.921875,-15.671875,-3.953125
58,0.13671875,-0.9277954,-0.009338379,1.5625,-2.34375,6.515625
59,0.084228516,-0.803772,-0.14263916,-4.59375,-7.09375,0.3125
60,0.1940918,-0.4932251,-0.08526611,8.484375,0.171875,4.34375
61,0.12719727,-0.569397,-0.1104126,15.625,1.078125,8.4375
62,0.12402344,-0.7214966,-0.12652588,8.53125,-5.6875,9.15625
63,0.2006836,-0.944397,-0.08721924,1.4375,-12.6875,8.890625
64,0.2055664,-1.2195435,0.018005371,5.0,-5.421875,1.4375
65,0.09057617,-1.2713013,-0.09820557,0.828125,4.84375,-5.5
66,0.30737305,-1.180481,-0.24761963,1.171875,0.140625,-15.1875
67,0.50683594,-1.4736938,-0.35577393,-3.09375,-17.671875,-15.828125
68,0.0024414062,-1.2398071,-0.37628174,3.46875,22.3125,-2.0
69,0.11352539,-0.7283325,-0.53375244,-0.046875,21.796875,-11.25
70,0.21679688,-0.7102661,-0.36968994,2.015625,14.921875,-7.046875
71,0.12084961,-0.8826294,-0.21026611,8.3125,5.828125,3.640625
72,0.015625,-0.78741455,-0.14068604,10.859375,1.921875,4.890625
73,0.03173828,-0.5757446,-0.18927002,-5.0625,-5.0625,6.21875
74,0.045410156,-0.4397583,-0.19293213,-0.703125,-8.34375,5.53125
75,0.0087890625,-0.6116333,-0.22369385,9.59375,-4.90625,2.46875
76,0.049072266,-0.9126587,-0.15362549,5.78125,-7.203125,4.671875
77,0.03491211,-1.265686,-0.23248291,3.1875,-10.234375,2.046875
78,0.04296875,-1.4387817,-0.27789307,-3.578125,-6.703125,2.75
79,0.052490234,-1.2632446,-0.17706299,-10.84375,-3.859375,-3.6875
80,-0.06933594,-1.3150024,-0.58135986,-6.828125,-5.140625,-9.84375
81,0.4621582,-1.5291138,-0.41973877,-13.28125,-3.5625,-13.09375
82,0.5336914,-1.2371216,-0.34576416,-13.890625,0.40625,1.84375
83,0.27368164,-0.55303955,-0.10797119,23.734375,22.890625,17.953125
84,0.22387695,-0.50665283,-0.1482544,-1.96875,-9.90625,10.046875
85,0.107666016,-0.86968994,-0.059631348,-13.78125,-18.625,-0.0625
86,0.032958984,-0.864563,-0.16046143,3.4375,-5.21875,-1.703125
87,0.16235352,-0.5130005,-0.13897705,7.40625,5.0625,3.90625
88,0.16992188,-0.48101807,-0.10797119,11.03125,0.75,7.515625
89,0.110839844,-0.69781494,-0.07110596,0.296875,-7.578125,9.828125
90,0.08959961,-1.0125122,-0.07159424,-6.25,-11.515625,2.8125
91,0.20629883,-1.2485962,-0.05718994,-4.609375,-5.25,-4.796875
92,0.1977539,-1.2930298,-0.054260254,-2.609375,7.421875,-8.90625
93,0.26220703,-1.2774048,-0.33966064,-3.28125,-1.875,-18.078125
94,0.3635254,-1.5498657,-0.2937622,-13.34375,-18.078125,-21.734375
95,0.10498047,-1.2544556,-0.3640747,-3.671875,28.109375,0.671875
96,0.06762695,-0.6399536,-0.4282837,7.296875,24.75,-9.625
97,0.1430664,-0.7620239,-0.37579346,-13.109375,12.03125,-6.96875
98,0.03100586,-0.92633057,-0.24249268,9.578125,10.0625,-0.703125
99,0.053955078,-0.49884033,-0.13311768,9.6875,1.171875,6.28125
100,0.1459961,-0.6914673,-0.11260986,5.3125,-2.859375,3.5625
101,0.1875,-1.015686,-0.06329346,0.75,-6.65625,-2.625
102,0.15942383,-1.1577759,-0.0012817383,-10.3125,-5.0,-6.015625
103,0.1274414,-1.2229614,-0.12823486,-0.390625,-0.625,-13.734375
104,0.4255371,-1.4507446,-0.5335083,-8.90625,-31.8125,-18.46875
105,0.234375,-1.5596313,-0.3743286,6.15625,-1.203125,-5.484375
106,0.05908203,-0.99835205,-0.3706665,5.765625,28.390625,1.84375
107,0.06738281,-0.71759033,-0.39337158,0.3125,18.609375,-7.921875
108,0.10546875,-0.8213501,-0.3423462,4.46875,8.421875,1.859375
109,0.075927734,-0.85479736,-0.26593018,9.21875,9.21875,0.65625
110,0.0107421875,-0.7678833,-0.14361572,14.4375,8.921875,8.046875
111,0.030761719,-0.5327759,-0.21099854,-5.40625,2.421875,6.0625
112,0.016845703,-0.5352173,-0.1795044,3.609375,-1.734375,2.1875
113,0.042236328,-0.72979736,-0.21124268,-0.375,-9.328125,3.4375
114,0.01953125,-1.0505981,-0.20831299,-9.53125,-22.15625,-0.5
115,-0.16381836,-1.4107056,-0.30108643,4.59375,-9.796875,-5.65625
116,0.2163086,-1.392395,-0.17022705,-18.0625,10.453125,0.234375
117,0.13842773,-1.2149048,-0.39434814,-3.40625,-0.953125,-0.40625
118,0.10205078,-1.3872681,-0.519104,1.515625,-4.640625,-9.171875
119,0.70703125,-1.2354126,-0.23028564,3.421875,4.03125,-1.484375
120,0.31860352,-0.7149048,-0.20733643,4.03125,7.15625,13.59375
121,0.18701172,-0.65948486,-0.17901611,-6.765625,-15.75,5.453125
122,0.17163086,-0.8140259,-0.09869385,-2.765625,-9.109375,0.375
123,0.092285156,-0.75787354,-0.12896729,1.296875,-4.6875,3.796875
124,0.12036133,-0.57476807,-0.16314697,0.421875,-4.515625,0.125
125,0.1665039,-0.5444946,-0.09942627,6.625,-5.921875,7.578125
126,0.16333008,-0.6848755,-0.13946533,-4.296875,-11.0625,8.609375
127,0.14575195,-0.87823486,-0.022033691,0.28125,-8.4375,2.890625
128,0.1652832,-1.1638794,-0.08795166,-3.34375,-9.1875,-2.046875
129,0.24072266,-1.2007446,-0.042785645,-0.078125,3.765625,-8.140625
130,0.19848633,-1.2444458,-0.19830322,1.484375,7.515625,-13.921875
131,0.37695312,-1.5596313,-0.40386963,-8.015625,-25.921875,-24.375
132,0.23657227,-1.4793091,-0.32061768,5.828125,30.3125,0.375
133,0.064941406,-0.6682739,-0.46099854,9.296875,17.265625,-0.59375
134,0.05029297,-0.59820557,-0.37139893,5.953125,13.921875,-10.359375
135,0.12866211,-0.9373169,-0.30767822,5.5,7.578125,-0.234375
136,0.06738281,-0.8740845,-0.17364502,5.921875,2.625,-1.484375
137,0.030517578,-0.60479736,-0.16534424,0.8125,6.46875,8.109375
138,-0.0024414062,-0.42022705,-0.18878174,4.875,1.859375,8.328125
139,-0.06762695,-0.5877075,-0.25787354,3.9375,1.046875,0.40625
140,0.06323242,-0.81134033,-0.18243408,2.375,-2.59375,3.8125
141,0.05908203,-1.201477,-0.28033447,-3.296875,-11.234375,-1.921875
142,-0.001953125,-1.4263306,-0.27301025,-6.109375,-8.265625,-0.75
143,0.05078125,-1.3821411,-0.1572876,-22.546875,-1.421875,-0.84375
144,0.033691406,-1.279602,-0.5081177,-17.125,-17.234375,-4.75
145,0.24023438,-1.3286743,-0.52716064,4.515625,-7.734375,-8.578125
146,0.7224121,-1.0894165,-0.17340088,6.984375,9.4375,13.328125
147,0.22045898,-0.70562744,-0.14556885,6.75,7.203125,16.484375
148,0.1640625,-0.6626587,-0.1819458,-8.046875,-9.71875,-2.0625
149,0.10058594,-0.95025635,-0.05645752,-9.59375,-5.59375,-1.25
150,0.11425781,-0.7866821,-0.19415283,-2.71875,-1.453125,-2.65625
151,0.17871094,-0.47833252,-0.12164307,7.34375,-0.671875,-0.390625
152,0.14794922,-0.5630493,-0.0960083,7.96875,-4.734375,4.8125
153,0.080322266,-0.7769165,-0.10601807,0.25,-6.359375,4.671875
154,0.14135742,-1.0039673,-0.11431885,-0.75,-7.59375,-0.265625
155,0.17773438,-1.117981,-0.051574707,-0.875,-5.84375,-5.53125
156,0.18383789,-1.2161255,-0.0725708,-2.671875,3.59375,-7.65625
157,0.18603516,-1.2219849,-0.2420044,-0.046875,-1.640625,-14.390625
158,0.24438477,-1.513977,-0.3328247,1.09375,-16.328125,-21.015625
159,0.07910156,-1.2625122,-0.3604126,8.28125,33.546875,8.3125
160,0.08129883,-0.6055298,-0.45684814,4.234375,18.265625,-8.65625
161,0.08886719,-0.8389282,-0.33258057,5.453125,16.296875,0.796875
162,0.083740234,-0.96588135,-0.25323486,8.125,13.46875,1.921875
163,0.013671875,-0.77130127,-0.1519165,5.34375,10.09375,2.328125
164,0.017822266,-0.5762329,-0.20196533,-2.265625,8.671875,6.609375
165,0.008300781,-0.45562744,-0.19805908,-3.140625,1.65625,5.75
166,-0.025878906,-0.67022705,-0.20196533,2.484375,-1.5625,3.375
167,0.017333984,-1.0703735,-0.2522583,-7.78125,-10.09375,0.484375
168,0.08569336,-1.3377075,-0.24957275,-7.734375,-12.953125,-1.359375
169,0.041992188,-1.2559204,-0.21807861,-20.90625,-4.921875,-1.578125
170,-0.035888672,-1.2532349,-0.32037354,-14.421875,-20.21875,-5.203125
171,0.09741211,-1.3442993,-0.4307251,-0.140625,-10.921875,-11.34375
172,0.5917969,-1.2232056,-0.13214111,-3.953125,7.71875,2.25
173,0.32055664,-0.75738525,-0.16583252,-7.78125,0.03125,11.78125
174,0.18261719,-0.76641846,-0.15118408,-13.546875,-12.625,3.046875
175,0.0690918,-0.91973877,0.004333496,-1.359375,-6.15625,1.234375
176,0.115478516,-0.83599854,-0.066223145,-6.34375,-8.046875,-0.53125
177,0.18310547,-0.52593994,-0.089904785,9.515625,-4.828125,0.953125
178,0.076171875,-0.5042114,-0.07525635,12.0625,-6.671875,6.65625
179,0.049804688,-0.6506958,-0.062072754,6.484375,-11.640625,7.703125
180,0.1706543,-0.9480591,0.018737793,3.703125,-10.796875,3.25
181,0.14477539,-1.3140259,0.011657715,8.28125,-6.015625,-3.125
182,0.16381836,-1.1948853,-0.07110596,-2.0625,1.921875,-8.640625
183,0.27075195,-1.4668579,-0.32330322,-9.4375,-25.375,-15.8125
184,0.2097168,-1.5581665,-0.3538208,2.21875,5.34375,-4.109375
185,0.11425781,-0.96954346,-0.46368408,-0.953125,29.125,5.8125
186,0.07836914,-0.6514282,-0.31036377,2.234375,16.859375,-9.59375
187,0.03100586,-0.9277954,-0.26763916,10.453125,10.578125,6.109375
188,-0.011474609,-0.88287354,-0.19659424,10.015625,6.609375,1.734375
189,0.0390625,-0.7127075,-0.1609497,0.109375,4.0,3.296875
190,0.061279297,-0.5039673,-0.08917236,-0.640625,2.234375,6.90625
191,-0.020507812,-0.46124268,-0.16363525,3.875,-1.75,3.8125
192,0.0021972656,-0.72784424,-0.15509033,-2.828125,-6.640625,1.609375
193,-0.03466797,-1.2466431,-0.2234497,5.46875,-3.453125,-5.734375
194,0.028076172,-1.4851685,-0.25933838,-8.1875,-6.453125,-6.625
195,0.08618164,-1.3311157,-0.124816895,-19.953125,-2.953125,-2.640625
196,-0.03564453,-1.2510376,-0.36798096,-5.125,-8.015625,-4.203125
197,0.08984375,-1.4492798,-0.39678955,1.0625,4.671875,-8.1875
198,0.60546875,-1.1929321,-0.20147705,-5.859375,7.0,-2.46875
199,0.25732422,-0.66656494,-0.10772705,14.734375,14.453125,11.0625
200,0.16967773,-0.60406494,-0.1663208,-13.78125,-15.828125,3.46875
201,0.08496094,-0.88531494,-0.0044555664,-10.140625,-11.59375,5.0625
202,0.055664062,-0.8689575,-0.08013916,2.234375,-4.453125,1.5
203,0.13671875,-0.49176025,-0.10211182,2.71875,-6.171875,-0.15625
204,0.111083984,-0.5303345,-0.07745361,7.546875,-4.96875,5.90625
205,0.080322266,-0.7366333,-0.04815674,2.296875,-6.203125,9.265625
206,0.072753906,-0.98150635,-0.05230713,6.265625,-5.859375,0.96875
207,0.1550293,-1.2263794,-0.0491333,4.203125,0.265625,-2.953125
208,0.16064453,-1.2495728,0.028015137,3.703125,8.890625,-1.515625
209,0.1508789,-1.295227,-0.21490479,0.09375,-2.78125,-14.359375
210,0.30297852,-1.5840454,-0.28619385,0.328125,-17.828125,-19.859375
211,0.1508789,-1.305481,-0.40338135,1.703125,34.90625,9.5625
212,0.0637207,-0.60284424,-0.37774658,6.34375,21.578125,-5.9375
213,-0.059570312,-0.76348877,-0.32525635,4.640625,16.140625,-3.5
214,0.07861328,-0.9036255,-0.19805908,5.890625,9.28125,-3.828125
215,0.09423828,-0.7324829,-0.17510986,-3.59375,5.46875,-0.609375
216,0.024414062,-0.506897,-0.15484619,-0.390625,9.421875,9.296875
217,-0.0390625,-0.4541626,-0.18218994,-6.34375,-1.9375,4.3125
218,-0.09277344,-0.7102661,-0.15948486,0.0625,-4.8125,-1.625
219,-0.0014648438,-1.1323853,-0.12994385,5.859375,-0.96875,4.578125
220,0.0390625,-1.3789673,-0.2564087,2.421875,-7.40625,3.1875
221,0.06518555,-1.2214966,-0.17315674,-16.140625,-9.640625,1.578125
222,-0.032470703,-1.3389282,-0.39068604,-7.609375,-10.65625,4.9375
223,0.14892578,-1.4675903,-0.49102783,8.515625,-12.765625,-0.078125
224,0.64990234,-1.2717896,-0.20196533,0.3125,6.625,10.34375
225,0.3239746,-0.756897,-0.101623535,9.640625,11.984375,20.84375
226,0.16723633,-0.6651001,-0.2390747,-8.75,-8.78125,2.546875
227,0.16845703,-0.87164307,-0.045959473,-11.734375,-7.796875,2.515625
228,0.087402344,-0.77838135,-0.054748535,-6.984375,-4.65625,-2.90625
229,0.16186523,-0.55181885,-0.093322754,-3.609375,-2.640625,-0.890625
230,0.114990234,-0.48712158,-0.06011963,14.234375,2.640625,8.1875
231,0.0769043,-0.65411377,-0.08917236,0.796875,-2.234375,7.6875
232,0.15966797,-0.8897095,-0.035705566,-6.953125,-1.921875,2.0625
233,0.18066406,-1.197815,-0.017150879,-5.984375,-5.015625,-5.78125
234,0.1730957,-1.2764282,0.012390137,-0.015625,1.53125,-10.15625
235,0.28222656,-1.3308716,-0.3826294,-6.234375,-8.171875,-18.296875
236,0.37426758,-1.4868774,-0.25323486,-6.59375,-22.25,-15.71875
237,0.04345703,-1.1963501,-0.37261963,-6.828125,23.953125,2.671875
238,0.064697266,-0.6223755,-0.28619385,5.578125,16.46875,-10.96875
239,0.1352539,-0.8674927,-0.26080322,8.734375,2.9375,-7.796875
240,0.012207031,-0.942688,-0.24298096,12.09375,3.84375,-1.828125
241,0.03930664,-0.79766846,-0.18023682,0.546875,-1.25,-2.8125
242,0.08203125,-0.58721924,-0.049865723,0.265625,-7.46875,2.640625
243,-0.0041503906,-0.6069946,-0.21099854,-3.96875,-10.296875,3.5
244,0.049072266,-0.68414307,-0.16900635,5.53125,-11.96875,4.546875
245,-0.020751953,-0.9019165,-0.12237549,2.625,-11.828125,7.4375
246,-0.0041503906,-1.05719,-0.1921997,5.734375,-4.453125,3.5
247,0.026855469,-1.2276001,-0.2078247,2.78125,0.3125,1.8125
248,0.020019531,-1.3743286,-0.1350708,-9.515625,-4.5,-2.6875
249,-0.037353516,-1.3870239,-0.37945557,-8.703125,-10.140625,0.65625
250,0.27319336,-1.3633423,-0.3916626,-1.359375,-9.203125,-3.875
251,0.5830078,-1.142395,-0.113342285,-1.296875,5.109375,4.25
252,0.15039062,-0.68536377,-0.10479736,7.5625,11.46875,14.84375
253,0.17797852,-0.61553955,-0.16314697,-8.734375,-13.21875,0.453125
254,0.23876953,-1.0132446,-0.019348145,-7.40625,-8.140625,2.046875
255,0.084228516,-0.8989868,-0.13043213,-1.28125,-3.25,1.765625
256,0.15771484,-0.53009033,-0.10626221,7.390625,1.015625,2.390625
257,0.15625,-0.5935669,-0.093811035,8.671875,0.25,7.96875
258,0.10644531,-0.6819458,-0.061340332,9.03125,-0.71875,9.75
259,0.05810547,-0.8640747,-0.07940674,7.5,-4.9375,3.75
260,0.15844727,-1.0083618,-0.0713501,3.515625,-5.328125,-1.53125
261,0.23071289,-1.1140747,-0.032043457,3.859375,6.734375,-9.640625
262,0.17993164,-1.2966919,-0.22686768,5.078125,-0.09375,-15.59375
263,0.30297852,-1.4824829,-0.33135986,6.328125,-11.125,-21.015625
264,0.18823242,-1.5059204,-0.43292236,2.8125,26.34375,4.6875
265,0.15991211,-0.6773071,-0.43585205,0.109375,18.234375,-6.390625
266,0.091552734,-0.8491821,-0.29644775,0.890625,8.296875,3.21875
267,0.037109375,-1.0076294,-0.3164673,-1.71875,3.21875,-3.828125
268,0.020263672,-0.85284424,-0.15020752,-9.734375,3.953125,-8.875
269,0.019042969,-0.63409424,-0.11187744,-0.109375,8.015625,1.734375
270,-0.006591797,-0.4277954,-0.14117432,0.03125,8.125,4.125
271,-0.06323242,-0.51446533,-0.19122314,-3.453125,-0.25,-0.84375
272,-0.03100586,-0.77789307,-0.19146729,-0.703125,-8.453125,0.015625
273,0.087646484,-1.1609497,-0.14141846,-3.515625,-11.296875,2.84375
274,-0.06640625,-1.461731,-0.20880127,-0.921875,-10.5625,5.15625
275,0.0075683594,-1.2615356,-0.14996338,-18.34375,2.828125,2.21875
276,-0.029296875,-1.3967896,-0.5322876,-13.65625,-12.375,-4.546875
277,0.38867188,-1.4382935,-0.34625244,9.78125,-3.484375,0.28125
278,0.5979004,-1.09552,-0.06329346,9.09375,14.09375,16.515625
279,0.16601562,-0.78863525,-0.18902588,-2.375,0.765625,16.578125
280,0.14575195,-0.677063,-0.17218018,-8.953125,-15.109375,-3.046875
281,0.18286133,-0.8245239,-0.016662598,0.515625,-3.53125,2.25
282,0.14355469,-0.7149048,-0.13116455,1.640625,-4.15625,-0.21875
283,0.16601562,-0.5383911,-0.061584473,10.109375,-1.453125,3.21875
284,0.12133789,-0.51934814,-0.070617676,8.46875,-6.609375,6.40625
285,0.1303711,-0.6795044,-0.09698486,-3.875,-14.1875,4.09375
286,0.17773438,-0.97735596,-0.018371582,-0.46875,-12.484375,0.609375
287,0.16748047,-1.2573853,0.012634277,1.125,-11.953125,-3.125
288,0.17749023,-1.3359985,0.012390137,9.734375,-1.390625,-5.671875
289,0.22314453,-1.3401489,-0.19415283,6.453125,1.984375,-13.046875
290,0.29711914,-1.5249634,-0.37017822,5.84375,-13.390625,-15.625
291,0.19580078,-1.2146606,-0.4055786,4.171875,27.59375,1.171875
292,0.08251953,-0.677063,-0.3982544,5.015625,21.6875,-6.796875
293,-0.013183594,-0.7671509,-0.35357666,11.109375,16.5,-3.0625
294,0.12866211,-0.87701416,-0.2822876,5.9375,9.859375,-1.390625
295,0.076171875,-0.77960205,-0.22125244,3.359375,6.046875,2.1875
296,-0.030761719,-0.5733032,-0.19415283,5.03125,9.421875,8.84375
297,0.0063476562,-0.51568604,-0.22735596,2.71875,6.65625,7.3125
298,-0.020019531,-0.68292236,-0.22003174,7.296875,7.375,2.8125
299,0.056396484,-0.9216919,-0.23590088,-4.328125,-2.421875,4.3125
300,0.09643555,-1.2493286,-0.30377197,-3.734375,-6.21875,5.234375
301,0.034423828,-1.3587036,-0.26690674,-16.84375,-6.921875,-0.984375
302,-0.011230469,-1.3076782,-0.43389893,-14.4375,-12.109375,-5.84375
303,0.15722656,-1.3269653,-0.43463135,-14.4375,-4.328125,-10.25
304,0.5983887,-1.1660767,-0.19805908,-9.9375,5.8125,5.375
305,0.33691406,-0.7539673,-0.20269775,-4.09375,9.53125,14.625
306,0.2097168,-0.6548462,-0.1519165,-12.609375,-6.890625,2.625
307,0.18847656,-0.87042236,-0.019836426,-3.75,-4.046875,6.515625
308,0.12963867,-0.8718872,-0.097229004,-9.671875,-6.015625,1.640625
309,0.15844727,-0.60650635,-0.10845947,5.046875,-1.171875,2.59375
310,0.14379883,-0.5618286,-0.10308838,15.5,3.375,9.1875
311,0.103271484,-0.6350708,-0.05718994,9.0625,1.796875,7.828125
312,0.13061523,-0.972229,-0.06964111,-5.96875,-3.90625,-1.15625
313,0.18774414,-1.1990356,-0.0044555664,-9.71875,-11.171875,-7.390625
314,0.15429688,-1.2039185,0.10491943,-1.09375,1.265625,-12.84375
315,0.22387695,-1.2207642,-0.31573486,-0.296875,-4.84375,-16.578125
316,0.35083008,-1.3845825,-0.26275635,5.578125,-21.984375,-20.359375
317,0.038330078,-1.3372192,-0.32867432,4.375,20.921875,-1.65625
318,0.1381836,-0.75128174,-0.4319458,3.125,20.640625,-8.609375
319,0.14501953,-0.6812134,-0.270813,3.15625,9.84375,-3.765625
320,-0.026123047,-0.85943604,-0.2617798,11.265625,4.609375,2.53125
321,0.0014648438,-0.85723877,-0.16021729,9.234375,1.421875,-0.28125
322,0.028564453,-0.67926025,-0.17120361,-2.390625,0.015625,4.234375
323,-0.014404297,-0.55133057,-0.15484619,-0.046875,-5.40625,2.671875
324,-0.051513672,-0.7461548,-0.24420166,4.09375,-3.1875,1.546875
325,0.0703125,-0.9036255,-0.1716919,6.4375,-8.921875,4.5
326,0.037841797,-1.0654907,-0.16656494,5.703125,-4.9375,6.421875
327,-0.060058594,-1.2525024,-0.255188,0.1875,-0.34375,7.8125
328,-0.005126953,-1.2329712,-0.17315674,-10.625,-1.765625,2.8125
329,-0.05834961,-1.1404419,-0.30230713,-8.921875,-6.1875,2.421875
330,0.11669922,-1.3965454,-0.51446533,-6.75,-14.0,-5.1875
331,0.69091797,-1.3926392,-0.20172119,-9.0,-4.1875,4.203125
332,0.2368164,-0.80548096,-0.09283447,14.4375,17.9375,21.90625
333,0.15991211,-0.6199341,-0.23858643,1.359375,-8.875,10.6875
334,0.28735352,-0.7402954,-0.094055176,-4.046875,-12.0625,2.296875
335,0.12084961,-1.0127563,-0.17315674,-5.734375,-10.8125,0.28125
336,0.15332031,-0.6694946,-0.1819458,1.828125,-1.390625,0.234375
337,0.25,-0.54278564,-0.0869751,8.578125,0.09375,6.0
338,0.14404297,-0.663147,-0.07647705,7.265625,-7.171875,8.78125
339,0.05810547,-0.8479614,-0.13482666,3.875,-5.25,2.390625
340,0.17529297,-1.0025024,-0.10235596,5.109375,-1.53125,-2.953125
341,0.2524414,-1.111145,-0.03375244,2.5,2.859375,-8.9375
342,0.18066406,-1.2944946,-0.302063,1.96875,5.109375,-19.125
343,0.3828125,-1.468811,-0.41363525,-1.84375,-22.015625,-25.625
344,0.2199707,-1.3950806,-0.43804932,-0.15625,32.546875,-1.796875
345,0.15332031,-0.75982666,-0.5027466,5.53125,21.125,-5.8125
346,0.048828125,-0.67510986,-0.31378174,4.265625,12.921875,-17.34375
347,0.041015625,-0.9846802,-0.2937622,-1.34375,9.59375,-2.3125
348,0.035888672,-0.8274536,-0.1951294,-6.34375,6.21875,-8.40625
349,0.0546875,-0.65093994,-0.190979,-4.125,8.984375,-0.75
350,0.038330078,-0.56817627,-0.2156372,-3.546875,2.53125,2.03125
351,-0.056884766,-0.67315674,-0.19390869,-3.828125,-4.296875,0.875
352,-0.010498047,-0.82354736,-0.18389893,-3.296875,-7.21875,2.765625
353,0.009765625,-0.9085083,-0.20562744,0.78125,-6.265625,2.171875
354,-0.0126953125,-1.0930786,-0.19781494,2.578125,-4.40625,5.21875
355,0.022460938,-1.2449341,-0.14337158,-3.921875,-4.546875,7.203125
356,-0.020263672,-1.3140259,-0.22833252,-10.203125,-8.3125,4.59375
357,-0.061767578,-1.3765259,-0.47442627,-7.90625,-12.84375,5.078125
358,0.36083984,-1.4631958,-0.35723877,-2.59375,-11.390625,0.9375
359,0.34985352,-1.0591431,-0.20855713,3.328125,10.453125,11.21875
360,0.21264648,-0.663147,-0.12896729,8.390625,11.515625,12.40625
361,0.2331543,-0.69000244,-0.14605713,-11.953125,-11.40625,0.734375
362,0.20458984,-1.0269165,-0.06304932,-19.4375,-14.03125,2.953125
363,0.025634766,-0.8189087,-0.090148926,-5.75,-3.84375,-2.796875
364,0.15966797,-0.6433716,-0.08843994,-8.34375,-5.515625,-2.75
365,0.13500977,-0.62945557,-0.05206299,0.78125,-4.921875,-0.03125
366,0.060058594,-0.73101807,-0.120666504,-4.5625,-1.828125,1.84375
367,0.1496582,-0.8069458,-0.014709473,0.78125,-0.875,-0.40625
368,0.16308594,-0.93878174,0.0067749023,-1.625,-2.453125,2.875
369,0.10864258,-1.0029907,0.07733154,12.9375,18.796875,6.078125
370,0.13110352,-1.2510376,-0.015686035,11.96875,13.9375,7.8125
371,0.07299805,-1.3103638,0.07537842,7.078125,7.015625,-6.8125
372,0.26953125,-1.3613892,-0.2588501,2.0625,-7.34375,-17.828125
373,0.17138672,-1.5088501,-0.23370361,13.671875,-1.453125,-18.09375
374,0.13183594,-0.8960571,-0.5664673,0.75,16.34375,-3.625
375,0.2529297,-0.6084595,-0.39068604,-2.296875,13.328125,-9.390625
376,0.122558594,-1.0408325,-0.3567505,-7.125,-5.5625,-7.4375
377,-0.09838867,-1.1567993,-0.24395752,-10.734375,2.34375,-18.09375
378,0.032714844,-0.66900635,-0.10333252,-5.53125,4.78125,-5.953125
379,0.12866211,-0.4216919,-0.10089111,-9.453125,-0.546875,-3.671875
380,-0.0703125,-0.4866333,-0.120666504,-5.109375,-7.09375,-4.640625
381,-0.07470703,-0.611145,-0.1338501,-1.796875,-4.84375,-2.359375
382,-0.017822266,-0.73883057,-0.11920166,-4.390625,-8.6875,-0.71875
383,-0.0793457,-0.89727783,-0.12237549,1.484375,-7.65625,-0.59375
384,-0.11669922,-0.9663696,-0.07696533,6.46875,-8.03125,3.1875
385,-0.11230469,-1.0344849,0.0045776367,1.875,-1.09375,3.4375
386,-0.12158203,-1.0960083,-0.059631348,-4.5625,-8.546875,2.75
387,-0.08105469,-1.1604614,-0.13995361,-20.984375,-14.4375,-0.828125
388,-0.0063476562,-1.4263306,-0.23687744,-21.375,-17.84375,-0.84375
389,0.1484375,-1.5679321,-0.13189697,-10.578125,-11.390625,4.640625
390,0.29101562,-1.2695923,-0.1807251,-7.0625,0.4375,3.703125
391,0.28149414,-0.7703247,-0.15704346,26.296875,19.40625,13.4375
392,0.31469727,-0.68927,-0.0115356445,-9.03125,-8.140625,5.28125
393,0.107421875,-1.0120239,-0.18829346,-2.3125,-6.609375,4.390625
394,0.08105469,-0.7971802,-0.062072754,1.984375,4.328125,2.109375
395,0.1508789,-0.6470337,-0.004699707,5.890625,6.203125,8.375
396,0.12670898,-0.69732666,-0.012268066,8.078125,0.890625,4.359375
397,0.0703125,-0.7752075,-0.024475098,-1.578125,-4.96875,1.5
398,0.115234375,-0.92852783,0.007751465,-1.734375,-5.8125,1.9375
399,0.19458008,-1.0100708,0.031677246,3.265625,-1.625,6.578125
400,0.051757812,-1.0427856,0.08026123,2.5625,-5.625,4.109375
401,0.020263672,-1.1558228,0.09295654,2.5,1.375,-6.828125
402,0.099365234,-1.302063,0.10809326,5.171875,10.015625,-12.8125
403,0.12573242,-1.3699341,-0.113586426,-3.8125,-0.015625,-16.75
404,0.32202148,-1.435852,-0.19781494,-5.40625,-22.28125,-17.5625
405,0.0703125,-1.5171509,-0.3821411,3.46875,22.5625,-7.703125
406,0.052734375,-0.8008423,-0.5442505,22.484375,23.90625,-8.0625
407,0.2055664,-0.78375244,-0.42388916,-8.125,16.4375,-5.65625
408,0.23022461,-0.95977783,-0.31085205,-1.546875,2.890625,1.9375
409,-0.1508789,-0.97442627,-0.270813,18.015625,10.0,1.515625
410,-0.03149414,-0.7490845,-0.23638916,1.25,8.1875,3.421875
411,0.02319336,-0.5996704,-0.24005127,1.390625,2.3125,4.265625
412,0.007080078,-0.7346802,-0.25274658,-0.421875,-3.640625,5.5
413,0.0026855469,-0.74835205,-0.09893799,5.328125,0.328125,11.796875
414,-0.019042969,-0.769104,-0.16168213,-5.21875,-8.453125,8.765625
415,-0.07788086,-0.89141846,-0.1638794,-1.328125,-8.546875,2.640625
416,-0.009765625,-1.1709595,-0.24542236,-8.984375,-10.984375,0.5
417,0.080566406,-1.3877563,-0.15753174,-8.875,-12.34375,-0.40625
418,-0.12158203,-1.2637329,-0.29644775,-15.5625,-9.765625,-4.375
419,-0.06982422,-1.479065,-0.41461182,5.171875,-4.3125,-8.390625
420,0.65112305,-1.1585083,-0.15826416,-1.3125,11.140625,-2.21875
421,0.33129883,-0.73516846,-0.17510986,8.515625,4.65625,13.390625
422,0.15722656,-0.8152466,-0.12872314,-12.328125,-18.859375,9.078125
423,0.091796875,-0.88238525,-0.07159424,-3.390625,-11.734375,5.53125
424,0.0,-0.7822876,-0.06866455,0.546875,-3.34375,-0.171875
425,0.12182617,-0.6033325,-0.08306885,11.203125,0.90625,0.5625
426,0.11450195,-0.50177,-0.06817627,14.890625,-1.578125,8.15625
427,0.0769043,-0.63653564,-0.10626221,4.578125,-9.234375,11.734375
428,0.14355469,-0.8994751,-0.0791626,4.796875,-10.765625,5.0
429,0.17089844,-1.2676392,-0.15557861,1.765625,-8.03125,0.734375
430,0.23120117,-1.3025513,0.02557373,8.796875,3.265625,-0.796875
431,0.11987305,-1.2473755,-0.23150635,6.78125,5.3125,-10.921875
432,0.29760742,-1.5325317,-0.37554932,-4.015625,-22.1875,-19.203125
433,0.1496582,-1.3816528,-0.3772583,3.109375,31.265625,2.9375
434,0.14672852,-0.61968994,-0.42437744,12.515625,24.359375,-4.46875
435,-0.016113281,-0.631897,-0.34869385,11.484375,17.421875,-6.671875
436,0.05078125,-0.91851807,-0.32940674,8.3125,10.703125,-2.046875
437,0.08227539,-0.9170532,-0.2078247,2.75,5.875,-6.421875
438,0.0026855469,-0.6345825,-0.20098877,2.296875,9.796875,5.875
439,0.01171875,-0.5029907,-0.21685791,3.109375,4.78125,8.5625
440,-0.02734375,-0.6416626,-0.25616455,4.859375,-2.875,2.828125
441,-0.0041503906,-0.8513794,-0.2901001,3.625,-4.390625,5.6875
442,0.04321289,-1.0745239,-0.29595947,-2.078125,-4.984375,3.984375
443,0.025634766,-1.3008423,-0.30914307,-9.921875,-12.34375,0.9375
444,0.07714844,-1.3452759,-0.26055908,-23.03125,-11.71875,1.15625
445,-0.104003906,-1.427063,-0.46905518,-8.0,-16.1875,-0.40625
446,0.2890625,-1.3862915,-0.4981079,-4.125,-2.3125,-6.5625
447,0.68237305,-0.9487915,-0.13067627,-8.140625,12.40625,9.390625
448,0.15722656,-0.64923096,-0.11602783,1.671875,0.59375,18.015625
449,0.05053711,-0.6897583,-0.17462158,-22.421875,-16.359375,-1.078125
450,0.10424805,-0.86968994,-0.07965088,-10.796875,-4.890625,0.875
451,0.13842773,-0.8452759,-0.07330322,-11.984375,-3.546875,-4.59375
452,0.21606445,-0.58477783,-0.070373535,5.203125,-1.234375,7.65625
453,0.09887695,-0.6140747,-0.0803833,7.671875,-2.734375,11.28125
454,0.08203125,-0.81451416,-0.07305908,-1.140625,-7.4375,6.640625
455,0.18066406,-1.0454712,-0.023742676,-4.59375,-5.671875,2.296875
456,0.20288086,-1.0845337,0.04534912,8.078125,-1.875,-0.59375
457,0.15283203,-1.1419067,0.008239746,-3.703125,1.1875,-8.484375
458,0.16015625,-1.2390747,-0.18243408,10.015625,0.390625,-17.21875
459,0.31713867,-1.4031372,-0.28009033,6.234375,-14.703125,-22.015625
460,0.13256836,-1.2788696,-0.2876587,11.09375,24.140625,-0.84375
461,0.100097656,-0.75567627,-0.4319458,7.75,22.515625,-7.046875
462,0.046875,-0.7234497,-0.37261963,6.28125,7.296875,-6.171875
463,0.099365234,-0.954895,-0.30621338,5.6875,-4.234375,-3.0625
464,0.07421875,-0.96417236,-0.19488525,-0.21875,-0.359375,1.6875
465,-0.009033203,-0.73638916,-0.21612549,-3.53125,2.1875,4.828125
466,-0.037597656,-0.5862427,-0.1675415,2.71875,0.5,1.96875
467,-0.020507812,-0.63653564,-0.1975708,9.296875,0.515625,3.046875
468,0.055419922,-0.73565674,-0.20440674,1.421875,-4.609375,3.421875
469,0.0234375,-0.8533325,-0.18487549,8.53125,-9.59375,4.375
470,-0.0024414062,-1.0532837,-0.27423096,-2.609375,-12.296875,0.546875
471,0.04736328,-1.2322388,-0.22808838,1.609375,-10.53125,-0.859375
472,0.03173828,-1.3826294,-0.22735596,-15.71875,-13.3125,-0.78125
473,-0.0637207,-1.3269653,-0.4805298,-11.1875,-14.6875,0.796875
474,0.26391602,-1.4111938,-0.51641846,-2.4375,-16.375,-5.59375
475,0.59814453,-1.2698364,-0.16412354,-1.125,0.515625,6.625
476,0.19946289,-0.78375244,-0.10870361,8.171875,8.8125,21.484375
477,0.20019531,-0.6633911,-0.18804932,-4.140625,-19.75,2.9375
478,0.19677734,-0.9968872,-0.05645752,-14.5625,-20.671875,-0.5
479,0.095947266,-0.9536743,-0.11602783,-2.671875,-7.265625,0.03125
480,0.13305664,-0.5095825,-0.09527588,6.328125,-1.15625,3.671875
481,0.11767578,-0.43829346,-0.10479736,6.25,-5.125,4.125
482,0.072509766,-0.62091064,-0.078186035,7.796875,-7.5625,7.390625
483,0.15332031,-0.8713989,-0.14361572,-6.1875,-13.78125,-2.109375
484,0.23583984,-1.083313,-0.054748535,4.34375,-4.25,-2.234375
485,0.18896484,-1.1587524,-0.022033691,1.984375,5.953125,-6.171875
486,0.18432617,-1.2798462,-0.22076416,6.171875,7.984375,-11.5625
487,0.40625,-1.4199829,-0.28741455,4.734375,-13.75,-15.703125
488,0.15893555,-1.4421997,-0.36724854,2.0,27.5,0.484375
489,0.0769043,-0.6958618,-0.43585205,13.671875,28.046875,-0.78125
490,0.10913086,-0.59454346,-0.3579712,3.484375,22.625,-2.25
491,0.100097656,-0.7896118,-0.33599854,6.40625,10.03125,0.296875
492,-0.004638672,-0.91485596,-0.27764893,5.078125,10.90625,-4.203125
493,0.0031738281,-0.76348877,-0.20123291,-2.53125,12.359375,6.796875
494,0.05908203,-0.6152954,-0.22076416,-8.3125,4.578125,5.828125
495,-0.014892578,-0.710022,-0.20758057,0.359375,-1.9375,0.0625
496,0.020507812,-0.89385986,-0.1873169,-6.828125,-4.15625,2.9375
497,0.043945312,-1.1216431,-0.26055908,-4.390625,-5.6875,4.125
498,0.05029297,-1.2966919,-0.27423096,-14.515625,-4.953125,1.375
499,0.043701172,-1.2393188,-0.23736572,-19.59375,-7.328125,-2.109375
500,-0.15332031,-1.3919067,-0.6585083,1.28125,-19.109375,-9.015625
501,0.642334,-1.475647,-0.4102173,-13.5625,-10.484375,-4.40625
502,0.51904297,-0.79034424,-0.13092041,3.21875,6.984375,18.40625
503,0.11450195,-0.6848755,-0.15240479,9.984375,1.703125,20.0
504,0.15991211,-0.6902466,-0.14483643,0.671875,-8.671875,3.40625
505,0.16333008,-0.95758057,-0.1026001,-9.5,-6.578125,-3.15625
506,0.1550293,-0.7686157,-0.10040283,1.078125,0.71875,-1.328125
507,0.17504883,-0.44586182,-0.070129395,2.515625,1.984375,3.125
508,0.13208008,-0.61724854,-0.13336182,1.671875,0.34375,5.625
509,0.122802734,-0.7893677,-0.09210205,1.140625,-1.0625,4.671875
510,0.17236328,-1.0022583,-0.07623291,-8.6875,-4.078125,0.40625
511,0.21826172,-1.1160278,-0.061828613,-12.234375,-2.71875,-6.46875
512,0.17333984,-1.2000122,0.02508545,-11.875,-0.953125,-12.65625
513,0.18432617,-1.218811,-0.20343018,4.140625,0.15625,-17.5625
514,0.3972168,-1.4463501,-0.15875244,-9.1875,-17.53125,-19.09375
515,0.041503906,-1.40802,-0.19146729,6.390625,16.578125,-6.171875
516,0.10058594,-0.706604,-0.41729736,3.8125,24.34375,-6.71875
517,0.09423828,-0.6921997,-0.34649658,0.203125,15.703125,-4.90625
518,0.052978516,-1.0237427,-0.27960205,13.078125,12.546875,-1.40625
519,0.038085938,-0.93536377,-0.18682861,-0.203125,6.34375,-1.3125
520,0.045654297,-0.6470337,-0.11602783,-1.65625,4.890625,2.0625
521,0.024414062,-0.52593994,-0.20172119,-2.703125,2.84375,3.5
522,-0.0078125,-0.585022,-0.14019775,15.921875,5.0,5.703125
523,0.052001953,-0.75128174,-0.18414307,0.0625,-3.8125,5.46875
524,0.0034179688,-0.973938,-0.16314697,7.34375,-6.53125,4.453125
525,-0.03125,-1.237854,-0.16778564,5.546875,-4.3125,5.828125
526,0.041259766,-1.3518677,-0.21221924,-11.703125,-9.875,2.046875
527,0.052734375,-1.4500122,-0.34039307,-13.9375,-12.6875,0.359375
528,0.24902344,-1.3606567,-0.51690674,-0.078125,-1.6875,-1.15625
529,0.6608887,-1.0698853,-0.1873169,6.078125,1.984375,8.046875
530,0.20166016,-0.7214966,-0.15631104,27.078125,12.21875,23.125
531,0.17163086,-0.59625244,-0.2559204,-6.140625,-15.78125,4.46875
532,0.23657227,-0.817688,-0.19586182,-9.71875,-10.375,-5.5625
533,0.13354492,-0.93927,-0.053771973,1.765625,-8.703125,-2.4375
534,0.11254883,-0.6033325,-0.18902588,-6.078125,-6.5625,-0.515625
535,0.14428711,-0.5100708,-0.1038208,9.4375,-4.0625,4.8125
536,0.064697266,-0.6694946,-0.10479736,4.265625,-8.234375,5.21875
537,0.119384766,-0.98883057,-0.089904785,-3.015625,-13.703125,1.03125
538,0.19482422,-1.1079712,-0.07720947,9.1875,-17.875,-2.625
539,0.25268555,-1.1775513,-0.17266846,7.5625,6.34375,-3.890625
540,0.20410156,-1.2398071,-0.25665283,4.609375,2.875,-10.625
541,0.43408203,-1.4702759,-0.39093018,4.390625,-28.046875,-17.796875
542,0.14038086,-1.298645,-0.41534424,3.4375,23.390625,5.71875
543,0.12670898,-0.5964966,-0.5010376,-1.40625,22.828125,-3.546875
544,-0.0061035156,-0.75445557,-0.42633057,11.921875,20.4375,-5.921875
545,0.111572266,-0.8772583,-0.28912354,0.4375,10.359375,-6.046875
546,0.12426758,-0.80181885,-0.23980713,-6.515625,1.765625,-3.9375
547,0.040283203,-0.5640259,-0.20391846,-0.859375,9.6875,7.4375
548,0.018798828,-0.4360962,-0.21954346,2.984375,2.953125,6.25
549,-0.0021972656,-0.60284424,-0.23297119,5.578125,-3.09375,4.5625
550,0.030273438,-0.87091064,-0.17266846,3.5625,-2.21875,9.859375
551,-0.00024414062,-1.225647,-0.3045044,3.375,-3.90625,5.328125
552,0.013671875,-1.3196411,-0.39923096,-3.953125,0.640625,0.921875
553,0.1381836,-1.3040161,-0.2793579,-12.375,1.859375,0.53125
554,0.041992188,-1.2774048,-0.62506104,-5.875,-16.984375,-1.421875
555,0.2397461,-1.2974243,-0.4751587,-0.53125,-4.03125,-11.109375
556,0.6188965,-1.1748657,-0.30303955,-5.5,10.171875,5.125
557,0.2685547,-0.6272583,-0.15582275,3.046875,11.796875,16.9375
558,0.24291992,-0.5828247,-0.17510986,-7.453125,-17.28125,4.203125
559,0.18286133,-0.944397,-0.1506958,-9.578125,-11.84375,6.015625
560,0.076416016,-0.8460083,-0.21759033,5.5625,-0.46875,-0.0625
561,0.16333008,-0.5430298,-0.11553955,8.78125,2.828125,1.875
562,0.21289062,-0.56256104,-0.13409424,6.09375,-4.9375,10.546875
563,0.12133789,-0.7136841,-0.1404419,6.234375,-12.40625,10.796875
564,0.16088867,-0.9866333,-0.13580322,3.671875,-8.9375,0.203125
565,0.30029297,-1.2227173,-0.12310791,1.234375,-3.78125,-7.640625
566,0.23217773,-1.2144165,-0.1296997,4.671875,4.5625,-10.3125
567,0.25195312,-1.1897583,-0.36114502,0.71875,-4.78125,-15.84375
568,0.37719727,-1.4673462,-0.4060669,7.28125,-10.875,-19.953125
569,0.1730957,-1.1672974,-0.4602661,0.46875,30.578125,1.390625
570,0.057861328,-0.5549927,-0.51641846,-2.359375,16.828125,-12.671875
571,0.059570312,-0.7505493,-0.36553955,3.0,12.421875,-5.21875
572,0.10864258,-0.8982544,-0.35186768,3.046875,7.703125,-3.921875
573,0.061035156,-0.81817627,-0.23468018,2.234375,6.015625,-1.1875
574,0.023925781,-0.5935669,-0.26617432,-0.484375,8.25,7.53125
575,0.022460938,-0.4968872,-0.21270752,3.84375,3.921875,5.96875
576,-0.018554688,-0.63726807,-0.27716064,7.84375,-1.53125,5.5
577,0.015625,-0.8460083,-0.2000122,2.046875,-1.90625,8.578125
578,0.030273438,-1.2024536,-0.40899658,1.859375,-9.375,4.984375
579,0.09692383,-1.3208618,-0.3682251,-9.15625,-6.046875,1.65625
580,0.11621094,-1.2654419,-0.2774048,-18.484375,-7.546875,5.859375
581,-0.05908203,-1.394104,-0.60528564,-4.0625,-13.46875,-2.125
582,0.43847656,-1.333313,-0.6079712,-6.046875,0.734375,-6.5
583,0.6484375,-0.84869385,-0.23101807,-11.875,12.640625,11.5
584,0.14794922,-0.6812134,-0.25836182,-7.453125,0.734375,14.875
585,0.15576172,-0.74298096,-0.19854736,-14.34375,-9.75,-4.484375
586,0.2529297,-1.0032349,-0.09136963,-12.78125,-4.96875,-1.015625
587,0.1550293,-0.7859497,-0.11138916,-13.359375,-2.859375,-6.03125
588,0.15917969,-0.48321533,-0.10357666,2.8125,0.5,1.328125
589,0.09057617,-0.5562134,-0.15118408,6.046875,4.171875,10.234375
590,0.1303711,-0.7432251,-0.10308838,-4.40625,0.984375,5.796875
591,0.2006836,-0.98028564,-0.057678223,-14.171875,-6.359375,-2.015625
592,0.19091797,-1.1199341,0.022888184,-7.875,-6.625,-7.375
593,0.15258789,-1.0696411,0.04046631,-3.28125,7.375,-12.625
594,0.16333008,-1.2217407,-0.32452393,6.046875,-2.375,-17.109375
595,0.47436523,-1.4917603,-0.22125244,-6.609375,-21.875,-22.1875
596,0.055419922,-1.359436,-0.32720947,1.09375,28.703125,3.796875
597,0.087402344,-0.704895,-0.4434204,0.671875,18.140625,-9.921875
598,0.15283203,-0.7371216,-0.2966919,5.6875,15.65625,0.59375
599,0.09008789,-0.87091064,-0.253479,14.265625,11.390625,4.21875
600,-0.0029296875,-0.78082275,-0.16534424,9.0,9.0625,3.625
601,0.0024414062,-0.60528564,-0.17852783,0.375,3.46875,6.546875
602,-0.0053710938,-0.5545044,-0.206604,5.125,3.71875,4.65625
603,0.018310547,-0.6970825,-0.16485596,6.265625,-2.046875,4.4375
604,0.03173828,-0.866272,-0.20343018,6.375,-15.71875,1.4375
605,0.052490234,-1.1340942,-0.24371338,0.671875,-8.359375,1.265625
606,0.02734375,-1.2002563,-0.27764893,-6.078125,-4.46875,1.28125
607,0.0690918,-1.2625122,-0.22076416,-19.203125,-4.890625,-0.0625
608,0.036621094,-1.2622681,-0.33551025,-10.828125,-17.65625,-4.03125
609,0.17700195,-1.3394165,-0.45733643,-8.75,-7.4375,-5.375
610,0.62646484,-1.2505493,-0.24127197,-9.203125,-9.421875,1.734375
611,0.35717773,-0.80474854,-0.108947754,19.046875,9.859375,15.5625
612,0.2397461,-0.7300415,-0.23370361,-8.234375,-14.453125,10.984375
613,0.18237305,-0.83673096,-0.11456299,-8.5625,-16.359375,1.234375
614,0.14624023,-0.9390259,-0.08770752,-4.15625,-11.78125,-1.34375
615,0.19946289,-0.62457275,-0.0960083,-0.890625,-13.359375,3.296875
616,0.17358398,-0.53375244,-0.05303955,11.671875,-7.484375,7.109375
617,0.10083008,-0.68536377,-0.065979004,0.15625,-16.4375,5.953125
618,0.10864258,-0.8377075,-0.020080566,15.8125,-14.28125,-0.390625
619,0.21044922,-1.0613403,-0.13946533,23.5625,-3.71875,0.140625
620,0.21264648,-1.0462036,0.050476074,12.59375,4.421875,-5.21875
621,0.2211914,-1.3079224,-0.29693604,0.25,-6.546875,-15.484375
622,0.36669922,-1.4099731,-0.41656494,6.046875,-19.28125,-18.78125
623,0.2770996,-1.3352661,-0.3670044,1.59375,21.671875,6.09375
624,0.045654297,-0.7041626,-0.44903564,7.65625,23.453125,-6.296875
625,-0.026123047,-0.7913208,-0.394104,8.234375,18.421875,-3.734375
626,0.1496582,-0.89019775,-0.31744385,0.4375,6.6875,-5.78125
627,0.11645508,-0.83306885,-0.19952393,-2.65625,4.125,-2.15625
628,0.031982422,-0.64801025,-0.19366455,-4.4375,10.515625,5.796875
629,0.006591797,-0.5076294,-0.14801025,2.09375,6.8125,5.421875
630,-0.017578125,-0.63116455,-0.21539307,4.640625,0.328125,0.03125
631,0.023925781,-0.8088989,-0.18804932,4.234375,-2.265625,3.203125
632,0.032470703,-1.2122192,-0.3040161,-2.796875,-1.609375,4.578125
633,0.11621094,-1.3948364,-0.33258057,-7.0,-3.78125,2.28125
634,0.05053711,-1.2556763,-0.33795166,-15.546875,-1.328125,1.9375
635,-0.0703125,-1.3980103,-0.64508057,-2.265625,-9.28125,-7.640625
636,0.55444336,-1.3723755,-0.43389893,-6.109375,-0.0625,-8.421875
637,0.61694336,-0.88238525,-0.13555908,7.59375,20.765625,19.71875
638,0.0793457,-0.6519165,-0.2078247,1.625,-7.53125,20.984375
639,0.13696289,-0.6387329,-0.2300415,-6.109375,-12.671875,-3.375
640,0.18457031,-0.82110596,-0.117248535,-6.234375,-6.78125,-1.390625
641,0.12915039,-0.7168579,-0.18878174,0.625,-2.9375,0.734375
642,0.16918945,-0.48931885,-0.11602783,5.6875,-4.703125,2.53125
643,0.13427734,-0.57281494,-0.11236572,4.796875,-6.515625,8.734375
644,0.13330078,-0.82891846,-0.16265869,3.84375,-11.0625,5.71875
645,0.21508789,-1.0930786,-0.11578369,8.3125,-6.5625,-0.9375
646,0.27075195,-1.2542114,-0.20123291,-1.015625,-8.703125,-6.859375
647,0.19946289,-1.2747192,-0.07720947,8.28125,7.84375,-10.25
648,0.2932129,-1.3181763,-0.5276489,-7.640625,-18.140625,-20.34375
649,0.51220703,-1.7085571,-0.47369385,11.390625,-4.625,-21.859375
650,0.13330078,-1.00177,-0.4578247,-0.75,31.3125,11.34375
651,-0.0024414062,-0.41607666,-0.37091064,0.5625,12.9375,-16.515625
652,0.0056152344,-0.74298096,-0.31744385,4.125,10.78125,-7.4375
653,0.041259766,-0.942688,-0.29815674,-3.28125,9.890625,-7.421875
654,0.026855469,-0.6987915,-0.2053833,-6.828125,8.53125,-0.34375
655,0.03466797,-0.47613525,-0.20953369,-5.5,6.984375,4.015625
656,0.020996094,-0.53082275,-0.17999268,5.359375,-0.109375,6.3125
657,-0.029785156,-0.803772,-0.1272583,-2.734375,-0.609375,8.875
658,0.0041503906,-1.223938,-0.3110962,-8.53125,-11.671875,6.265625
659,0.029785156,-1.3655396,-0.33013916,-10.515625,-5.09375,2.328125
660,0.068359375,-1.279602,-0.16192627,-15.140625,3.34375,4.84375
661,-0.0012207031,-1.3396606,-0.51275635,-16.96875,-16.796875,-1.25
662,0.19677734,-1.3213501,-0.4829712,4.5,1.890625,-8.71875
663,0.8256836,-1.0151978,-0.09283447,0.296875,14.015625,8.0625
664,0.22265625,-0.7774048,-0.13214111,0.53125,7.921875,18.453125
665,0.0703125,-0.6992798,-0.20318604,-10.671875,-10.171875,3.046875
666,0.17651367,-0.7715454,-0.08306885,-3.828125,-3.25,4.375
667,0.13574219,-0.7581177,-0.14483643,0.09375,-3.84375,-2.09375
668,0.12988281,-0.48980713,-0.04449463,16.140625,-0.125,3.03125
669,0.17260742,-0.54522705,-0.15386963,7.875,-1.625,10.5625
670,0.17016602,-0.848938,-0.10748291,-0.609375,-6.375,5.453125
671,0.12963867,-1.2219849,-0.0076293945,1.03125,-0.625,2.875
672,0.23144531,-1.2229614,-0.054016113,-12.921875,-13.375,-8.65625
673,0.1875,-1.1465454,-0.058410645,-3.921875,2.34375,-13.96875
674,0.31201172,-1.4802856,-0.3447876,-2.453125,-13.3125,-16.84375
675,0.13745117,-1.505188,-0.2852173,9.359375,2.625,-10.21875
676,0.04663086,-0.9212036,-0.49420166,0.296875,25.765625,-5.640625
677,0.05834961,-0.67852783,-0.39190674,9.390625,26.984375,-7.3125
678,0.1796875,-0.892395,-0.2432251,12.09375,15.71875,-0.5
679,0.03149414,-0.7966919,-0.20831299,9.21875,13.015625,2.8125
680,-0.03564453,-0.5918579,-0.1272583,9.171875,12.609375,4.59375
681,0.03930664,-0.40264893,-0.15338135,-10.578125,4.640625,5.8125
682,0.027832031,-0.51812744,-0.28497314,-4.453125,-5.03125,5.125
683,-0.01928711,-0.71051025,-0.11553955,10.296875,1.46875,9.15625
684,0.044921875,-1.2520142,-0.2888794,1.5625,-18.359375,7.40625
685,0.026611328,-1.456604,-0.23345947,-6.828125,-16.171875,-2.234375
686,-0.013183594,-1.3484497,-0.18292236,-15.09375,-2.8125,2.40625
687,0.0048828125,-1.4329224,-0.54815674,-13.109375,-15.734375,-3.90625
688,0.5620117,-1.4529419,-0.40948486,-9.390625,-12.078125,-3.234375
689,0.5488281,-0.8953247,-0.13458252,17.328125,19.203125,17.1875
690,0.20605469,-0.73443604,-0.24468994,2.59375,-1.234375,18.875
691,0.18017578,-0.6694946,-0.22149658,-3.640625,-11.90625,-2.734375
692,0.18457031,-0.8467407,-0.08843994,4.5,-3.59375,2.4375
693,0.18920898,-0.69073486,-0.06573486,-6.875,-10.09375,-0.75
694,0.1821289,-0.5420532,-0.15386963,6.03125,-8.671875,5.3125
695,0.123046875,-0.43902588,-0.09820557,9.59375,-6.203125,7.796875
696,0.12817383,-0.7007446,-0.061340332,-2.765625,-16.9375,3.359375
697,0.19458008,-1.1045532,-0.047180176,-3.65625,-13.953125,-0.828125
698,0.20483398,-1.1726685,-0.037902832,8.453125,-9.828125,-7.125
699,0.22241211,-1.1636353,-0.034240723,13.125,5.984375,-13.1875
700,0.2553711,-1.3828735,-0.4644165,2.546875,-17.90625,-24.296875
701,0.3466797,-1.5249634,-0.40899658,15.953125,-4.3125,-16.671875
702,0.14355469,-1.0752563,-0.4212036,3.4375,32.625,0.765625
703,0.0043945312,-0.62823486,-0.49908447,4.9375,16.703125,-16.421875
704,0.07519531,-0.9109497,-0.4204712,4.40625,10.390625,-4.8125
705,0.17382812,-0.8460083,-0.2571411,1.46875,6.0,-4.25
706,0.07714844,-0.7630005,-0.22271729,-3.0625,4.765625,0.3125
707,-0.0390625,-0.5745239,-0.19805908,3.96875,11.296875,9.875
708,-0.020507812,-0.6069946,-0.23394775,1.9375,4.1875,4.71875
709,0.06323242,-0.7007446,-0.18096924,-0.359375,-2.234375,6.234375
710,0.016113281,-0.8904419,-0.14361572,1.671875,-3.671875,11.328125
711,-0.011962891,-1.1609497,-0.33502197,2.5,-5.28125,6.046875
712,0.09008789,-1.2991333,-0.30621338,-8.734375,-2.8125,0.578125
713,0.06591797,-1.2695923,-0.3418579,-12.4375,-12.40625,3.4375
714,0.064941406,-1.3394165,-0.47613525,5.015625,-6.015625,-1.1875
715,0.5625,-1.3670044,-0.38311768,-9.15625,-6.625,-1.953125
716,0.34545898,-0.8970337,-0.29278564,6.921875,12.640625,15.359375
717,0.24291992,-0.5515747,-0.20831299,11.75,0.21875,13.03125
718,0.3347168,-0.6392212,-0.09210205,-14.0,-19.265625,3.625
719,0.1472168,-0.94195557,-0.13580322,-3.015625,-18.984375,2.75
720,0.01953125,-0.8076782,-0.15582275,2.953125,-8.34375,-3.546875
721,0.23583984,-0.54107666,-0.10479736,2.90625,-3.984375,4.359375
722,0.1953125,-0.6087036,-0.0491333,8.765625,-8.9375,7.734375
723,0.044189453,-0.83843994,-0.12042236,7.953125,-8.96875,3.328125
724,0.15161133,-0.97320557,-0.13433838,4.796875,-8.359375,-2.578125
725,0.29467773,-1.1089478,-0.055480957,6.234375,1.921875,-6.9375
726,0.19580078,-1.2669067,-0.21002197,7.984375,9.046875,-13.015625
727,0.2998047,-1.3665161,-0.5479126,-5.03125,-23.65625,-19.328125
728,0.41137695,-1.7073364,-0.6489868,2.5625,27.34375,-3.03125
729,0.12475586,-0.7595825,-0.4866333,12.859375,29.015625,5.53125
730,-0.0009765625,-0.61016846,-0.44366455,-2.828125,16.953125,-12.359375
731,0.109375,-0.7918091,-0.35357666,5.125,4.875,0.609375
732,0.107177734,-0.95513916,-0.32281494,3.21875,8.3125,-5.546875
733,0.053955078,-0.737854,-0.22467041,-3.875,15.078125,6.328125
734,0.032714844,-0.48565674,-0.18927002,-5.09375,8.5625,5.703125
735,-0.01928711,-0.58013916,-0.25811768,-7.90625,0.890625,0.671875
736,0.020751953,-0.8543091,-0.24468994,-1.28125,0.546875,5.3125
737,0.032470703,-1.1065063,-0.20440674,-1.84375,-7.0625,4.984375
738,0.038085938,-1.2996216,-0.4204712,-6.265625,-3.15625,4.4375
739,0.17700195,-1.2212524,-0.22735596,-16.625,-8.265625,2.5
740,-0.056884766,-1.2913208,-0.61138916,-12.6875,-23.078125,-0.609375
741,0.31860352,-1.2749634,-0.5588989,-8.234375,-5.765625,-5.203125
742,0.6821289,-1.0393677,-0.09942627,-2.828125,7.640625,9.859375
743,0.2163086,-0.72247314,-0.21124268,4.921875,11.578125,18.796875
744,0.22314453,-0.5811157,-0.20318604,-9.71875,-8.40625,4.046875
745,0.1928711,-0.8538208,-0.06085205,-11.25,-11.078125,2.28125
746,0.11694336,-0.8731079,-0.13043213,-9.296875,-7.375,-5.59375
747,0.20263672,-0.5281372,-0.12554932,-1.046875,-6.234375,-0.78125
748,0.17822266,-0.583313,-0.10284424,9.0,-3.171875,6.609375
749,0.14868164,-0.80059814,-0.101379395,5.0,-6.515625,6.484375
750,0.19555664,-0.96295166,-0.09991455,-10.203125,-11.390625,-1.09375
751,0.22290039,-1.0923462,-0.030822754,2.921875,-3.734375,-1.515625
752,0.16821289,-1.0459595,0.0004272461,2.09375,-7.453125,-16.125
753,0.26782227,-1.2368774,-0.2930298,-5.46875,-5.53125,-16.953125
754,0.46606445,-1.5737915,-0.23101807,1.40625,-20.125,-14.875
755,0.10913086,-1.2507935,-0.41290283,3.828125,24.3125,-3.125
756,0.1262207,-0.6309204,-0.42974854,11.53125,27.375,-6.140625
757,0.18041992,-0.86968994,-0.35235596,7.234375,17.890625,0.46875
758,0.080078125,-0.9624634,-0.26739502,6.984375,7.515625,-0.953125
759,0.0068359375,-0.75128174,-0.18780518,2.96875,7.265625,-1.5
