sample_no,accel_x,accel_y,accel_z,gyro_x,gyro_y,gyro_z
0,0.73168945,0.047546387,0.6708374,-1.4375,0.609375,0.1875
1,0.7402344,0.062927246,0.6976929,0.546875,-0.171875,-0.203125
2,0.7338867,0.047790527,0.69085693,0.859375,-0.265625,-0.1875
3,0.72680664,0.04827881,0.6835327,-1.1875,0.046875,0.390625
4,0.7416992,0.062927246,0.6893921,-0.59375,0.203125,0.15625
5,0.73828125,0.057556152,0.68377686,0.390625,-0.015625,-0.203125
6,0.736084,0.062927246,0.68426514,-0.203125,0.40625,0.28125
7,0.7351074,0.074401855,0.6864624,0.40625,-0.15625,0.4375
8,0.72753906,0.06561279,0.68304443,-0.125,-0.328125,0.15625
9,0.73168945,0.057800293,0.68499756,-0.046875,-0.125,-0.046875
10,0.73950195,0.058044434,0.69158936,0.75,-0.28125,-0.359375
11,0.7277832,0.05682373,0.68573,-0.125,-0.109375,-0.265625
12,0.7348633,0.066833496,0.68084717,0.0,0.359375,-0.234375
13,0.72924805,0.07366943,0.6852417,0.234375,0.140625,0.0625
14,0.73535156,0.06976318,0.68182373,0.734375,0.140625,-0.015625
15,0.7336426,0.070739746,0.68670654,1.0625,0.15625,-0.375
16,0.72680664,0.06854248,0.68621826,0.40625,0.515625,-0.28125
17,0.73535156,0.07366943,0.6954956,2.296875,-0.03125,-0.671875
18,0.7324219,0.053649902,0.6930542,1.921875,-0.578125,-0.828125
19,0.7297363,0.06072998,0.68182373,0.421875,0.0625,-0.640625
20,0.73657227,0.06121826,0.6913452,1.78125,0.140625,-0.8125
21,0.73217773,0.059753418,0.68670654,2.15625,-0.25,-0.828125
22,0.7404785,0.066833496,0.68499756,0.984375,0.078125,-0.09375
23,0.7336426,0.06707764,0.6898804,1.53125,0.046875,0.0625
24,0.7355957,0.057800293,0.6810913,1.484375,0.359375,-0.203125
25,0.7336426,0.062927246,0.6884155,2.234375,-0.296875,-0.484375
26,0.7385254,0.04559326,0.6869507,2.015625,-0.3125,-0.765625
27,0.73413086,0.051940918,0.69085693,1.0625,0.359375,-0.40625
28,0.73583984,0.054138184,0.6871948,1.90625,0.4375,-0.265625
29,0.7380371,0.06585693,0.69207764,2.328125,0.28125,0.0
30,0.73291016,0.046813965,0.68304443,1.0625,-0.28125,0.0
31,0.7402344,0.05316162,0.6793823,1.140625,-0.03125,-0.71875
32,0.7368164,0.053894043,0.6893921,1.078125,0.203125,-0.671875
33,0.7331543,0.059509277,0.69866943,3.03125,-0.234375,-0.953125
34,0.72753906,0.04168701,0.6871948,0.546875,-1.046875,-0.53125
35,0.7290039,0.051452637,0.67889404,0.375,-0.296875,-0.375
36,0.734375,0.053649902,0.6976929,2.390625,0.4375,-0.5625
37,0.7294922,0.055358887,0.68548584,1.8125,-0.21875,0.0
38,0.7277832,0.05267334,0.6923218,1.671875,0.078125,0.203125
39,0.7338867,0.04071045,0.69281006,1.625,0.25,0.09375
40,0.7314453,0.040222168,0.69525146,0.8125,0.03125,-0.109375
41,0.736084,0.04095459,0.696228,1.109375,0.03125,-0.203125
42,0.73706055,0.043884277,0.68548584,0.796875,0.421875,-0.296875
43,0.7385254,0.047790527,0.6869507,1.0625,0.640625,-0.3125
44,0.734375,0.047546387,0.6881714,1.0625,-0.0625,-0.140625
45,0.7416992,0.04949951,0.6950073,1.625,-0.21875,-0.265625
46,0.73291016,0.040222168,0.680603,1.15625,-0.234375,-0.203125
47,0.7390137,0.034851074,0.69281006,-0.140625,-0.15625,-0.234375
48,0.73583984,0.047302246,0.68865967,-0.8125,0.53125,0.375
49,0.73828125,0.050231934,0.71087646,1.921875,0.0625,-0.515625
50,0.7314453,0.035339355,0.68865967,0.453125,1.1875,0.296875
51,0.7272949,0.051696777,0.67596436,-0.796875,0.53125,0.453125
52,0.73291016,0.057556152,0.6884155,0.828125,-0.140625,-0.046875
53,0.7355957,0.046813965,0.69207764,0.28125,-0.8125,-0.078125
54,0.73339844,0.05657959,0.69281006,-0.40625,-0.140625,0.359375
55,0.72924805,0.05633545,0.6913452,-0.046875,0.109375,0.65625
56,0.7294922,0.04949951,0.68670654,0.15625,-0.28125,0.609375
57,0.7314453,0.051940918,0.6930542,0.203125,-0.4375,0.046875
58,0.7324219,0.04852295,0.6893921,0.125,-0.03125,0.171875
59,0.72753906,0.050964355,0.6935425,0.203125,0.28125,0.296875
60,0.7224121,0.054626465,0.6937866,0.203125,0.234375,0.21875
61,0.72680664,0.06781006,0.6901245,-0.140625,0.203125,0.3125
62,0.72631836,0.06439209,0.6832886,-0.015625,-0.078125,0.171875
63,0.73828125,0.06317139,0.6925659,0.46875,0.171875,0.046875
64,0.7253418,0.057800293,0.68963623,-0.21875,0.375,0.09375
65,0.7319336,0.066833496,0.7020874,0.40625,0.3125,-0.34375
66,0.7375488,0.0602417,0.6959839,-0.34375,-0.3125,0.015625
67,0.7270508,0.066589355,0.6889038,-1.15625,-0.21875,-0.1875
68,0.734375,0.059020996,0.6898804,0.015625,0.828125,-0.28125
69,0.72924805,0.070495605,0.6744995,0.75,0.890625,-0.359375
70,0.7272949,0.07562256,0.68255615,-0.03125,-0.171875,0.078125
71,0.73657227,0.08392334,0.6832886,0.53125,-0.125,-0.359375
72,0.73095703,0.070739746,0.6884155,1.234375,0.21875,-0.5625
73,0.7348633,0.06707764,0.6911011,1.96875,-0.171875,-0.671875
74,0.7314453,0.05316162,0.69281006,1.796875,0.078125,-1.0
75,0.7290039,0.06317139,0.6864624,1.015625,0.296875,-0.671875
76,0.73095703,0.06463623,0.6923218,1.125,-0.078125,-0.609375
77,0.7402344,0.07659912,0.6976929,1.703125,0.21875,-0.625
78,0.72924805,0.0602417,0.6859741,1.15625,-0.015625,-0.359375
79,0.7351074,0.06341553,0.68084717,1.390625,0.34375,-0.609375
80,0.7258301,0.066833496,0.68304443,0.984375,0.59375,-0.40625
81,0.7294922,0.06390381,0.696228,2.984375,-0.265625,-0.90625
82,0.72998047,0.04437256,0.6859741,1.828125,-0.609375,-0.8125
83,0.7338867,0.051452637,0.68865967,0.5625,0.1875,-0.234375
84,0.73657227,0.05657959,0.6942749,2.203125,0.34375,-0.40625
85,0.7324219,0.058532715,0.6852417,1.984375,-0.125,-0.53125
86,0.74072266,0.059753418,0.68182373,1.296875,-0.140625,-0.140625
87,0.7314453,0.05706787,0.696228,2.21875,-0.21875,-0.5
88,0.73095703,0.046325684,0.69818115,1.484375,-0.328125,-0.265625
89,0.7312012,0.042907715,0.6950073,1.640625,-0.078125,-0.390625
90,0.7272949,0.04852295,0.68792725,1.734375,-0.328125,-0.46875
91,0.73168945,0.050476074,0.6876831,1.140625,0.15625,-0.4375
92,0.73217773,0.051452637,0.68670654,1.578125,-0.1875,-0.1875
93,0.7368164,0.05267334,0.69940186,2.328125,-0.015625,-0.40625
94,0.72631836,0.04168701,0.69329834,1.25,0.0625,-0.25
95,0.73291016,0.04559326,0.68792725,1.03125,0.015625,-0.515625
96,0.7258301,0.04510498,0.68743896,0.921875,0.1875,-0.078125
97,0.732666,0.051208496,0.7033081,2.78125,-0.09375,-0.4375
98,0.72143555,0.032165527,0.70062256,1.515625,-0.484375,-0.25
99,0.73535156,0.035827637,0.6884155,-0.265625,-0.078125,0.078125
100,0.73413086,0.045837402,0.7045288,1.5625,0.359375,-0.25
101,0.732666,0.04486084,0.69451904,0.578125,-0.0625,-0.09375
102,0.7368164,0.050720215,0.69744873,-0.109375,-0.296875,0.09375
103,0.73217773,0.043884277,0.7040405,0.359375,0.296875,0.34375
104,0.7312012,0.042175293,0.69207764,-0.359375,0.453125,0.359375
105,0.72998047,0.046325684,0.69329834,0.359375,0.171875,-0.046875
106,0.7260742,0.04168701,0.69940186,0.015625,-0.03125,-0.1875
107,0.72924805,0.046813965,0.6959839,-0.609375,-0.09375,-0.046875
108,0.7294922,0.04949951,0.6871948,-0.484375,0.328125,0.140625
109,0.73339844,0.05706787,0.7025757,0.328125,0.109375,0.234375
110,0.7297363,0.050964355,0.68670654,-0.375,0.0625,0.15625
111,0.73339844,0.04925537,0.6876831,-0.4375,0.1875,-0.125
112,0.72998047,0.058532715,0.6972046,-0.4375,0.625,0.140625
113,0.7260742,0.058532715,0.7057495,0.96875,0.234375,0.0
114,0.7211914,0.05218506,0.69207764,-0.625,-0.078125,0.171875
115,0.7253418,0.055114746,0.6847534,-1.1875,0.25,0.265625
116,0.73535156,0.07318115,0.69573975,0.203125,0.453125,-0.234375
117,0.7319336,0.06829834,0.6881714,0.28125,-0.15625,-0.15625
118,0.7314453,0.06781006,0.68621826,-0.328125,0.1875,-0.015625
119,0.7331543,0.06854248,0.697937,0.5625,-0.21875,-0.03125
120,0.7290039,0.055114746,0.699646,0.25,-0.328125,-0.265625
121,0.7277832,0.05657959,0.6984253,0.1875,0.03125,-0.15625
122,0.7355957,0.0602417,0.69573975,0.046875,0.125,-0.015625
123,0.7351074,0.06048584,0.69329834,-0.03125,0.765625,-0.0625
124,0.7258301,0.06976318,0.6864624,0.6875,0.578125,-0.046875
125,0.72875977,0.070495605,0.6923218,1.25,0.046875,-0.140625
126,0.72875977,0.07318115,0.6901245,0.40625,0.578125,-0.203125
127,0.72265625,0.0692749,0.6749878,0.90625,0.203125,-0.40625
128,0.7373047,0.0680542,0.69403076,1.84375,0.03125,-1.0
129,0.7294922,0.059265137,0.699646,2.6875,-0.15625,-0.84375
130,0.7290039,0.051940918,0.68792725,0.5625,-0.0625,-0.578125
131,0.7336426,0.057800293,0.6911011,1.15625,0.0,-0.578125
132,0.73413086,0.06488037,0.6959839,2.546875,0.15625,-0.953125
133,0.73217773,0.0602417,0.69036865,1.640625,-0.28125,-0.515625
134,0.7294922,0.058532715,0.68743896,1.078125,-0.203125,-0.3125
135,0.7285156,0.051696777,0.6935425,1.90625,0.265625,-0.21875
136,0.7290039,0.057800293,0.69281006,1.9375,0.109375,-0.25
137,0.7229004,0.049987793,0.6976929,1.9375,-0.28125,-0.453125
138,0.73168945,0.053894043,0.6935425,1.09375,0.0,-0.59375
139,0.7319336,0.050231934,0.6954956,1.671875,0.203125,-0.453125
140,0.7336426,0.049743652,0.6947632,1.921875,0.078125,-0.3125
141,0.73583984,0.051940918,0.69403076,2.0,0.203125,-0.375
142,0.73217773,0.054870605,0.69940186,1.46875,0.140625,-0.359375
143,0.7246094,0.04925537,0.68011475,0.40625,-0.015625,-0.25
144,0.7348633,0.054382324,0.69744873,1.828125,-0.40625,-0.421875
145,0.7270508,0.038757324,0.70843506,2.890625,-0.859375,-0.5625
146,0.71606445,0.04119873,0.6911011,0.390625,-0.421875,-0.203125
147,0.72802734,0.047790527,0.69451904,0.84375,0.171875,-0.203125
148,0.7351074,0.04437256,0.69451904,1.875,0.0625,-0.34375
149,0.734375,0.051696777,0.6935425,1.71875,-0.234375,-0.15625
150,0.72631836,0.051208496,0.70355225,2.109375,0.171875,-0.078125
151,0.7331543,0.04071045,0.6947632,1.265625,0.375,-0.078125
152,0.7236328,0.043151855,0.70062256,1.0625,-0.078125,-0.296875
153,0.7258301,0.03729248,0.6935425,1.40625,-0.203125,-0.359375
154,0.72753906,0.035583496,0.69207764,0.53125,-0.09375,-0.453125
155,0.7265625,0.04046631,0.69989014,1.15625,-0.125,-0.296875
156,0.7338867,0.04144287,0.6972046,0.90625,0.125,-0.21875
157,0.7319336,0.04486084,0.697937,1.6875,0.265625,-0.125
158,0.7324219,0.043151855,0.70721436,1.015625,-0.03125,-0.46875
159,0.72802734,0.039245605,0.68670654,-0.671875,0.21875,0.25
160,0.73706055,0.047790527,0.70770264,0.34375,0.296875,-0.265625
161,0.7241211,0.038024902,0.7062378,1.4375,-0.09375,-0.0625
162,0.7331543,0.04071045,0.68573,-1.125,0.15625,0.34375
163,0.73217773,0.058532715,0.6942749,-0.546875,0.640625,0.03125
164,0.7246094,0.044128418,0.7001343,1.015625,0.328125,-0.15625
165,0.7338867,0.04901123,0.6935425,-0.234375,-0.265625,0.40625
166,0.7307129,0.050476074,0.69647217,-0.109375,0.1875,0.359375
167,0.73291016,0.04486084,0.6935425,-0.25,0.140625,0.265625
168,0.7307129,0.04876709,0.6976929,-0.34375,-0.140625,0.015625
169,0.72753906,0.046325684,0.70111084,0.390625,-0.21875,-0.078125
170,0.7312012,0.051452637,0.6942749,-0.265625,0.125,-0.015625
171,0.73046875,0.050231934,0.6972046,0.03125,0.09375,0.125
172,0.72094727,0.057800293,0.6954956,-0.203125,0.0625,0.28125
173,0.7324219,0.055603027,0.7015991,0.65625,0.25,0.125
174,0.7380371,0.06756592,0.697937,0.328125,0.28125,-0.203125
175,0.7182617,0.051696777,0.6820679,-0.9375,0.265625,0.109375
176,0.73217773,0.06390381,0.6959839,0.265625,0.15625,-0.171875
177,0.7331543,0.049987793,0.69989014,1.203125,0.0625,-0.265625
178,0.71972656,0.054138184,0.68792725,-0.640625,-0.03125,0.0
179,0.7246094,0.059753418,0.6911011,-0.265625,0.015625,-0.171875
180,0.7294922,0.06463623,0.69573975,0.234375,0.25,-0.421875
181,0.7282715,0.06341553,0.6925659,-0.3125,0.1875,0.1875
182,0.7265625,0.07537842,0.6935425,0.484375,-0.078125,0.375
183,0.7307129,0.066101074,0.6901245,-0.25,0.125,0.28125
184,0.72802734,0.066589355,0.6954956,0.265625,0.1875,-0.03125
185,0.73413086,0.06341553,0.68499756,1.1875,0.078125,-0.640625
186,0.73217773,0.06707764,0.6901245,0.65625,0.3125,-0.4375
187,0.72753906,0.06097412,0.701355,2.09375,-0.03125,-0.546875
188,0.72875977,0.059020996,0.699646,1.8125,-0.21875,-0.3125
189,0.72143555,0.04901123,0.68426514,0.765625,0.15625,-0.421875
190,0.72631836,0.06341553,0.7057495,1.4375,0.25,-0.75
191,0.732666,0.06317139,0.6930542,1.03125,0.046875,-0.421875
192,0.7285156,0.066345215,0.70306396,2.390625,-0.25,-0.9375
193,0.72387695,0.047790527,0.6925659,1.71875,-0.203125,-0.6875
194,0.72558594,0.04852295,0.68621826,0.53125,-0.046875,-0.484375
195,0.7351074,0.06854248,0.69818115,1.703125,0.203125,-0.703125
196,0.7319336,0.059265137,0.6911011,2.078125,-0.078125,-0.546875
197,0.72680664,0.057800293,0.6954956,1.171875,-0.359375,-0.21875
198,0.72998047,0.05633545,0.7008667,1.984375,-0.1875,-0.046875
199,0.7246094,0.051940918,0.6954956,1.796875,-0.203125,-0.109375
200,0.72631836,0.04559326,0.69573975,1.890625,-0.25,-0.171875
201,0.7246094,0.0446167,0.7001343,2.046875,-0.21875,-0.5
202,0.7175293,0.0446167,0.7020874,1.953125,-0.140625,-0.21875
203,0.72802734,0.04510498,0.7003784,1.59375,-0.203125,-0.203125
204,0.7312012,0.047546387,0.70721436,1.75,0.421875,-0.3125
205,0.72631836,0.04144287,0.6893921,0.765625,0.484375,-0.125
206,0.72631836,0.047546387,0.6871948,0.75,0.1875,-0.125
207,0.7277832,0.055114746,0.69281006,0.65625,0.390625,-0.078125
208,0.7294922,0.050964355,0.7103882,2.28125,0.0625,-0.40625
209,0.72143555,0.034118652,0.701355,1.265625,-0.46875,-0.453125
210,0.72436523,0.05291748,0.68792725,0.1875,-0.015625,-0.15625
211,0.73168945,0.045837402,0.70062256,1.34375,0.40625,-0.5625
212,0.7175293,0.047058105,0.6959839,1.421875,0.109375,-0.3125
213,0.7258301,0.048034668,0.699646,0.875,-0.21875,-0.25
214,0.7229004,0.03387451,0.7074585,0.90625,-0.140625,-0.015625
215,0.72216797,0.03704834,0.70526123,0.03125,-0.078125,0.046875
216,0.72924805,0.04144287,0.7111206,0.40625,0.34375,0.421875
217,0.7285156,0.04486084,0.699646,-0.484375,0.359375,0.125
218,0.73168945,0.051452637,0.6901245,-0.390625,0.671875,0.234375
219,0.72387695,0.050720215,0.69940186,0.15625,0.125,0.15625
220,0.72631836,0.059509277,0.69818115,0.421875,-0.0625,0.21875
221,0.7229004,0.051452637,0.68573,-0.78125,0.328125,0.171875
222,0.7302246,0.049987793,0.69085693,0.046875,-0.203125,-0.1875
223,0.7265625,0.054382324,0.7001343,-0.1875,-0.03125,0.0
224,0.73046875,0.048034668,0.71698,1.15625,-0.21875,-0.125
225,0.7167969,0.041931152,0.70526123,-0.484375,-0.265625,0.0625
226,0.7236328,0.049743652,0.69744873,-0.765625,0.0,0.0
227,0.7363281,0.05706787,0.7055054,0.578125,0.359375,-0.375
228,0.7229004,0.051452637,0.6976929,0.390625,0.015625,0.03125
229,0.7312012,0.06878662,0.69281006,-0.265625,0.21875,0.21875
230,0.72631836,0.06072998,0.6942749,0.40625,0.03125,0.3125
231,0.72558594,0.06390381,0.6925659,0.09375,-0.125,-0.078125
232,0.7229004,0.066345215,0.7037964,0.53125,-0.046875,0.109375
233,0.73168945,0.061706543,0.69281006,0.453125,0.453125,0.09375
234,0.72509766,0.058044434,0.6950073,0.4375,0.34375,-0.078125
235,0.72680664,0.062438965,0.68914795,0.203125,0.421875,-0.234375
236,0.7258301,0.070251465,0.697937,1.15625,0.296875,-0.28125
237,0.7236328,0.061706543,0.6959839,0.921875,0.203125,-0.421875
238,0.7180176,0.06048584,0.68865967,0.84375,-0.046875,-0.546875
239,0.72314453,0.06072998,0.6989136,1.421875,0.046875,-0.6875
240,0.7246094,0.05291748,0.7028198,2.109375,-0.390625,-0.75
241,0.7282715,0.04949951,0.6923218,0.453125,0.21875,-0.65625
242,0.7282715,0.06097412,0.6954956,1.328125,0.046875,-0.625
243,0.73339844,0.059509277,0.70111084,2.734375,0.046875,-0.75
244,0.72875977,0.055114746,0.70233154,1.6875,-0.109375,-0.328125
245,0.7211914,0.06561279,0.699646,0.9375,0.203125,-0.171875
246,0.72143555,0.05999756,0.6991577,1.71875,0.078125,-0.3125
247,0.72314453,0.05267334,0.70062256,1.65625,-0.078125,-0.421875
248,0.7294922,0.054138184,0.6959839,2.46875,-0.234375,-0.46875
249,0.7277832,0.042175293,0.7020874,2.0,0.140625,-0.65625
250,0.72753906,0.046569824,0.7020874,1.765625,-0.015625,-0.484375
251,0.736084,0.051940918,0.711853,1.734375,0.09375,-0.328125
252,0.72094727,0.04437256,0.6889038,1.0,0.203125,-0.046875
253,0.7331543,0.050964355,0.6911011,1.234375,-0.0625,-0.4375
254,0.7207031,0.042907715,0.6884155,0.953125,-0.125,-0.15625
255,0.7294922,0.055847168,0.7067261,2.734375,-0.265625,-0.546875
256,0.7192383,0.034851074,0.7098999,2.0,-0.765625,-0.390625
257,0.7211914,0.041931152,0.6967163,0.453125,-0.109375,-0.234375
258,0.7270508,0.050231934,0.7033081,1.515625,0.03125,-0.28125
259,0.7253418,0.04901123,0.70306396,1.421875,-0.03125,-0.484375
260,0.72143555,0.050964355,0.697937,1.578125,-0.125,0.078125
261,0.7246094,0.04925537,0.7081909,2.21875,0.25,0.078125
262,0.7167969,0.035583496,0.70184326,1.375,-0.0625,-0.109375
263,0.7324219,0.03753662,0.70599365,1.3125,-0.015625,-0.28125
264,0.72265625,0.03704834,0.7025757,1.3125,-0.15625,-0.546875
265,0.7265625,0.039978027,0.7050171,0.8125,-0.09375,-0.359375
266,0.7277832,0.034362793,0.6976929,1.09375,0.0625,-0.296875
267,0.72387695,0.043395996,0.70892334,1.890625,0.125,-0.328125
268,0.72021484,0.035095215,0.70477295,-0.53125,-0.03125,0.0625
269,0.71850586,0.039733887,0.6881714,-0.875,0.515625,0.28125
270,0.7314453,0.054870605,0.7003784,0.140625,0.3125,0.125
271,0.72436523,0.04534912,0.7123413,1.625,-0.390625,-0.09375
272,0.7248535,0.034362793,0.69525146,-0.921875,0.296875,0.140625
273,0.7175293,0.043640137,0.69207764,-1.15625,0.28125,0.125
274,0.7302246,0.0446167,0.69989014,0.71875,0.109375,-0.359375
275,0.72631836,0.044128418,0.69818115,0.109375,-0.296875,-0.015625
276,0.72631836,0.04949951,0.70306396,-0.171875,-0.046875,0.125
277,0.7272949,0.046081543,0.6991577,-0.015625,-0.09375,0.15625
278,0.72265625,0.049987793,0.69866943,-0.21875,-0.140625,0.109375
279,0.72314453,0.04901123,0.7062378,0.1875,-0.0625,-0.015625
280,0.71728516,0.047302246,0.701355,-0.171875,0.265625,-0.09375
281,0.7192383,0.061462402,0.6989136,-0.203125,0.375,-0.234375
282,0.71875,0.059509277,0.7015991,-0.1875,0.15625,0.171875
283,0.72265625,0.06341553,0.697937,0.203125,0.1875,0.03125
284,0.720459,0.06512451,0.70648193,-0.265625,0.1875,0.078125
285,0.7182617,0.05657959,0.68670654,-0.96875,0.28125,0.03125
286,0.72924805,0.059509277,0.70721436,0.1875,-0.015625,-0.28125
287,0.72143555,0.054382324,0.70184326,0.671875,-0.109375,-0.328125
288,0.71972656,0.050231934,0.6954956,-0.890625,0.1875,-0.03125
289,0.7233887,0.06463623,0.699646,-0.265625,0.25,-0.203125
290,0.7258301,0.0680542,0.7001343,0.734375,0.015625,-0.265625
291,0.7236328,0.06463623,0.699646,-0.453125,0.015625,0.140625
292,0.72558594,0.0692749,0.69696045,0.53125,0.328125,0.359375
293,0.71850586,0.05609131,0.699646,1.4375,0.078125,-0.453125
294,0.7199707,0.06048584,0.70062256,1.53125,-0.109375,-0.53125
295,0.7224121,0.061950684,0.7055054,1.453125,-0.25,-0.84375
296,0.71850586,0.058532715,0.7008667,1.203125,0.046875,-0.546875
297,0.72998047,0.06414795,0.70111084,1.15625,0.109375,-0.59375
298,0.72631836,0.06951904,0.7069702,1.609375,0.28125,-0.390625
299,0.7236328,0.055847168,0.69158936,1.09375,0.171875,-0.265625
300,0.7307129,0.0680542,0.699646,1.03125,-0.03125,-0.5
301,0.7236328,0.059265137,0.69158936,1.1875,0.234375,-0.34375
302,0.72802734,0.06463623,0.7086792,2.953125,0.0,-0.890625
303,0.7158203,0.04559326,0.7055054,1.96875,-0.65625,-0.78125
304,0.72094727,0.047302246,0.69696045,0.78125,-0.21875,-0.546875
305,0.7260742,0.047302246,0.7069702,1.953125,-0.078125,-0.515625
306,0.72680664,0.045837402,0.701355,1.828125,0.03125,-0.53125
307,0.7219238,0.053894043,0.70477295,1.59375,-0.109375,0.015625
308,0.72509766,0.04852295,0.7081909,2.0625,0.109375,-0.171875
309,0.720459,0.04876709,0.7015991,1.46875,-0.046875,-0.25
310,0.7224121,0.051452637,0.7020874,1.59375,-0.125,-0.46875
311,0.7233887,0.046081543,0.7025757,2.015625,-0.171875,-0.421875
312,0.7241211,0.041931152,0.7028198,1.484375,0.09375,-0.359375
313,0.720459,0.046569824,0.7001343,1.640625,0.015625,-0.25
314,0.7236328,0.04852295,0.7103882,2.296875,0.15625,-0.375
315,0.72216797,0.039489746,0.70184326,0.578125,0.09375,-0.1875
316,0.7241211,0.048034668,0.6935425,0.6875,0.3125,-0.28125
317,0.72680664,0.055847168,0.70233154,0.984375,0.015625,-0.203125
318,0.7272949,0.046325684,0.713562,2.984375,-0.140625,-0.578125
319,0.71533203,0.026550293,0.70770264,1.21875,-0.546875,-0.359375
320,0.72509766,0.039001465,0.699646,-0.15625,0.265625,-0.09375
321,0.7282715,0.039733887,0.7050171,1.390625,1.03125,-0.125
322,0.7253418,0.051940918,0.70062256,1.390625,-0.1875,-0.171875
323,0.7194824,0.0446167,0.7111206,0.421875,-0.453125,0.015625
324,0.71972656,0.046325684,0.7067261,-0.015625,0.09375,0.3125
325,0.71655273,0.04437256,0.7020874,-0.5625,0.828125,0.359375
326,0.71728516,0.051452637,0.7057495,0.40625,0.453125,0.328125
327,0.7233887,0.046813965,0.7062378,0.1875,-0.140625,0.046875
328,0.7265625,0.043640137,0.7028198,-0.796875,0.671875,0.109375
329,0.7216797,0.04876709,0.69940186,-0.515625,1.296875,0.3125
330,0.7241211,0.058532715,0.7015991,0.71875,0.28125,0.421875
331,0.71875,0.046569824,0.68914795,-0.328125,-0.078125,0.046875
332,0.7302246,0.054626465,0.69647217,-0.359375,0.265625,-0.078125
333,0.7248535,0.055603027,0.6976929,-0.421875,0.359375,0.109375
334,0.72924805,0.06488037,0.7106323,1.3125,0.34375,-0.015625
335,0.72680664,0.042419434,0.70233154,-0.3125,0.09375,0.09375
336,0.7163086,0.050964355,0.69085693,-1.03125,0.125,0.0625
337,0.7272949,0.06561279,0.7055054,0.5,0.390625,-0.34375
338,0.72680664,0.05999756,0.699646,0.3125,0.015625,-0.171875
339,0.7272949,0.06976318,0.69525146,-0.0625,0.453125,0.125
340,0.7302246,0.059020996,0.6989136,0.484375,0.0,0.015625
341,0.72558594,0.058044434,0.69573975,-0.015625,-0.03125,-0.078125
342,0.71972656,0.062683105,0.7008667,0.125,0.109375,0.015625
343,0.7224121,0.05633545,0.6976929,0.03125,0.046875,-0.296875
344,0.7302246,0.06463623,0.7008667,-0.1875,0.453125,-0.09375
345,0.7229004,0.061706543,0.6989136,0.40625,0.3125,-0.078125
346,0.7246094,0.07147217,0.6989136,1.03125,-0.03125,-0.296875
347,0.71875,0.06390381,0.68743896,0.265625,0.265625,-0.21875
348,0.72265625,0.059509277,0.6869507,1.078125,0.0,-0.53125
349,0.72802734,0.0680542,0.69818115,0.90625,0.015625,-0.609375
350,0.7229004,0.06341553,0.7098999,2.4375,-0.21875,-0.796875
351,0.7219238,0.05316162,0.6947632,0.828125,-0.265625,-0.734375
352,0.72387695,0.062438965,0.69696045,0.828125,-0.046875,-0.421875
353,0.732666,0.062194824,0.70770264,2.265625,0.0,-0.828125
354,0.7253418,0.058044434,0.697937,1.734375,-0.296875,-0.40625
355,0.72387695,0.066101074,0.6947632,0.984375,0.046875,-0.1875
356,0.71728516,0.06121826,0.70721436,2.0625,-0.09375,-0.171875
357,0.72314453,0.053894043,0.69940186,1.5625,-0.171875,-0.53125
358,0.72924805,0.055847168,0.7069702,1.921875,-0.109375,-0.453125
359,0.7253418,0.046081543,0.6991577,1.703125,0.078125,-0.5625
360,0.72631836,0.047302246,0.70428467,1.578125,0.109375,-0.34375
361,0.7294922,0.05316162,0.697937,1.546875,-0.046875,-0.28125
362,0.73095703,0.059265137,0.7057495,2.046875,0.3125,-0.21875
363,0.72314453,0.04534912,0.6942749,1.125,0.375,-0.25
364,0.72436523,0.046325684,0.68914795,0.796875,0.140625,-0.390625
365,0.7260742,0.058044434,0.7020874,1.15625,0.0,-0.484375
366,0.72509766,0.05682373,0.71014404,3.0,-0.390625,-0.625
367,0.7167969,0.03778076,0.699646,1.25,-0.4375,-0.640625
368,0.7233887,0.042907715,0.6967163,0.75,0.03125,-0.15625
369,0.720459,0.051208496,0.70770264,1.78125,0.375,-0.390625
370,0.72436523,0.03729248,0.6976929,1.1875,-0.34375,-0.25
371,0.72558594,0.05316162,0.7037964,1.375,-0.1875,-0.125
372,0.71875,0.046081543,0.7069702,1.78125,0.09375,-0.1875
373,0.72216797,0.04827881,0.71087646,0.984375,0.34375,-0.03125
374,0.7199707,0.042663574,0.7055054,1.75,0.078125,-0.203125
375,0.7219238,0.03656006,0.7057495,1.03125,-0.15625,-0.328125
376,0.72094727,0.03363037,0.7040405,0.09375,0.09375,-0.140625
377,0.72436523,0.04095459,0.70648193,0.265625,0.09375,-0.046875
378,0.71972656,0.04852295,0.7094116,-0.078125,0.078125,0.28125
379,0.7236328,0.045837402,0.6942749,-0.125,-0.046875,0.109375
380,0.72631836,0.050720215,0.7094116,-0.21875,0.015625,-0.203125
381,0.72094727,0.054382324,0.6950073,-0.765625,0.875,0.484375
382,0.72509766,0.0602417,0.7081909,0.703125,-0.109375,-0.109375
383,0.71899414,0.04095459,0.7008667,0.140625,-0.59375,-0.28125
384,0.71484375,0.043151855,0.69866943,-1.296875,0.015625,0.109375
385,0.72216797,0.057800293,0.70233154,0.21875,0.21875,-0.078125
386,0.72314453,0.051696777,0.70355225,0.40625,0.40625,-0.046875
387,0.7229004,0.059509277,0.70233154,-0.1875,0.203125,0.265625
388,0.72558594,0.05731201,0.7081909,0.390625,0.109375,0.171875
389,0.7192383,0.05340576,0.70306396,-0.046875,0.0,0.03125
390,0.72509766,0.059509277,0.7057495,-0.03125,0.484375,-0.1875
391,0.7253418,0.058532715,0.70111084,0.0,-0.03125,-0.1875
392,0.72387695,0.05999756,0.6991577,-0.328125,0.265625,-0.0625
393,0.7270508,0.06317139,0.7045288,0.296875,0.328125,-0.03125
394,0.7236328,0.062194824,0.69989014,0.109375,-0.046875,0.203125
395,0.7233887,0.062927246,0.7028198,0.59375,0.234375,0.0
396,0.7258301,0.06365967,0.7091675,-0.03125,0.140625,-0.171875
397,0.71972656,0.06072998,0.6864624,-0.25,0.640625,0.03125
398,0.7236328,0.07147217,0.7033081,0.59375,0.15625,-0.40625
399,0.7192383,0.05609131,0.7055054,1.359375,-0.140625,-0.453125
400,0.71899414,0.05316162,0.6954956,0.109375,0.21875,-0.171875
401,0.7229004,0.06585693,0.70111084,0.90625,0.078125,-0.34375
402,0.7258301,0.062927246,0.7025757,2.109375,-0.109375,-0.578125
403,0.72436523,0.062438965,0.7025757,0.9375,-0.09375,-0.28125
404,0.717041,0.05999756,0.701355,0.859375,0.15625,-0.15625
405,0.71728516,0.058044434,0.7037964,1.671875,-0.140625,-0.40625
406,0.7229004,0.05633545,0.7050171,1.53125,0.03125,-0.5625
407,0.717041,0.050231934,0.7086792,1.921875,-0.109375,-0.6875
408,0.7167969,0.050476074,0.7008667,1.0,0.296875,-0.375
409,0.7246094,0.06414795,0.7008667,1.265625,0.296875,-0.359375
410,0.71972656,0.058532715,0.70355225,1.484375,-0.3125,-0.34375
411,0.7294922,0.05609131,0.6991577,1.765625,-0.0625,-0.296875
412,0.7216797,0.050720215,0.70599365,0.90625,0.234375,-0.34375
413,0.7192383,0.04852295,0.6967163,0.90625,0.28125,-0.34375
414,0.72265625,0.058776855,0.70599365,1.015625,0.03125,-0.453125
415,0.7265625,0.051452637,0.71136475,2.359375,-0.171875,-0.59375
416,0.70874023,0.04437256,0.69573975,0.921875,-0.125,-0.34375
417,0.72680664,0.04925537,0.70477295,1.0,-0.015625,-0.453125
418,0.72680664,0.053649902,0.70526123,1.890625,0.25,-0.625
419,0.72021484,0.054382324,0.70526123,1.734375,-0.34375,-0.140625
420,0.72021484,0.055847168,0.7067261,1.46875,-0.0625,-0.15625
421,0.7246094,0.046325684,0.7040405,1.578125,0.015625,-0.34375
422,0.7138672,0.04119873,0.7037964,1.359375,0.28125,-0.28125
423,0.72143555,0.039489746,0.71014404,1.546875,-0.046875,-0.453125
424,0.72558594,0.03753662,0.701355,1.34375,-0.046875,-0.484375
425,0.7265625,0.050231934,0.7081909,1.5,0.265625,-0.328125
426,0.7192383,0.039245605,0.69989014,1.40625,-0.1875,-0.1875
427,0.7248535,0.04876709,0.7069702,1.828125,0.125,-0.28125
428,0.72143555,0.043395996,0.70111084,0.703125,0.21875,-0.234375
429,0.71899414,0.04095459,0.6935425,0.75,0.265625,-0.296875
430,0.7236328,0.04486084,0.70526123,0.765625,0.03125,-0.3125
431,0.7207031,0.042663574,0.7213745,2.625,-0.234375,-0.296875
432,0.7150879,0.027770996,0.70648193,0.03125,-0.046875,0.03125
433,0.71606445,0.043640137,0.699646,-1.09375,0.375,0.09375
434,0.72631836,0.05316162,0.7081909,0.796875,0.453125,0.09375
435,0.7224121,0.053894043,0.7003784,0.3125,-0.1875,0.328125
436,0.7207031,0.055603027,0.6991577,0.15625,0.15625,0.296875
437,0.71533203,0.04852295,0.7050171,0.578125,0.390625,0.296875
438,0.7182617,0.03778076,0.7062378,-0.09375,-0.34375,0.171875
439,0.7194824,0.04046631,0.71258545,-0.171875,0.390625,0.078125
440,0.7216797,0.04486084,0.7045288,-1.078125,0.578125,0.1875
441,0.71655273,0.05633545,0.7001343,-1.03125,0.578125,0.078125
442,0.72143555,0.06341553,0.70306396,0.03125,0.453125,0.03125
443,0.72314453,0.066589355,0.70428467,0.53125,0.359375,-0.046875
444,0.7109375,0.04852295,0.6918335,-0.484375,0.4375,0.03125
445,0.7233887,0.05609131,0.69866943,-0.296875,0.515625,-0.234375
446,0.72753906,0.066345215,0.70477295,-0.40625,0.59375,0.125
447,0.72509766,0.06390381,0.70721436,0.390625,0.515625,-0.21875
448,0.72265625,0.051696777,0.699646,-0.40625,0.078125,-0.171875
449,0.7216797,0.061462402,0.6959839,-0.9375,0.234375,-0.078125
450,0.7270508,0.06707764,0.7001343,0.625,0.390625,-0.5
451,0.7248535,0.06585693,0.69696045,0.390625,0.09375,-0.125
452,0.7285156,0.062927246,0.69696045,0.078125,0.046875,0.140625
453,0.7253418,0.062927246,0.70062256,0.484375,0.453125,0.15625
454,0.72143555,0.061462402,0.6950073,0.34375,0.28125,-0.015625
455,0.7233887,0.066589355,0.69989014,0.9375,0.09375,-0.28125
456,0.7233887,0.06341553,0.6947632,1.015625,0.328125,-0.453125
457,0.717041,0.0692749,0.6972046,1.109375,0.1875,-0.28125
458,0.72509766,0.0680542,0.7008667,1.609375,-0.046875,-0.3125
459,0.7294922,0.06536865,0.6989136,1.5625,-0.109375,-0.15625
460,0.72021484,0.06341553,0.6942749,0.734375,0.296875,-0.3125
461,0.72265625,0.05999756,0.68865967,0.734375,0.421875,-0.4375
462,0.7294922,0.07293701,0.7025757,1.21875,0.09375,-0.546875
463,0.7314453,0.06317139,0.70892334,2.375,-0.015625,-0.453125
464,0.7155762,0.05657959,0.6959839,0.84375,-0.0625,-0.21875
465,0.7248535,0.062194824,0.6984253,1.015625,0.15625,-0.5
466,0.7224121,0.059509277,0.7045288,1.96875,0.09375,-0.71875
467,0.72680664,0.06365967,0.6954956,1.4375,0.25,-0.140625
468,0.7229004,0.061462402,0.7001343,0.734375,0.453125,-0.203125
469,0.72094727,0.06439209,0.70184326,2.125,0.359375,-0.328125
470,0.72753906,0.05731201,0.69818115,1.625,0.109375,-0.265625
471,0.72216797,0.057800293,0.7015991,1.359375,0.421875,-0.515625
472,0.72314453,0.054626465,0.6967163,1.46875,0.515625,-0.578125
473,0.7229004,0.053649902,0.6989136,1.609375,0.125,-0.4375
474,0.73168945,0.055114746,0.6972046,1.375,0.234375,-0.5
475,0.7277832,0.049743652,0.6901245,1.625,0.234375,-0.421875
476,0.7348633,0.058044434,0.70306396,1.0625,0.21875,-0.640625
477,0.72094727,0.050231934,0.68499756,0.484375,0.359375,-0.328125
478,0.7324219,0.055358887,0.7067261,2.40625,-0.03125,-0.671875
479,0.71972656,0.039978027,0.7062378,2.046875,-0.296875,-0.546875
480,0.7265625,0.0446167,0.69207764,-0.375,-0.015625,-0.0625
481,0.72875977,0.054382324,0.69085693,1.15625,0.4375,-0.234375
482,0.7270508,0.04901123,0.6918335,1.75,-0.140625,-0.515625
483,0.72314453,0.05218506,0.69744873,1.5,-0.171875,-0.171875
484,0.7336426,0.04510498,0.701355,1.75,0.140625,0.046875
485,0.7290039,0.046081543,0.7003784,1.734375,-0.234375,-0.171875
486,0.7258301,0.046081543,0.69940186,0.796875,-0.078125,-0.0625
487,0.72631836,0.04095459,0.70355225,1.0625,-0.140625,-0.09375
488,0.7312012,0.039245605,0.7008667,0.09375,-0.0625,0.046875
489,0.7253418,0.04949951,0.6976929,-0.328125,0.171875,0.265625
490,0.73046875,0.057556152,0.6967163,-0.265625,0.328125,0.21875
491,0.72558594,0.04925537,0.69451904,0.421875,0.0,0.1875
492,0.7319336,0.0602417,0.69696045,0.328125,-0.015625,-0.015625
493,0.72216797,0.050964355,0.6893921,-0.921875,0.203125,0.34375
494,0.7211914,0.06121826,0.70428467,0.421875,0.046875,-0.234375
495,0.7236328,0.043640137,0.70355225,0.25,-0.34375,-0.234375
496,0.7233887,0.04827881,0.68914795,-1.03125,0.21875,0.125
497,0.73095703,0.05316162,0.7074585,0.453125,-0.078125,-0.296875
498,0.72436523,0.059020996,0.697937,0.34375,-0.09375,-0.109375
499,0.7253418,0.06585693,0.70062256,-0.546875,0.265625,0.171875
500,0.7282715,0.062438965,0.7020874,0.453125,0.0625,0.15625
501,0.7253418,0.0602417,0.6935425,0.203125,0.28125,-0.09375
502,0.7216797,0.05731201,0.7020874,0.015625,0.25,0.015625
503,0.72216797,0.062683105,0.7001343,0.21875,-0.15625,-0.234375
504,0.734375,0.06414795,0.6950073,-0.28125,0.28125,-0.328125
505,0.7236328,0.059265137,0.701355,0.59375,0.40625,-0.0625
506,0.7314453,0.06903076,0.69989014,0.78125,0.21875,-0.21875
507,0.72631836,0.062683105,0.682312,0.046875,0.171875,0.265625
508,0.73046875,0.07220459,0.6972046,0.28125,0.484375,-0.3125
509,0.7265625,0.07147217,0.69940186,0.125,0.421875,0.15625
510,0.7272949,0.070251465,0.7091675,1.390625,0.4375,-0.171875
511,0.7182617,0.05291748,0.69158936,0.671875,0.125,-0.25
512,0.7216797,0.062927246,0.69207764,-0.390625,0.515625,-0.3125
513,0.72875977,0.06781006,0.70184326,1.359375,0.5,-0.625
514,0.72509766,0.061950684,0.6911011,1.40625,0.328125,-0.515625
515,0.7248535,0.066101074,0.69818115,0.828125,-0.015625,-0.234375
516,0.73046875,0.06732178,0.69647217,1.21875,-0.125,-0.59375
517,0.72875977,0.061462402,0.6918335,1.53125,0.09375,-0.671875
518,0.7272949,0.062194824,0.6942749,1.59375,-0.09375,-0.625
519,0.732666,0.06121826,0.7008667,1.71875,0.265625,-0.890625
520,0.7253418,0.0602417,0.6918335,1.71875,0.078125,-0.640625
521,0.7319336,0.062194824,0.6935425,0.921875,-0.140625,-0.3125
522,0.7265625,0.06072998,0.7008667,1.734375,0.234375,-0.390625
523,0.72753906,0.05633545,0.6976929,1.015625,0.859375,-0.1875
524,0.73583984,0.05682373,0.68304443,1.046875,0.609375,-0.296875
525,0.7312012,0.055847168,0.69281006,1.65625,0.078125,-0.46875
526,0.7312012,0.058532715,0.7037964,2.921875,0.078125,-0.328125
527,0.7282715,0.039489746,0.69036865,0.84375,-0.25,-0.34375
528,0.7265625,0.0524292,0.6901245,0.671875,-0.015625,-0.515625
529,0.7351074,0.05657959,0.697937,1.828125,-0.171875,-0.65625
530,0.7314453,0.055847168,0.6871948,1.0625,-0.375,-0.421875
531,0.7319336,0.05682373,0.69696045,1.359375,-0.234375,-0.234375
532,0.72875977,0.043640137,0.70111084,2.265625,-0.546875,-0.359375
533,0.72680664,0.050476074,0.696228,1.203125,-0.453125,-0.25
534,0.7145996,0.050964355,0.70111084,1.609375,-0.140625,-0.375
535,0.72021484,0.04925537,0.69866943,1.296875,0.015625,-0.390625
536,0.72753906,0.04827881,0.69696045,0.796875,0.46875,-0.21875
537,0.7216797,0.05340576,0.701355,2.078125,0.234375,0.03125
538,0.7336426,0.049743652,0.7086792,1.625,-0.234375,-0.09375
539,0.7236328,0.035583496,0.6864624,0.421875,0.28125,-0.15625
540,0.732666,0.053649902,0.6954956,0.875,0.15625,-0.296875
541,0.7285156,0.04876709,0.6976929,0.53125,-0.390625,0.0625
542,0.7294922,0.049987793,0.71429443,2.0625,-0.390625,-0.421875
543,0.7207031,0.03387451,0.7055054,0.671875,-0.4375,-0.328125
544,0.72265625,0.04852295,0.69281006,-0.625,-0.015625,-0.171875
545,0.7219238,0.05218506,0.70721436,0.78125,0.203125,-0.1875
546,0.72509766,0.05609131,0.6950073,-0.203125,-0.078125,0.390625
547,0.7233887,0.054138184,0.7028198,-0.046875,0.28125,0.5625
548,0.7180176,0.055847168,0.69744873,0.75,0.390625,0.1875
549,0.7199707,0.04486084,0.7040405,0.0625,0.375,0.078125
550,0.72753906,0.0524292,0.69866943,0.296875,0.203125,-0.078125
551,0.7285156,0.04852295,0.7025757,-0.3125,0.390625,-0.09375
552,0.73217773,0.057556152,0.7020874,-0.46875,0.5625,-0.046875
553,0.7246094,0.051208496,0.7001343,0.125,-0.21875,-0.1875
554,0.72216797,0.058044434,0.69525146,-0.453125,0.09375,0.140625
555,0.7246094,0.058532715,0.6918335,0.546875,0.484375,0.25
556,0.73291016,0.06512451,0.70526123,0.15625,0.0,-0.078125
557,0.7182617,0.0602417,0.68914795,-0.875,0.453125,0.109375
558,0.72924805,0.070251465,0.69989014,0.015625,0.28125,-0.390625
559,0.71606445,0.05657959,0.70306396,0.71875,-0.203125,-0.0625
560,0.7246094,0.059020996,0.6901245,-1.015625,0.125,0.109375
561,0.7290039,0.06390381,0.69525146,0.25,0.34375,-0.015625
562,0.72680664,0.05609131,0.6947632,0.765625,0.28125,-0.171875
563,0.7302246,0.066101074,0.696228,-0.015625,0.0625,0.28125
564,0.72802734,0.074157715,0.6991577,0.0,0.578125,0.421875
565,0.72436523,0.062438965,0.69647217,0.703125,0.078125,0.078125
566,0.7163086,0.05999756,0.69940186,0.796875,0.015625,-0.296875
567,0.7312012,0.06072998,0.6950073,0.609375,0.734375,-0.453125
568,0.72094727,0.06463623,0.69451904,0.65625,0.609375,-0.359375
569,0.73046875,0.07147217,0.6923218,1.125,0.1875,-0.4375
570,0.7260742,0.06488037,0.6898804,0.890625,0.359375,-0.171875
571,0.7272949,0.06781006,0.6947632,2.3125,0.328125,-0.515625
572,0.73583984,0.06561279,0.70111084,0.875,0.234375,-0.859375
573,0.7233887,0.062438965,0.6847534,0.375,0.296875,-0.453125
574,0.7355957,0.074401855,0.70526123,2.109375,0.015625,-0.828125
575,0.7246094,0.058776855,0.69696045,1.53125,0.03125,-0.875
576,0.7180176,0.058776855,0.69329834,0.953125,0.0625,-0.359375
577,0.73413086,0.062194824,0.69158936,1.078125,0.09375,-0.421875
578,0.72680664,0.05706787,0.69818115,1.78125,0.375,-0.59375
579,0.7285156,0.06048584,0.697937,1.234375,0.484375,-0.125
580,0.73046875,0.062438965,0.6906128,1.4375,0.265625,0.015625
581,0.7348633,0.06072998,0.6967163,2.078125,-0.09375,-0.390625
582,0.7290039,0.05340576,0.69329834,1.4375,0.140625,-0.25
583,0.73046875,0.046325684,0.70306396,1.625,-0.265625,-0.484375
584,0.7258301,0.050476074,0.6959839,1.421875,0.078125,-0.375
585,0.7285156,0.058288574,0.69696045,1.4375,-0.203125,-0.328125
586,0.72216797,0.051452637,0.6937866,1.515625,-0.390625,-0.21875
587,0.73046875,0.050720215,0.7001343,1.84375,-0.171875,-0.171875
588,0.7258301,0.05706787,0.7055054,1.15625,0.046875,-0.1875
589,0.72143555,0.04949951,0.6871948,0.5,-0.09375,0.078125
590,0.72631836,0.0602417,0.7003784,1.84375,-0.0625,-0.359375
591,0.7277832,0.046569824,0.7069702,2.515625,-0.46875,-0.359375
592,0.7229004,0.043884277,0.69085693,0.34375,0.03125,0.0
593,0.72558594,0.055358887,0.69281006,1.09375,0.1875,-0.125
594,0.7290039,0.053894043,0.701355,1.96875,0.234375,-0.609375
595,0.7314453,0.053894043,0.69989014,1.046875,-0.453125,-0.078125
596,0.7260742,0.048034668,0.7008667,1.265625,0.09375,-0.1875
597,0.7229004,0.046325684,0.69451904,1.46875,-0.078125,-0.140625
598,0.7272949,0.046569824,0.6991577,0.796875,-0.171875,-0.15625
599,0.72436523,0.050231934,0.70428467,2.34375,0.15625,-0.34375
600,0.72387695,0.04095459,0.701355,1.359375,0.328125,-0.390625
601,0.72802734,0.044128418,0.7015991,0.21875,0.4375,-0.015625
602,0.72631836,0.047546387,0.6947632,1.078125,0.25,0.046875
603,0.7277832,0.051940918,0.7045288,1.328125,0.03125,-0.328125
604,0.72094727,0.038269043,0.6954956,-0.328125,0.0625,0.015625
605,0.7194824,0.04095459,0.6876831,-1.0,0.328125,0.03125
606,0.7265625,0.06048584,0.7003784,-0.5625,0.25,0.1875
607,0.72436523,0.05291748,0.71258545,1.5,-0.1875,-0.171875
608,0.72314453,0.043640137,0.6947632,-0.53125,-0.03125,-0.0625
609,0.7236328,0.055603027,0.6950073,-0.8125,0.171875,-0.015625
610,0.7290039,0.058044434,0.69940186,0.359375,0.15625,-0.40625
611,0.7246094,0.049743652,0.70233154,-0.15625,-0.0625,0.015625
612,0.7314453,0.054626465,0.7025757,-0.1875,0.28125,0.203125
613,0.72680664,0.05633545,0.696228,0.46875,-0.015625,0.203125
614,0.7277832,0.0524292,0.69989014,-0.125,-0.1875,0.140625
615,0.72680664,0.050964355,0.70355225,0.265625,-0.046875,0.046875
616,0.7265625,0.055847168,0.697937,0.015625,0.0625,-0.09375
617,0.73168945,0.061462402,0.69696045,-0.1875,0.546875,0.015625
618,0.7258301,0.061950684,0.6950073,-0.046875,-0.125,0.0
619,0.73046875,0.073913574,0.7040405,0.3125,0.328125,-0.09375
620,0.7224121,0.06121826,0.6901245,0.15625,-0.125,-0.015625
621,0.73339844,0.070007324,0.6942749,0.625,0.109375,-0.390625
622,0.72265625,0.062194824,0.6972046,-0.1875,0.078125,-0.109375
623,0.7297363,0.06390381,0.7003784,0.796875,0.234375,-0.3125
624,0.7229004,0.05731201,0.6959839,0.578125,-0.328125,-0.375
625,0.7236328,0.06781006,0.6901245,-0.296875,0.1875,-0.1875
626,0.7324219,0.06414795,0.6989136,1.453125,0.0,-0.453125
627,0.7241211,0.061462402,0.69525146,1.390625,0.046875,-0.578125
628,0.7241211,0.06976318,0.7015991,0.6875,0.03125,-0.234375
629,0.72314453,0.06317139,0.7055054,1.25,0.0625,-0.25
630,0.7192383,0.062683105,0.69207764,1.40625,-0.109375,-0.453125
631,0.7258301,0.05682373,0.7028198,1.4375,-0.0625,-0.765625
632,0.7324219,0.06365967,0.6991577,1.1875,0.125,-0.546875
633,0.7272949,0.058288574,0.6937866,1.140625,0.21875,-0.5
634,0.72216797,0.061706543,0.69818115,1.78125,-0.234375,-0.21875
635,0.7294922,0.066101074,0.70428467,2.03125,-0.1875,-0.421875
636,0.71777344,0.050964355,0.6881714,1.125,0.140625,-0.5
637,0.734375,0.061462402,0.6967163,1.359375,0.0,-0.59375
638,0.71850586,0.05682373,0.6923218,1.21875,0.109375,-0.28125
639,0.72753906,0.05731201,0.7074585,2.484375,0.0625,-0.609375
640,0.71875,0.0446167,0.7050171,1.859375,-0.328125,-0.546875
641,0.72387695,0.051208496,0.6889038,0.234375,0.0625,-0.328125
642,0.7241211,0.06097412,0.7015991,1.9375,0.203125,-0.40625
643,0.7258301,0.051696777,0.6947632,1.828125,-0.265625,-0.46875
644,0.7199707,0.05609131,0.6991577,1.4375,-0.140625,-0.203125
645,0.7258301,0.05682373,0.701355,1.640625,0.046875,-0.15625
646,0.7199707,0.04559326,0.697937,1.296875,-0.09375,-0.21875
647,0.7216797,0.046813965,0.7033081,1.578125,-0.109375,-0.328125
648,0.7192383,0.040222168,0.70062256,1.546875,-0.25,-0.453125
649,0.72314453,0.04559326,0.7003784,0.984375,0.09375,-0.453125
650,0.72387695,0.04510498,0.7033081,1.171875,0.234375,-0.328125
651,0.71850586,0.046569824,0.6989136,1.109375,0.15625,-0.03125
652,0.73095703,0.04949951,0.7045288,1.796875,0.171875,-0.125
653,0.7277832,0.048034668,0.7074585,1.265625,0.078125,-0.265625
654,0.71313477,0.045837402,0.6918335,0.53125,0.328125,-0.078125
655,0.7270508,0.051696777,0.7081909,1.65625,-0.09375,-0.453125
656,0.7224121,0.044128418,0.7103882,2.078125,-0.21875,-0.421875
657,0.7216797,0.03778076,0.69647217,-0.1875,-0.015625,-0.125
658,0.7307129,0.041931152,0.7055054,0.03125,0.328125,-0.21875
659,0.72558594,0.04534912,0.7028198,0.6875,0.09375,-0.015625
660,0.7246094,0.05609131,0.697937,-0.15625,-0.046875,0.34375
661,0.7180176,0.05291748,0.70233154,0.5,0.390625,0.25
662,0.7258301,0.050231934,0.70648193,0.34375,0.328125,0.203125
663,0.7270508,0.04486084,0.697937,-0.015625,0.09375,0.0
664,0.72631836,0.04901123,0.70355225,0.25,0.109375,-0.15625
665,0.7224121,0.04534912,0.699646,-0.421875,-0.046875,-0.1875
666,0.7285156,0.055603027,0.701355,-0.453125,0.375,0.015625
667,0.7194824,0.054382324,0.69696045,-0.203125,0.21875,0.296875
668,0.7285156,0.0602417,0.7003784,0.65625,0.21875,-0.046875
669,0.71875,0.055114746,0.7008667,-0.78125,0.171875,-0.046875
670,0.71313477,0.05706787,0.68914795,-0.625,0.25,0.0
671,0.73168945,0.061462402,0.70428467,-0.328125,0.171875,-0.21875
672,0.7277832,0.062438965,0.7079468,1.109375,0.1875,-0.1875
673,0.717041,0.046081543,0.7037964,-0.28125,-0.171875,-0.21875
674,0.72094727,0.06390381,0.6976929,-0.96875,0.1875,0.0
675,0.72216797,0.06561279,0.7062378,0.9375,0.328125,-0.46875
676,0.7194824,0.062194824,0.69207764,0.53125,-0.015625,-0.109375
677,0.72387695,0.06707764,0.6959839,0.328125,0.453125,0.15625
678,0.7272949,0.06097412,0.7020874,1.21875,0.078125,-0.296875
679,0.7241211,0.054870605,0.7008667,1.015625,0.046875,-0.453125
680,0.7216797,0.05682373,0.7020874,1.265625,-0.109375,-0.5
681,0.71972656,0.05291748,0.69573975,1.0,0.09375,-0.625
682,0.7258301,0.055847168,0.7050171,1.046875,-0.03125,-0.5625
683,0.7246094,0.06414795,0.6984253,1.328125,-0.125,-0.21875
684,0.7272949,0.062927246,0.70306396,1.515625,0.34375,-0.328125
685,0.72094727,0.053649902,0.69989014,0.875,0.40625,-0.296875
686,0.72680664,0.059509277,0.6954956,1.296875,0.21875,-0.71875
687,0.7199707,0.06048584,0.70062256,1.234375,0.125,-0.5
688,0.7285156,0.062683105,0.70770264,2.21875,0.09375,-0.8125
689,0.7158203,0.044128418,0.699646,1.59375,-0.234375,-0.421875
690,0.7229004,0.04925537,0.7008667,0.828125,-0.296875,-0.453125
691,0.7285156,0.057556152,0.6972046,1.765625,0.109375,-0.59375
692,0.72875977,0.053649902,0.6976929,1.96875,-0.203125,-0.3125
693,0.7224121,0.050476074,0.7040405,1.09375,0.171875,0.015625
694,0.7248535,0.055603027,0.70599365,1.71875,0.203125,-0.21875
695,0.71777344,0.04852295,0.701355,1.421875,-0.234375,-0.203125
696,0.7241211,0.049743652,0.70111084,1.078125,-0.078125,-0.484375
697,0.7219238,0.04437256,0.70428467,1.3125,0.1875,-0.453125
698,0.72558594,0.046081543,0.7003784,1.171875,0.0,-0.234375
699,0.7270508,0.051940918,0.6950073,1.265625,-0.0625,-0.265625
700,0.7241211,0.047302246,0.70355225,1.71875,0.109375,-0.015625
701,0.72753906,0.042175293,0.69573975,1.375,0.1875,-0.203125
702,0.7307129,0.04901123,0.7057495,1.015625,0.109375,-0.21875
703,0.71777344,0.04071045,0.6906128,0.390625,0.3125,-0.078125
704,0.7277832,0.054382324,0.7133179,1.71875,-0.140625,-0.4375
705,0.7219238,0.02923584,0.70965576,2.078125,-0.4375,-0.640625
706,0.71435547,0.0368042,0.69525146,-0.125,-0.171875,-0.21875
707,0.7265625,0.050231934,0.7037964,1.109375,0.03125,-0.203125
708,0.7248535,0.042907715,0.7098999,1.90625,-0.28125,-0.28125
709,0.7233887,0.043640137,0.7069702,0.5,-0.5,0.078125
710,0.72143555,0.046081543,0.71258545,0.71875,0.1875,0.34375
711,0.7338867,0.041931152,0.7106323,0.21875,0.265625,0.640625
712,0.720459,0.0368042,0.69940186,-0.609375,0.484375,0.609375
713,0.71777344,0.048034668,0.70184326,0.21875,0.8125,0.03125
714,0.7241211,0.058776855,0.7028198,0.03125,0.40625,0.53125
715,0.7224121,0.05218506,0.69818115,-0.3125,0.203125,0.0
716,0.71728516,0.055603027,0.69818115,-0.296875,0.53125,0.171875
717,0.7194824,0.054382324,0.70770264,0.734375,0.03125,0.015625
718,0.72998047,0.049743652,0.7057495,-0.5625,0.265625,-0.625
719,0.720459,0.047058105,0.6889038,-0.78125,0.578125,0.03125
720,0.7355957,0.062927246,0.70965576,-0.015625,0.21875,-0.265625
721,0.72143555,0.057556152,0.71136475,0.75,0.015625,-0.015625
722,0.72436523,0.04901123,0.69451904,-0.875,0.078125,-0.109375
723,0.71972656,0.05609131,0.70111084,-0.125,0.125,-0.15625
724,0.7285156,0.06341553,0.69744873,0.296875,0.09375,-0.375
725,0.7207031,0.0680542,0.6935425,-0.234375,0.21875,0.328125
726,0.7199707,0.070495605,0.7020874,0.359375,0.21875,0.234375
727,0.7312012,0.05999756,0.70648193,0.359375,0.015625,0.0625
728,0.72680664,0.05706787,0.6991577,0.09375,0.171875,-0.1875
729,0.72509766,0.06439209,0.70062256,0.3125,0.234375,-0.015625
730,0.72558594,0.06072998,0.70233154,0.234375,0.21875,-0.046875
731,0.72558594,0.062194824,0.7001343,0.15625,0.21875,-0.109375
732,0.7219238,0.06976318,0.69525146,0.21875,0.125,0.21875
733,0.7270508,0.07147217,0.6959839,1.171875,0.328125,0.0
734,0.7272949,0.07684326,0.70355225,0.984375,0.03125,-0.421875
735,0.7199707,0.06317139,0.6884155,0.578125,-0.09375,-0.546875
736,0.7265625,0.06976318,0.70648193,1.28125,-0.265625,-0.578125
737,0.72436523,0.058532715,0.70062256,1.78125,-0.25,-0.671875
738,0.7233887,0.058532715,0.69525146,0.265625,0.21875,-0.40625
739,0.7282715,0.066589355,0.7033081,1.25,-0.078125,-0.515625
740,0.7246094,0.06048584,0.7050171,2.140625,0.0625,-0.78125
741,0.7233887,0.06390381,0.69647217,1.0625,0.0625,-0.21875
742,0.7219238,0.062683105,0.6991577,1.703125,0.078125,-0.328125
743,0.7192383,0.055358887,0.7025757,1.734375,-0.203125,-0.515625
744,0.7219238,0.05731201,0.69818115,1.09375,-0.078125,-0.40625
745,0.7285156,0.053649902,0.70355225,1.515625,0.046875,-0.703125
746,0.72558594,0.058532715,0.70184326,1.46875,0.125,-0.4375
747,0.7272949,0.054626465,0.69940186,1.421875,-0.09375,-0.21875
748,0.7324219,0.061706543,0.7040405,1.46875,0.40625,-0.28125
749,0.72631836,0.055358887,0.69525146,1.453125,0.1875,-0.125
750,0.7229004,0.055114746,0.7040405,1.171875,0.140625,-0.328125
751,0.71899414,0.0524292,0.6884155,0.671875,0.125,-0.109375
752,0.7272949,0.062194824,0.7067261,1.734375,-0.046875,-0.390625
753,0.7194824,0.049987793,0.71258545,2.03125,-0.46875,-0.625
754,0.72094727,0.046813965,0.69647217,0.359375,-0.265625,-0.328125
755,0.7277832,0.054138184,0.7067261,1.28125,0.125,-0.421875
756,0.7158203,0.050964355,0.69818115,1.65625,0.140625,-0.21875
757,0.72998047,0.059265137,0.6991577,1.140625,-0.203125,0.0
758,0.72753906,0.05218506,0.7037964,1.546875,-0.046875,-0.171875
759,0.7180176,0.045837402,0.69866943,1.078125,0.21875,-0.28125
