sample_no,accel_x,accel_y,accel_z,gyro_x,gyro_y,gyro_z
0,-0.78759766,0.049743652,-0.6433716,-0.234375,1.0,0.421875
1,-0.79125977,0.051696777,-0.6470337,-0.53125,0.75,0.828125
2,-0.79833984,0.03778076,-0.6477661,0.0,1.171875,0.515625
3,-0.79052734,0.047790527,-0.65093994,-0.15625,1.046875,0.21875
4,-0.7961426,0.04486084,-0.6589966,-0.375,0.875,-0.078125
5,-0.7680664,0.04144287,-0.6734009,2.375,0.03125,3.53125
6,-0.80810547,0.051696777,-0.62872314,1.125,2.34375,2.515625
7,-0.7910156,0.04510498,-0.6445923,0.0625,1.0625,1.90625
8,-0.7937012,0.042419434,-0.63775635,-0.65625,0.234375,1.0
9,-0.7993164,0.04925537,-0.6514282,-0.453125,-0.15625,1.515625
10,-0.79711914,0.047302246,-0.6548462,-0.234375,0.3125,1.046875
11,-0.8039551,0.039978027,-0.6465454,-1.234375,0.984375,0.265625
12,-0.8078613,0.055114746,-0.6663208,-1.28125,0.515625,-0.453125
13,-0.8005371,0.039978027,-0.64923096,-0.140625,2.5625,0.4375
14,-0.7844238,0.035827637,-0.6355591,0.078125,1.828125,1.234375
15,-0.795166,0.029968262,-0.65631104,-0.359375,1.3125,1.078125
16,-0.7973633,0.028015137,-0.6502075,-0.375,1.0625,1.03125
17,-0.79833984,0.034118652,-0.6387329,-0.25,1.0,0.359375
18,-0.79174805,0.036315918,-0.6470337,-0.5,1.15625,-0.171875
19,-0.7963867,0.036315918,-0.6470337,-0.234375,0.625,-0.09375
20,-0.79785156,0.039733887,-0.63775635,-0.203125,0.1875,-0.03125
21,-0.79125977,0.03729248,-0.64971924,-0.375,0.0625,-0.109375
22,-0.80126953,0.047546387,-0.64678955,-0.34375,-0.203125,0.09375
23,-0.7871094,0.03753662,-0.6453247,-0.5625,0.46875,0.03125
24,-0.7998047,0.04437256,-0.6511841,-0.453125,0.515625,0.46875
25,-0.79956055,0.03363037,-0.6460571,-0.421875,0.359375,0.375
26,-0.79345703,0.046325684,-0.6514282,-0.453125,0.46875,0.0625
27,-0.7915039,0.0446167,-0.6482544,-0.78125,0.765625,-0.046875
28,-0.7973633,0.04144287,-0.6543579,-0.390625,1.015625,0.390625
29,-0.7944336,0.042663574,-0.6453247,-0.453125,0.5625,0.703125
30,-0.80444336,0.04901123,-0.65509033,-0.703125,0.796875,0.734375
31,-0.79418945,0.034362793,-0.6404419,-0.78125,1.65625,1.375
32,-0.79248047,0.03338623,-0.6375122,-0.625,0.171875,0.78125
33,-0.7998047,0.040222168,-0.65826416,-0.828125,0.109375,0.203125
34,-0.79589844,0.03656006,-0.65460205,-0.421875,0.71875,-0.0625
35,-0.78930664,0.035583496,-0.6436157,-0.265625,1.015625,0.046875
36,-0.798584,0.035339355,-0.65631104,-0.59375,1.109375,-0.484375
37,-0.7993164,0.038757324,-0.6392212,-0.40625,0.78125,-0.25
38,-0.8041992,0.043151855,-0.6470337,-0.5625,-0.5,-0.765625
39,-0.79589844,0.043151855,-0.65216064,-1.140625,-0.515625,-0.75
40,-0.7980957,0.051696777,-0.64801025,-1.578125,-0.375,-0.625
41,-0.795166,0.04095459,-0.6409302,-1.828125,-0.328125,-0.546875
42,-0.79296875,0.039001465,-0.64385986,-1.921875,-0.53125,-0.828125
43,-0.7783203,0.039733887,-0.67144775,-1.25,-0.28125,-0.109375
44,-0.7922363,0.034606934,-0.64385986,0.453125,-0.578125,-0.09375
45,-0.79345703,0.0446167,-0.6502075,0.65625,-1.4375,0.109375
46,-0.7910156,0.047058105,-0.6621704,0.703125,-0.65625,0.359375
47,-0.7858887,0.050476074,-0.6567993,0.578125,0.078125,0.4375
48,-0.79125977,0.047790527,-0.65997314,0.359375,0.859375,0.75
49,-0.78393555,0.04534912,-0.6560669,0.625,0.71875,1.015625
50,-0.7849121,0.039245605,-0.66412354,0.015625,1.03125,0.359375
51,-0.7885742,0.04559326,-0.63726807,0.3125,0.34375,0.84375
52,-0.78637695,0.04876709,-0.6716919,0.0,1.359375,0.78125
53,-0.78881836,0.047302246,-0.65704346,0.03125,1.90625,0.71875
54,-0.79125977,0.03704834,-0.64727783,0.453125,1.484375,0.4375
55,-0.78564453,0.05291748,-0.6553345,-0.1875,0.09375,-0.140625
56,-0.7841797,0.048034668,-0.6536255,-0.046875,-0.640625,0.234375
57,-0.80688477,0.05291748,-0.65216064,0.359375,-0.828125,0.40625
58,-0.78564453,0.046813965,-0.65802,0.375,1.15625,0.203125
59,-0.7597656,0.04095459,-0.6802368,-0.484375,2.28125,0.984375
60,-0.78149414,0.043884277,-0.6460571,-0.484375,1.03125,0.8125
61,-0.79467773,0.050231934,-0.6592407,-0.34375,-0.515625,0.25
62,-0.78271484,0.055603027,-0.66485596,0.09375,0.40625,0.5625
63,-0.78271484,0.050231934,-0.6524048,0.046875,1.234375,0.84375
64,-0.78930664,0.04901123,-0.65948486,-0.046875,1.578125,1.0625
65,-0.78393555,0.04827881,-0.6470337,0.09375,0.28125,0.5625
66,-0.78930664,0.043151855,-0.663147,-0.09375,0.046875,0.59375
67,-0.78564453,0.05731201,-0.6433716,-0.203125,0.078125,1.171875
68,-0.78930664,0.049743652,-0.6643677,-0.140625,0.453125,1.328125
69,-0.79003906,0.047546387,-0.65045166,0.359375,0.234375,1.4375
70,-0.796875,0.047790527,-0.65704346,-0.140625,0.78125,0.171875
71,-0.7819824,0.049987793,-0.661438,0.03125,0.78125,-0.140625
72,-0.7817383,0.047058105,-0.65997314,-0.03125,0.84375,0.203125
73,-0.7783203,0.04559326,-0.66607666,-0.1875,0.53125,0.28125
74,-0.7949219,0.04901123,-0.6560669,0.40625,0.671875,1.125
75,-0.7753906,0.046325684,-0.6465454,-0.03125,0.9375,0.96875
76,-0.78344727,0.053649902,-0.6565552,0.109375,0.46875,1.25
77,-0.7854004,0.047546387,-0.6531372,-0.25,0.484375,0.71875
78,-0.7956543,0.055358887,-0.6616821,0.453125,1.109375,0.734375
79,-0.7949219,0.05731201,-0.6777954,-0.296875,3.015625,1.015625
80,-0.8010254,0.047546387,-0.65460205,0.515625,4.171875,1.1875
81,-0.77612305,0.0368042,-0.66119385,0.1875,2.390625,0.53125
82,-0.7866211,0.049987793,-0.65289307,-0.453125,2.109375,0.453125
83,-0.79174805,0.04949951,-0.65289307,0.109375,1.59375,0.40625
84,-0.7932129,0.04852295,-0.64678955,-0.171875,1.53125,0.875
85,-0.79541016,0.046325684,-0.6553345,-0.40625,1.9375,0.828125
86,-0.7944336,0.047058105,-0.644104,-0.453125,1.1875,0.625
87,-0.79711914,0.042907715,-0.64727783,-0.375,0.9375,0.421875
88,-0.7961426,0.05316162,-0.65460205,-0.25,1.859375,0.71875
89,-0.7944336,0.046569824,-0.64190674,-0.890625,1.28125,0.984375
90,-0.8059082,0.042907715,-0.6572876,-0.703125,0.8125,1.03125
91,-0.79467773,0.038269043,-0.64556885,-0.28125,1.421875,0.5
92,-0.79467773,0.05218506,-0.65045166,-0.53125,1.53125,0.828125
93,-0.78759766,0.039978027,-0.642395,-0.609375,0.40625,0.1875
94,-0.7956543,0.05291748,-0.6470337,-0.515625,0.390625,-0.03125
95,-0.80029297,0.043640137,-0.6272583,-1.265625,0.046875,-0.34375
96,-0.80200195,0.046569824,-0.66363525,-1.390625,0.9375,0.703125
97,-0.7944336,0.039733887,-0.6409302,-1.265625,1.671875,0.453125
98,-0.7927246,0.043640137,-0.6397095,-1.3125,1.03125,0.15625
99,-0.79663086,0.034118652,-0.647522,-0.765625,0.609375,-0.15625
100,-0.79833984,0.038269043,-0.64971924,-0.84375,0.15625,-0.453125
101,-0.79956055,0.04534912,-0.6272583,0.109375,0.40625,-0.609375
102,-0.7980957,0.04071045,-0.62701416,-0.71875,1.578125,0.546875
103,-0.80078125,0.039245605,-0.6670532,2.171875,2.46875,0.984375
104,-0.7885742,0.039978027,-0.64312744,0.671875,1.828125,0.25
105,-0.8051758,0.047546387,-0.659729,-0.515625,0.28125,-0.671875
106,-0.80200195,0.051208496,-0.6448364,-0.421875,0.71875,-0.34375
107,-0.80029297,0.04949951,-0.64141846,-0.78125,0.46875,-0.6875
108,-0.7949219,0.043640137,-0.63238525,-0.578125,-0.359375,-0.59375
109,-0.7956543,0.051696777,-0.663147,-1.0,-1.265625,-1.0
110,-0.7932129,0.049743652,-0.63775635,-1.0,-0.9375,-0.75
111,-0.796875,0.050231934,-0.6548462,-1.0625,-1.421875,-0.796875
112,-0.7988281,0.050720215,-0.64801025,-0.90625,-1.46875,-0.921875
113,-0.79296875,0.051940918,-0.6694946,-1.109375,-1.34375,-1.203125
114,-0.7871094,0.050964355,-0.65216064,-0.921875,-0.578125,-0.609375
115,-0.7861328,0.05340576,-0.65826416,-1.25,-0.28125,-0.765625
116,-0.79467773,0.0602417,-0.65289307,-1.1875,-0.125,-0.53125
117,-0.7890625,0.049743652,-0.6655884,-1.953125,1.03125,-0.625
118,-0.7775879,0.046569824,-0.66729736,-1.75,0.75,-0.375
119,-0.7800293,0.050231934,-0.6621704,-1.296875,0.59375,-0.1875
120,-0.7873535,0.04901123,-0.65948486,-1.3125,0.59375,-0.109375
121,-0.7897949,0.051940918,-0.65997314,-1.6875,0.46875,-0.609375
122,-0.7861328,0.0524292,-0.65460205,-1.359375,0.90625,-0.640625
123,-0.78027344,0.05316162,-0.6694946,-2.3125,1.109375,-0.734375
124,-0.79003906,0.046813965,-0.66412354,-2.703125,1.140625,-0.9375
125,-0.7817383,0.053649902,-0.65704346,-1.640625,0.53125,-0.859375
126,-0.78930664,0.051696777,-0.6511841,-1.34375,-0.828125,-1.390625
127,-0.78027344,0.0446167,-0.66119385,-1.4375,0.171875,-0.921875
128,-0.7780762,0.043640137,-0.65582275,-1.375,-0.78125,-0.5625
129,-0.77905273,0.062194824,-0.6838989,-2.34375,-0.109375,-1.046875
130,-0.77978516,0.04876709,-0.68585205,-1.109375,1.90625,-0.4375
131,-0.7800293,0.046081543,-0.6555786,-0.875,2.125,-0.59375
132,-0.78222656,0.05633545,-0.65875244,-0.796875,1.3125,-0.1875
133,-0.7819824,0.055847168,-0.6553345,-0.359375,1.125,0.3125
134,-0.7685547,0.045837402,-0.67633057,-1.15625,1.3125,0.390625
135,-0.7832031,0.057556152,-0.64019775,-0.859375,1.15625,0.796875
136,-0.7792969,0.049987793,-0.66729736,-1.265625,1.171875,0.5625
137,-0.78125,0.048034668,-0.65582275,-1.09375,1.75,0.46875
138,-0.7873535,0.042907715,-0.66656494,-1.09375,0.90625,-0.421875
139,-0.78466797,0.045837402,-0.6592407,-0.46875,0.703125,-0.765625
140,-0.78637695,0.047790527,-0.65875244,-0.140625,0.4375,-0.640625
141,-0.7753906,0.050231934,-0.661438,0.328125,0.15625,-0.515625
142,-0.77441406,0.055114746,-0.65216064,0.609375,0.09375,0.28125
143,-0.7644043,0.050231934,-0.6734009,0.09375,0.40625,0.390625
144,-0.77905273,0.055603027,-0.6577759,0.484375,0.359375,0.765625
145,-0.78393555,0.05731201,-0.6609497,0.453125,-0.3125,0.640625
146,-0.7805176,0.050476074,-0.6670532,0.515625,0.328125,0.84375
147,-0.7753906,0.059020996,-0.673645,0.328125,0.625,0.71875
148,-0.779541,0.05267334,-0.6680298,-0.046875,0.40625,0.625
149,-0.7788086,0.058288574,-0.6651001,0.109375,1.328125,0.390625
150,-0.7807617,0.051208496,-0.6699829,-0.140625,0.421875,0.609375
151,-0.78930664,0.062927246,-0.65631104,0.109375,0.640625,0.625
152,-0.7883301,0.055358887,-0.66363525,-0.515625,0.671875,0.234375
153,-0.7883301,0.048034668,-0.6680298,-0.59375,1.484375,-0.09375
154,-0.78930664,0.04925537,-0.6709595,-0.015625,2.296875,0.234375
155,-0.7770996,0.055603027,-0.67681885,0.8125,3.46875,0.765625
156,-0.7775879,0.057556152,-0.6602173,-0.09375,3.671875,0.578125
157,-0.77075195,0.059265137,-0.65509033,-0.28125,2.734375,1.171875
158,-0.7907715,0.062438965,-0.66119385,1.109375,1.390625,2.859375
159,-0.7844238,0.059509277,-0.6487427,1.15625,1.390625,2.625
160,-0.7919922,0.046813965,-0.6499634,1.109375,1.734375,2.09375
161,-0.7902832,0.042907715,-0.6519165,0.390625,1.0,1.1875
162,-0.79541016,0.051696777,-0.64678955,0.984375,1.25,0.75
163,-0.7873535,0.05291748,-0.6663208,0.25,1.453125,0.5
164,-0.79003906,0.059265137,-0.64508057,0.0625,1.890625,1.09375
165,-0.79248047,0.050720215,-0.6448364,0.046875,1.078125,1.46875
166,-0.79296875,0.05731201,-0.6502075,-0.125,0.75,0.78125
167,-0.79052734,0.049743652,-0.6538696,-0.03125,0.078125,0.8125
168,-0.79003906,0.05682373,-0.63165283,0.453125,0.40625,0.375
169,-0.8039551,0.06854248,-0.6589966,-0.234375,0.984375,0.328125
170,-0.8066406,0.04486084,-0.6433716,-0.46875,2.421875,-0.546875
171,-0.79711914,0.050476074,-0.66900635,-0.25,4.328125,-1.078125
172,-0.78930664,0.04949951,-0.6375122,0.15625,4.59375,-0.125
173,-0.79541016,0.061950684,-0.6367798,0.59375,2.703125,0.90625
174,-0.7937012,0.055847168,-0.6436157,0.296875,2.0625,1.578125
175,-0.7980957,0.055603027,-0.63482666,0.125,2.609375,1.75
176,-0.8039551,0.046325684,-0.644104,-0.453125,2.984375,1.5
177,-0.80810547,0.043151855,-0.61846924,-0.28125,1.9375,0.78125
178,-0.8059082,0.046081543,-0.64190674,0.203125,1.984375,0.390625
179,-0.8083496,0.053649902,-0.61676025,1.046875,1.453125,0.328125
180,-0.8154297,0.06317139,-0.6382446,-0.46875,1.625,-0.578125
181,-0.80810547,0.059509277,-0.6265259,-0.328125,0.765625,-0.0625
182,-0.80688477,0.06317139,-0.63775635,-0.515625,0.359375,0.15625
183,-0.80908203,0.053894043,-0.6355591,-0.46875,0.765625,0.890625
184,-0.8066406,0.04827881,-0.62335205,-0.5625,0.703125,0.640625
185,-0.81030273,0.05316162,-0.6292114,-0.03125,1.078125,0.890625
186,-0.80126953,0.04925537,-0.6380005,-0.734375,1.015625,0.15625
187,-0.8034668,0.047302246,-0.6223755,-3.015625,1.0,0.0
188,-0.8195801,0.061950684,-0.6265259,-2.359375,2.46875,0.4375
189,-0.8105469,0.050476074,-0.6231079,-1.515625,2.015625,0.265625
190,-0.8112793,0.050964355,-0.62164307,-0.875,0.875,0.234375
191,-0.80615234,0.04901123,-0.6331177,-0.65625,1.078125,1.203125
192,-0.8149414,0.04559326,-0.6182251,-0.203125,0.40625,1.4375
193,-0.81762695,0.049743652,-0.6277466,-0.046875,0.1875,1.234375
194,-0.8178711,0.050476074,-0.6343384,-0.046875,0.6875,0.859375
195,-0.8088379,0.047058105,-0.62945557,-0.234375,0.9375,0.796875
196,-0.81274414,0.042663574,-0.62750244,-0.125,0.859375,0.5625
197,-0.8029785,0.043884277,-0.6326294,-0.4375,0.890625,0.546875
198,-0.80981445,0.04510498,-0.62457275,-0.203125,0.59375,0.078125
199,-0.8088379,0.04559326,-0.6331177,-0.5,0.59375,-0.0625
200,-0.8054199,0.046081543,-0.62164307,-0.578125,-0.59375,-0.6875
201,-0.81103516,0.04559326,-0.6397095,-1.375,-1.46875,-2.515625
202,-0.80688477,0.057556152,-0.6255493,-1.703125,-1.265625,-2.046875
203,-0.7993164,0.054138184,-0.6448364,-1.1875,-1.0,-1.03125
204,-0.8054199,0.050231934,-0.63775635,-0.6875,-0.671875,-0.90625
205,-0.79956055,0.055603027,-0.64141846,-0.796875,-0.078125,-0.75
206,-0.79711914,0.04901123,-0.6470337,-2.421875,0.140625,-1.515625
207,-0.7932129,0.051452637,-0.6321411,-2.46875,-0.46875,-1.234375
208,-0.80200195,0.058288574,-0.6445923,-1.90625,-0.421875,-0.453125
209,-0.79345703,0.050720215,-0.6448364,-0.84375,-0.59375,0.1875
210,-0.80078125,0.050231934,-0.63287354,-0.765625,0.5,-0.53125
211,-0.7939453,0.055603027,-0.63604736,-0.703125,-0.1875,-0.4375
212,-0.8000488,0.054382324,-0.6604614,-1.453125,1.25,-0.109375
213,-0.7980957,0.03753662,-0.66192627,-1.125,1.140625,-0.140625
214,-0.79711914,0.05340576,-0.64385986,-1.5,1.703125,-0.78125
215,-0.7915039,0.054138184,-0.631897,-1.15625,1.5,-0.265625
216,-0.7980957,0.054870605,-0.63775635,-0.59375,0.515625,-0.078125
217,-0.79711914,0.055847168,-0.64678955,-0.34375,0.59375,-0.140625
218,-0.7973633,0.04559326,-0.63775635,-0.09375,0.734375,0.046875
219,-0.7939453,0.05340576,-0.65093994,-0.984375,0.75,-0.078125
220,-0.79663086,0.05267334,-0.64068604,-0.578125,0.953125,0.15625
221,-0.79907227,0.054870605,-0.6543579,-0.53125,0.171875,-0.21875
222,-0.7980957,0.05657959,-0.6416626,-0.421875,0.8125,0.375
223,-0.796875,0.04827881,-0.64508057,-1.21875,1.015625,-0.53125
224,-0.8022461,0.05731201,-0.64312744,-1.078125,1.125,-0.453125
225,-0.7973633,0.054138184,-0.6433716,-1.078125,0.3125,-0.46875
226,-0.80126953,0.05340576,-0.64678955,-1.25,0.109375,0.015625
227,-0.7922363,0.05340576,-0.64923096,-1.09375,-0.125,-0.4375
228,-0.796875,0.055847168,-0.65167236,-1.109375,0.328125,-0.390625
229,-0.7922363,0.053894043,-0.65826416,-1.1875,0.828125,-0.34375
230,-0.79174805,0.06341553,-0.6487427,-1.046875,-0.328125,0.140625
231,-0.7939453,0.06390381,-0.6687622,-0.515625,0.171875,0.6875
232,-0.7890625,0.047546387,-0.6453247,0.359375,-0.203125,0.953125
233,-0.78930664,0.054626465,-0.6560669,0.421875,0.03125,0.59375
234,-0.79956055,0.054382324,-0.65045166,0.546875,1.0,0.578125
235,-0.7883301,0.059509277,-0.65509033,0.71875,1.5625,1.046875
236,-0.79663086,0.051696777,-0.6470337,1.21875,0.625,1.046875
237,-0.7895508,0.054626465,-0.66363525,1.234375,1.03125,1.328125
238,-0.80249023,0.06512451,-0.65948486,1.03125,1.796875,1.078125
239,-0.7976074,0.055603027,-0.6465454,0.890625,2.03125,1.171875
240,-0.80029297,0.05682373,-0.6416626,0.828125,1.75,0.671875
241,-0.7849121,0.054382324,-0.63946533,0.46875,0.625,0.5
242,-0.79345703,0.057556152,-0.6511841,1.3125,0.734375,1.46875
243,-0.795166,0.062683105,-0.6489868,0.53125,0.078125,1.09375
244,-0.8046875,0.06072998,-0.6565552,0.3125,1.34375,0.90625
245,-0.79174805,0.059509277,-0.6404419,0.25,1.765625,0.859375
246,-0.79345703,0.057556152,-0.64068604,0.078125,0.484375,0.390625
247,-0.79956055,0.06951904,-0.6211548,0.171875,0.140625,0.09375
248,-0.7861328,0.05657959,-0.6572876,0.1875,0.328125,0.84375
249,-0.79833984,0.049743652,-0.64508057,0.09375,1.03125,0.46875
250,-0.79541016,0.06365967,-0.644104,0.125,1.078125,0.09375
251,-0.798584,0.06121826,-0.6499634,0.453125,1.140625,-0.09375
252,-0.798584,0.066101074,-0.64630127,-0.21875,1.25,0.171875
253,-0.79541016,0.055114746,-0.63409424,-0.03125,0.734375,-0.09375
254,-0.79345703,0.06585693,-0.647522,-0.125,0.40625,0.796875
255,-0.79711914,0.066345215,-0.63531494,0.296875,1.671875,0.8125
256,-0.7922363,0.062683105,-0.6460571,-0.265625,1.390625,1.3125
257,-0.80126953,0.059265137,-0.6333618,-0.171875,0.875,1.21875
258,-0.79785156,0.07293701,-0.6404419,-0.34375,0.671875,0.796875
259,-0.79541016,0.05633545,-0.6460571,-0.015625,0.328125,0.5625
260,-0.79541016,0.06121826,-0.6499634,-0.296875,0.515625,0.6875
261,-0.8005371,0.058288574,-0.6411743,-0.25,0.859375,0.515625
262,-0.7963867,0.057800293,-0.644104,-0.625,0.828125,0.515625
263,-0.80493164,0.058776855,-0.63848877,-0.28125,0.75,0.609375
264,-0.7988281,0.05731201,-0.6416626,-1.3125,1.203125,0.0
265,-0.8005371,0.05633545,-0.6445923,-1.234375,1.6875,0.234375
266,-0.7927246,0.06536865,-0.644104,-1.234375,2.234375,0.625
267,-0.7937012,0.05316162,-0.642395,-0.25,2.671875,2.09375
268,-0.795166,0.05731201,-0.6382446,-0.96875,1.796875,1.671875
269,-0.8078613,0.051940918,-0.64312744,-0.46875,1.28125,2.015625
270,-0.8100586,0.039733887,-0.6499634,-0.84375,2.25,1.859375
271,-0.80688477,0.043151855,-0.63653564,-0.65625,2.9375,0.875
272,-0.81103516,0.04119873,-0.628479,-0.734375,2.4375,0.15625
273,-0.8078613,0.042419434,-0.6292114,0.015625,1.71875,-0.078125
274,-0.8029785,0.046325684,-0.6279907,0.0,1.046875,-0.28125
275,-0.80126953,0.04486084,-0.6152954,-0.5,0.53125,-0.96875
276,-0.80566406,0.05316162,-0.62945557,-0.65625,-1.109375,-1.09375
277,-0.8071289,0.04876709,-0.6279907,-0.03125,-1.734375,-0.46875
278,-0.80444336,0.05657959,-0.6355591,-1.03125,-1.09375,-0.859375
279,-0.8095703,0.055358887,-0.6260376,-0.4375,-1.109375,-1.109375
280,-0.8022461,0.05340576,-0.6499634,-0.234375,-1.8125,-1.078125
281,-0.8000488,0.05706787,-0.64923096,-0.4375,-0.375,-0.921875
282,-0.7919922,0.055603027,-0.64068604,-0.515625,0.25,-0.90625
283,-0.7902832,0.062194824,-0.6477661,-0.3125,0.109375,-0.578125
284,-0.7866211,0.061462402,-0.6536255,-0.9375,-0.1875,-0.578125
285,-0.7902832,0.066345215,-0.6565552,-1.125,-0.375,0.125
286,-0.7944336,0.061706543,-0.659729,-1.546875,0.546875,-0.15625
287,-0.79785156,0.058288574,-0.6421509,-1.203125,0.3125,-0.28125
288,-0.79296875,0.070007324,-0.66851807,-1.234375,1.484375,-0.75
289,-0.7915039,0.059509277,-0.6499634,-0.78125,1.59375,-0.203125
290,-0.79174805,0.05316162,-0.6494751,-1.59375,1.53125,-0.875
291,-0.7939453,0.05316162,-0.64312744,-1.390625,1.734375,-0.453125
292,-0.7897949,0.05609131,-0.65875244,-0.9375,0.734375,-0.8125
293,-0.79541016,0.06732178,-0.6531372,-0.765625,0.765625,-0.328125
294,-0.79541016,0.066589355,-0.64508057,-1.296875,1.5,-0.203125
295,-0.79052734,0.061950684,-0.6436157,-0.578125,1.140625,0.171875
296,-0.79467773,0.05682373,-0.64678955,-0.671875,0.78125,0.515625
297,-0.7922363,0.06341553,-0.64263916,-0.640625,0.890625,0.265625
298,-0.7902832,0.058044434,-0.64849854,-0.28125,0.59375,0.453125
299,-0.79345703,0.062194824,-0.64385986,0.171875,0.28125,0.703125
300,-0.7998047,0.06561279,-0.64630127,0.546875,0.390625,0.625
301,-0.8054199,0.066589355,-0.64727783,0.34375,0.21875,0.34375
302,-0.79174805,0.06732178,-0.64556885,-0.09375,0.515625,0.03125
303,-0.78637695,0.070495605,-0.6331177,0.859375,1.703125,0.71875
304,-0.7805176,0.06414795,-0.65753174,-0.046875,1.484375,1.21875
305,-0.79785156,0.05731201,-0.64508057,-0.03125,1.640625,1.078125
306,-0.79467773,0.05999756,-0.6470337,0.109375,1.25,0.890625
307,-0.8059082,0.062683105,-0.644104,0.296875,1.59375,0.359375
308,-0.7980957,0.06072998,-0.6448364,0.015625,1.859375,0.984375
309,-0.79248047,0.059020996,-0.64019775,0.015625,1.296875,0.796875
310,-0.7980957,0.054870605,-0.62701416,0.25,0.0625,1.03125
311,-0.79541016,0.055847168,-0.659729,-0.15625,0.5625,0.453125
312,-0.7922363,0.06072998,-0.6362915,-0.03125,0.4375,0.15625
313,-0.80322266,0.06707764,-0.645813,0.03125,-0.796875,-0.078125
314,-0.7976074,0.06707764,-0.6526489,-0.15625,-0.15625,-0.078125
315,-0.7973633,0.062683105,-0.65338135,0.359375,0.765625,0.34375
316,-0.7937012,0.062683105,-0.6531372,-0.3125,1.0625,0.5625
317,-0.7902832,0.058288574,-0.65167236,0.609375,1.0625,0.921875
318,-0.8059082,0.070495605,-0.6543579,-0.125,2.25,1.625
319,-0.7998047,0.05657959,-0.6370239,0.203125,3.15625,1.703125
320,-0.7963867,0.05682373,-0.6460571,0.109375,2.734375,0.9375
321,-0.8005371,0.06414795,-0.62164307,-0.0625,1.765625,0.578125
322,-0.80126953,0.058776855,-0.6399536,-0.203125,1.890625,0.59375
323,-0.80810547,0.06463623,-0.6243286,-0.15625,1.734375,0.8125
324,-0.80810547,0.058288574,-0.63238525,-0.34375,0.9375,0.171875
325,-0.8051758,0.062683105,-0.64678955,-0.375,0.609375,-0.046875
326,-0.8046875,0.06536865,-0.6326294,-0.34375,0.65625,0.421875
327,-0.8051758,0.06512451,-0.6314087,-0.421875,0.453125,0.640625
328,-0.8054199,0.061950684,-0.64190674,-0.4375,0.46875,0.984375
329,-0.8088379,0.06707764,-0.6279907,0.09375,0.359375,1.015625
330,-0.8022461,0.062438965,-0.631897,-0.265625,2.015625,1.1875
331,-0.8066406,0.061706543,-0.62945557,-0.078125,0.953125,1.0625
332,-0.8088379,0.05706787,-0.63946533,0.015625,0.53125,0.765625
333,-0.80371094,0.062683105,-0.63946533,-0.234375,1.46875,0.625
334,-0.80493164,0.05706787,-0.6355591,-0.0625,1.46875,0.578125
335,-0.8034668,0.06121826,-0.63165283,-0.34375,1.484375,0.578125
336,-0.8041992,0.061950684,-0.628479,-0.078125,0.671875,0.875
337,-0.80566406,0.05657959,-0.63848877,-0.1875,0.90625,0.84375
338,-0.8046875,0.058288574,-0.6296997,0.0,0.71875,0.671875
339,-0.81103516,0.05682373,-0.6375122,0.078125,1.03125,0.171875
340,-0.7963867,0.05682373,-0.62677,0.015625,1.828125,0.140625
341,-0.795166,0.053894043,-0.63775635,0.140625,0.375,0.09375
342,-0.8063965,0.062438965,-0.64678955,0.296875,0.875,0.59375
343,-0.8046875,0.059020996,-0.64068604,0.0625,1.25,1.125
344,-0.8017578,0.05682373,-0.63604736,-0.34375,2.578125,0.859375
345,-0.81030273,0.07244873,-0.6326294,-0.625,3.28125,1.328125
346,-0.8156738,0.059753418,-0.6170044,-0.90625,2.59375,1.84375
347,-0.80249023,0.058776855,-0.6177368,-0.65625,0.28125,1.984375
348,-0.81884766,0.05706787,-0.61505127,-0.515625,0.65625,1.296875
349,-0.8095703,0.05291748,-0.63897705,-0.859375,0.703125,1.515625
350,-0.81225586,0.04901123,-0.6177368,-0.6875,0.953125,1.09375
351,-0.81518555,0.047546387,-0.62457275,-0.5,0.625,0.953125
352,-0.80615234,0.043151855,-0.6255493,-0.1875,-0.046875,0.71875
353,-0.8088379,0.04486084,-0.65045166,-0.40625,-0.1875,0.140625
354,-0.80126953,0.04827881,-0.6279907,0.0,1.125,0.78125
355,-0.8059082,0.054870605,-0.6189575,-0.609375,0.15625,0.125
356,-0.81274414,0.046569824,-0.6296997,-0.375,-0.546875,0.6875
357,-0.8039551,0.046569824,-0.63238525,-0.4375,0.0625,0.828125
358,-0.80908203,0.049743652,-0.6375122,-0.515625,0.015625,1.03125
359,-0.8054199,0.053649902,-0.64312744,-0.59375,0.4375,0.71875
360,-0.80322266,0.04510498,-0.6358032,-0.59375,0.78125,0.3125
361,-0.80566406,0.051940918,-0.6265259,-0.09375,1.140625,0.375
362,-0.8027344,0.04852295,-0.6375122,0.578125,0.828125,0.890625
363,-0.80859375,0.046325684,-0.6240845,0.484375,1.46875,1.328125
364,-0.8034668,0.047790527,-0.63653564,-0.25,-0.15625,0.515625
365,-0.8088379,0.051208496,-0.63604736,-0.25,0.109375,0.203125
366,-0.80810547,0.042663574,-0.62384033,-0.421875,0.625,-0.3125
367,-0.80249023,0.047546387,-0.63482666,-0.390625,-0.296875,-0.640625
368,-0.80981445,0.05609131,-0.6350708,0.078125,0.578125,-0.8125
369,-0.8100586,0.055358887,-0.63946533,-0.328125,2.015625,-1.765625
370,-0.80322266,0.055603027,-0.64068604,-0.796875,2.4375,-1.65625
371,-0.8041992,0.059753418,-0.62579346,-0.4375,1.5625,-0.421875
372,-0.8054199,0.05999756,-0.6387329,-0.328125,0.859375,-0.59375
373,-0.81103516,0.057556152,-0.63775635,-0.203125,0.9375,-0.171875
374,-0.80371094,0.058532715,-0.6231079,-0.59375,0.6875,-0.421875
375,-0.80859375,0.0602417,-0.6265259,-0.71875,-0.078125,-0.125
376,-0.8005371,0.054382324,-0.63604736,-0.921875,-1.203125,-0.0625
377,-0.80249023,0.04925537,-0.64190674,-0.59375,-1.140625,0.328125
378,-0.8100586,0.051452637,-0.63238525,-0.734375,-0.734375,-0.578125
379,-0.80249023,0.05609131,-0.63653564,-0.984375,0.109375,-0.9375
380,-0.8039551,0.0602417,-0.6367798,-0.609375,0.71875,-1.140625
381,-0.8071289,0.06097412,-0.62701416,-1.4375,1.84375,-1.828125
382,-0.78515625,0.062194824,-0.63653564,-1.234375,0.640625,-1.34375
383,-0.7944336,0.05731201,-0.64923096,-1.375,0.90625,0.140625
384,-0.79833984,0.05340576,-0.6292114,-1.328125,0.390625,0.21875
385,-0.80249023,0.05340576,-0.64801025,-1.3125,0.125,-0.375
386,-0.8076172,0.05633545,-0.6416626,-1.125,0.828125,-0.765625
387,-0.7988281,0.06317139,-0.6404419,-2.6875,2.015625,-1.453125
388,-0.79907227,0.05999756,-0.6397095,-1.609375,1.0,-0.953125
389,-0.7961426,0.057800293,-0.63653564,-0.578125,0.59375,-0.546875
390,-0.7907715,0.06439209,-0.64801025,-0.640625,0.65625,-0.25
391,-0.8017578,0.06463623,-0.6375122,0.171875,-0.59375,0.65625
392,-0.8034668,0.06512451,-0.64630127,0.328125,-1.046875,0.6875
393,-0.7956543,0.05731201,-0.64678955,0.765625,0.875,0.796875
394,-0.8005371,0.06390381,-0.6531372,0.34375,0.6875,0.453125
395,-0.7998047,0.0680542,-0.6494751,0.234375,1.265625,0.15625
396,-0.79663086,0.06414795,-0.642395,0.25,2.421875,0.484375
397,-0.79248047,0.057800293,-0.62677,0.125,0.890625,0.796875
398,-0.7976074,0.07318115,-0.6375122,0.109375,0.71875,0.875
399,-0.7980957,0.057556152,-0.64508057,-0.125,0.84375,0.5625
400,-0.79418945,0.06512451,-0.63287354,-0.140625,1.53125,0.578125
401,-0.795166,0.06341553,-0.63482666,0.3125,0.234375,0.71875
402,-0.7944336,0.06707764,-0.6482544,-0.140625,0.53125,0.9375
403,-0.8010254,0.054382324,-0.63067627,0.046875,0.34375,0.875
404,-0.7993164,0.062438965,-0.64630127,-0.546875,0.265625,0.046875
405,-0.8046875,0.06512451,-0.63848877,-0.34375,-0.171875,0.46875
406,-0.7902832,0.06854248,-0.65289307,-0.671875,-0.375,0.25
407,-0.78808594,0.055847168,-0.65802,-0.546875,0.34375,0.671875
408,-0.7963867,0.0692749,-0.64141846,-0.203125,0.90625,1.3125
409,-0.7885742,0.059265137,-0.6514282,-0.359375,0.9375,1.03125
410,-0.79589844,0.055358887,-0.644104,-0.15625,1.0,0.5625
411,-0.79956055,0.057556152,-0.65167236,-0.25,0.515625,0.140625
412,-0.79711914,0.062438965,-0.6428833,0.0,0.734375,0.25
413,-0.79589844,0.06561279,-0.6592407,-0.28125,0.34375,-0.140625
414,-0.7988281,0.055358887,-0.6428833,-0.296875,0.921875,0.03125
415,-0.7841797,0.057556152,-0.64385986,-0.875,0.9375,0.25
416,-0.8000488,0.07318115,-0.642395,-0.46875,0.359375,0.75
417,-0.795166,0.06781006,-0.6448364,-0.6875,0.859375,1.078125
418,-0.79833984,0.053649902,-0.64801025,-0.640625,1.171875,0.734375
419,-0.7932129,0.058288574,-0.64971924,-0.75,1.828125,0.5625
420,-0.79003906,0.058044434,-0.6387329,-0.296875,0.921875,0.71875
421,-0.79003906,0.06561279,-0.65948486,-0.75,1.140625,0.65625
422,-0.7885742,0.05731201,-0.6397095,-0.484375,0.921875,0.53125
423,-0.798584,0.05682373,-0.6482544,-0.4375,1.109375,-0.046875
424,-0.7949219,0.058532715,-0.64849854,-0.5625,1.15625,0.015625
425,-0.7988281,0.06097412,-0.6411743,-0.46875,0.65625,0.25
426,-0.80078125,0.055847168,-0.6465454,-0.53125,0.484375,0.078125
427,-0.7963867,0.06317139,-0.64019775,-0.3125,0.46875,0.296875
428,-0.7819824,0.049987793,-0.6494751,-0.609375,0.765625,0.53125
429,-0.79663086,0.058532715,-0.6453247,0.171875,0.96875,0.859375
430,-0.79833984,0.051696777,-0.65045166,-0.375,0.796875,0.421875
431,-0.79785156,0.06097412,-0.6506958,-0.015625,1.078125,0.53125
432,-0.79248047,0.05731201,-0.6477661,-0.21875,0.8125,0.5
433,-0.796875,0.058532715,-0.6511841,-0.171875,1.046875,0.71875
434,-0.7937012,0.062438965,-0.64312744,-0.359375,1.28125,0.53125
435,-0.79248047,0.0602417,-0.64141846,-0.296875,1.625,0.53125
436,-0.7963867,0.05657959,-0.65045166,-0.1875,1.609375,0.921875
437,-0.79833984,0.05657959,-0.6494751,-0.21875,1.4375,1.015625
438,-0.8015137,0.05316162,-0.6331177,-0.3125,1.640625,0.53125
439,-0.8029785,0.05218506,-0.64385986,-0.28125,0.75,0.578125
440,-0.79785156,0.05706787,-0.62042236,0.359375,0.796875,0.328125
441,-0.79907227,0.057800293,-0.6494751,-0.40625,0.625,0.65625
442,-0.7937012,0.045837402,-0.6289673,-0.609375,0.484375,0.125
443,-0.79907227,0.05291748,-0.6470337,-0.734375,1.046875,-0.234375
444,-0.8041992,0.0602417,-0.6392212,-0.4375,1.078125,0.203125
445,-0.8029785,0.055358887,-0.64556885,-0.34375,1.09375,0.140625
446,-0.796875,0.057556152,-0.6411743,0.1875,2.28125,0.8125
447,-0.8029785,0.059265137,-0.6350708,-0.140625,1.96875,0.765625
448,-0.80810547,0.057556152,-0.6309204,0.015625,1.875,0.8125
449,-0.80126953,0.050720215,-0.6248169,0.203125,1.4375,1.296875
450,-0.8054199,0.055358887,-0.6331177,-0.1875,1.109375,0.890625
451,-0.8015137,0.055603027,-0.63775635,-0.375,0.75,0.484375
452,-0.7993164,0.053649902,-0.6411743,-0.453125,0.40625,0.171875
453,-0.8027344,0.05706787,-0.6358032,-0.5625,0.734375,0.0625
454,-0.80029297,0.058776855,-0.6338501,-0.359375,0.125,0.03125
455,-0.8059082,0.066101074,-0.64141846,-0.78125,0.140625,-0.109375
456,-0.8029785,0.054138184,-0.6411743,-0.890625,0.28125,-0.25
457,-0.798584,0.059020996,-0.6375122,-0.96875,-0.375,-0.328125
458,-0.80566406,0.054138184,-0.63604736,-0.90625,0.265625,-0.53125
459,-0.80029297,0.05609131,-0.6421509,-0.90625,0.03125,-0.609375
460,-0.8000488,0.05682373,-0.6460571,-0.875,0.328125,-0.5625
461,-0.7988281,0.054382324,-0.6519165,-1.09375,0.140625,-0.46875
462,-0.7939453,0.06390381,-0.6436157,-0.59375,0.03125,-0.265625
463,-0.8051758,0.06512451,-0.6436157,-0.5625,0.390625,-0.53125
464,-0.8015137,0.054870605,-0.6343384,-1.09375,0.5625,-0.578125
465,-0.80200195,0.059509277,-0.65093994,-0.96875,0.15625,-0.8125
466,-0.795166,0.06732178,-0.64385986,-1.40625,1.125,-0.9375
467,-0.79541016,0.06317139,-0.64849854,-1.234375,1.609375,-0.328125
468,-0.7927246,0.058532715,-0.64971924,-1.25,1.984375,-0.25
469,-0.80249023,0.06561279,-0.6397095,-1.25,0.8125,0.234375
470,-0.8015137,0.06414795,-0.6445923,-0.296875,0.53125,0.5625
471,-0.7988281,0.059753418,-0.64019775,-0.484375,0.640625,0.390625
472,-0.79345703,0.053649902,-0.6375122,-0.875,0.375,-0.140625
473,-0.7910156,0.05633545,-0.6409302,-0.78125,-0.453125,-0.109375
474,-0.79296875,0.058288574,-0.64727783,-1.03125,0.03125,-0.296875
475,-0.79711914,0.057556152,-0.6409302,-1.203125,0.171875,-0.203125
476,-0.7897949,0.062683105,-0.64556885,-0.921875,-0.296875,-0.328125
477,-0.7919922,0.058288574,-0.6511841,-1.1875,-0.375,-0.359375
478,-0.7944336,0.06439209,-0.65509033,-1.078125,0.390625,-0.1875
479,-0.79345703,0.061950684,-0.64678955,-0.953125,-0.28125,-0.015625
480,-0.7897949,0.054382324,-0.6585083,-1.234375,0.15625,-0.328125
481,-0.7976074,0.06854248,-0.63116455,-0.53125,0.34375,-0.171875
482,-0.78271484,0.062194824,-0.65460205,-1.078125,0.609375,0.140625
483,-0.7927246,0.058776855,-0.6487427,-1.1875,1.1875,-0.09375
484,-0.7963867,0.047546387,-0.6482544,-1.640625,0.640625,-0.5
485,-0.79003906,0.06829834,-0.663147,-1.734375,0.609375,-0.96875
486,-0.79052734,0.0524292,-0.64630127,-1.125,0.859375,-0.46875
487,-0.7861328,0.059753418,-0.65631104,-0.640625,0.75,-0.28125
488,-0.78466797,0.06536865,-0.65753174,0.015625,0.109375,0.546875
489,-0.78881836,0.07220459,-0.6555786,0.328125,-0.0625,0.796875
490,-0.7949219,0.057800293,-0.65338135,0.46875,0.171875,0.9375
491,-0.7883301,0.058776855,-0.6604614,-0.90625,1.359375,0.65625
492,-0.7800293,0.061706543,-0.6470337,-0.46875,1.265625,1.15625
493,-0.7890625,0.066345215,-0.6553345,-0.125,-0.046875,0.96875
494,-0.7895508,0.06390381,-0.65631104,0.1875,0.234375,0.984375
495,-0.78515625,0.053894043,-0.6543579,-0.140625,0.921875,0.203125
496,-0.7988281,0.06976318,-0.65802,0.9375,0.765625,0.15625
497,-0.78515625,0.059265137,-0.65948486,0.53125,2.203125,0.265625
498,-0.7890625,0.061462402,-0.64727783,0.3125,0.921875,0.265625
499,-0.7849121,0.055847168,-0.659729,0.0,0.671875,0.1875
500,-0.79589844,0.06781006,-0.628479,-0.25,0.734375,-0.078125
501,-0.78222656,0.06439209,-0.65289307,0.34375,-0.140625,0.71875
502,-0.7939453,0.066345215,-0.6499634,0.015625,0.875,0.625
503,-0.7897949,0.062683105,-0.6489868,-0.171875,0.921875,0.5
504,-0.7932129,0.06878662,-0.6538696,0.125,0.859375,0.359375
505,-0.7861328,0.06365967,-0.65411377,-0.015625,1.4375,0.375
506,-0.7854004,0.06585693,-0.65460205,-0.484375,1.21875,0.09375
507,-0.7873535,0.07318115,-0.6616821,-0.234375,0.921875,0.75
508,-0.7910156,0.066833496,-0.65411377,0.21875,0.28125,1.109375
509,-0.7956543,0.055358887,-0.63775635,0.296875,1.21875,1.203125
510,-0.79003906,0.062438965,-0.65045166,0.015625,0.265625,0.90625
511,-0.7944336,0.06536865,-0.6502075,0.03125,0.8125,0.78125
512,-0.7866211,0.059265137,-0.6555786,-0.1875,0.515625,0.671875
513,-0.7939453,0.06072998,-0.6482544,-0.171875,0.53125,0.625
514,-0.7873535,0.058776855,-0.6526489,-0.375,0.703125,0.5
515,-0.7844238,0.061706543,-0.65753174,-0.34375,0.40625,0.703125
516,-0.7944336,0.061462402,-0.6712036,-0.890625,0.59375,0.5625
517,-0.7878418,0.05657959,-0.6465454,-0.875,1.640625,0.796875
518,-0.7883301,0.05706787,-0.6555786,-1.390625,1.34375,0.015625
519,-0.7902832,0.059020996,-0.6489868,-0.875,1.265625,0.265625
520,-0.78100586,0.055603027,-0.6511841,-0.734375,0.171875,0.03125
521,-0.78564453,0.05731201,-0.659729,-0.53125,0.96875,0.59375
522,-0.7861328,0.061462402,-0.6489868,-0.21875,0.765625,1.0
523,-0.7895508,0.0524292,-0.65509033,-0.421875,1.171875,0.734375
524,-0.7902832,0.057556152,-0.65167236,0.0,0.875,0.6875
525,-0.7949219,0.053894043,-0.65216064,-0.53125,1.078125,0.40625
526,-0.79418945,0.058776855,-0.6499634,-0.1875,0.984375,0.515625
527,-0.7976074,0.05657959,-0.6448364,-0.125,1.0625,0.6875
528,-0.7824707,0.047790527,-0.65997314,-0.4375,1.359375,0.8125
529,-0.796875,0.055114746,-0.6416626,0.015625,1.140625,0.75
530,-0.7890625,0.05633545,-0.65460205,-0.125,0.984375,0.484375
531,-0.7910156,0.054870605,-0.64630127,-0.28125,0.875,0.546875
532,-0.79467773,0.058044434,-0.6519165,-0.3125,0.90625,0.140625
533,-0.7873535,0.054870605,-0.65045166,-0.546875,0.875,0.15625
534,-0.79248047,0.06048584,-0.6487427,-0.25,0.609375,0.140625
535,-0.7897949,0.054870605,-0.65093994,-0.4375,0.859375,0.3125
536,-0.7944336,0.062438965,-0.6416626,-0.671875,1.53125,0.671875
537,-0.7819824,0.047058105,-0.65411377,-1.515625,2.90625,1.3125
538,-0.7836914,0.047058105,-0.631897,-1.765625,1.25,0.921875
539,-0.79418945,0.059509277,-0.645813,-0.96875,-0.078125,0.59375
540,-0.7910156,0.046813965,-0.66851807,-1.28125,0.3125,0.5625
541,-0.7956543,0.04852295,-0.6553345,-0.234375,-0.09375,1.265625
542,-0.7932129,0.04486084,-0.6878052,-0.328125,-0.078125,1.890625
543,-0.78881836,0.039978027,-0.6304321,-0.3125,1.4375,1.859375
544,-0.7788086,0.046569824,-0.64727783,-0.90625,-0.1875,0.625
545,-0.80126953,0.054626465,-0.6511841,-0.625,-0.578125,-0.28125
546,-0.796875,0.0446167,-0.66241455,-0.625,-0.015625,-0.96875
547,-0.7961426,0.055114746,-0.65411377,-0.34375,0.53125,-0.875
548,-0.7727051,0.04095459,-0.6543579,-0.609375,1.1875,-0.390625
549,-0.7895508,0.04925537,-0.647522,-0.171875,0.375,0.609375
550,-0.7895508,0.047790527,-0.64971924,-0.078125,0.015625,-0.078125
551,-0.795166,0.058532715,-0.65948486,-0.265625,0.09375,-0.515625
552,-0.7907715,0.05291748,-0.6519165,-0.359375,-0.375,-0.46875
553,-0.78637695,0.058044434,-0.6646118,-0.03125,-0.375,-0.5
554,-0.79956055,0.05657959,-0.6746216,1.703125,-2.140625,1.109375
555,-0.7697754,0.042663574,-0.65582275,-0.609375,-1.796875,0.890625
556,-0.77685547,0.050720215,-0.6358032,-1.453125,-2.765625,-1.171875
557,-0.7734375,0.057556152,-0.67803955,-2.453125,-2.546875,-2.1875
558,-0.7775879,0.050964355,-0.6687622,-1.671875,0.0625,-1.734375
559,-0.7861328,0.059509277,-0.66192627,-0.921875,1.875,-1.25
560,-0.77612305,0.050476074,-0.6609497,0.359375,1.078125,-1.046875
561,-0.7739258,0.06121826,-0.6670532,0.453125,0.03125,-1.0625
562,-0.7651367,0.06072998,-0.6799927,-0.75,1.265625,-0.59375
563,-0.7675781,0.062927246,-0.6633911,-0.375,1.6875,-0.078125
564,-0.7770996,0.06317139,-0.66729736,-0.625,1.765625,-0.046875
565,-0.7758789,0.06317139,-0.6621704,-0.5625,1.421875,0.125
566,-0.782959,0.044128418,-0.6734009,-1.453125,1.0625,-0.21875
567,-0.77124023,0.06756592,-0.6572876,-1.078125,1.65625,-0.21875
568,-0.77197266,0.06048584,-0.6670532,-1.03125,0.484375,0.234375
569,-0.78686523,0.05633545,-0.6658325,-0.703125,0.296875,-0.453125
570,-0.77197266,0.06048584,-0.6668091,-0.59375,0.703125,-0.046875
571,-0.7824707,0.05316162,-0.6655884,-0.765625,0.0,-0.5
572,-0.7770996,0.06341553,-0.6790161,-0.84375,0.578125,-0.15625
573,-0.7709961,0.05340576,-0.67022705,-0.796875,0.59375,-0.40625
574,-0.77734375,0.070739746,-0.6694946,-0.703125,1.1875,-0.046875
575,-0.77490234,0.06585693,-0.67144775,-0.3125,0.765625,-0.046875
576,-0.7824707,0.061950684,-0.6609497,-0.296875,1.375,0.453125
577,-0.76904297,0.06048584,-0.6675415,-0.5625,1.25,0.234375
578,-0.7780762,0.06390381,-0.6663208,-0.09375,0.6875,0.234375
579,-0.7746582,0.05633545,-0.6782837,-0.046875,0.3125,0.6875
580,-0.7792969,0.07220459,-0.6643677,0.109375,1.109375,0.21875
581,-0.7775879,0.06390381,-0.6626587,0.296875,0.515625,0.21875
582,-0.7758789,0.059753418,-0.65997314,0.3125,0.96875,-0.015625
583,-0.78027344,0.058532715,-0.6687622,-0.375,0.484375,-0.421875
584,-0.78271484,0.05706787,-0.67071533,-1.359375,1.1875,-1.234375
585,-0.77197266,0.070251465,-0.67071533,-0.84375,2.3125,-0.03125
586,-0.7722168,0.058776855,-0.66900635,-0.203125,1.53125,0.5625
587,-0.7766113,0.06463623,-0.6734009,-0.296875,1.296875,0.734375
588,-0.7753906,0.06561279,-0.66290283,0.546875,0.390625,0.96875
589,-0.7849121,0.06414795,-0.6602173,0.296875,1.296875,0.53125
590,-0.7807617,0.061950684,-0.663147,0.0,0.671875,0.421875
591,-0.77783203,0.05999756,-0.65802,-0.09375,0.40625,0.4375
592,-0.7751465,0.06463623,-0.6655884,0.03125,0.421875,0.546875
593,-0.7753906,0.066833496,-0.661438,0.0,0.359375,0.40625
594,-0.7819824,0.059509277,-0.66656494,-0.34375,0.53125,0.3125
595,-0.77783203,0.06951904,-0.6687622,-0.703125,1.15625,0.375
596,-0.78222656,0.07318115,-0.6638794,-0.0625,0.75,0.5
597,-0.77441406,0.06585693,-0.66656494,-0.34375,0.546875,0.40625
598,-0.7824707,0.06756592,-0.66119385,-0.25,0.796875,0.28125
599,-0.77734375,0.06512451,-0.67510986,-0.15625,0.328125,0.703125
600,-0.78564453,0.066345215,-0.6812134,-0.140625,1.046875,0.8125
601,-0.7775879,0.062438965,-0.6675415,-0.5,1.4375,0.328125
602,-0.7873535,0.06488037,-0.6704712,-0.21875,1.328125,0.4375
603,-0.7770996,0.06390381,-0.6621704,-0.3125,1.328125,0.46875
604,-0.78271484,0.066101074,-0.66973877,0.015625,1.421875,0.546875
605,-0.77441406,0.06707764,-0.6555786,-0.421875,1.21875,0.625
606,-0.782959,0.062194824,-0.66290283,-0.046875,0.484375,0.328125
607,-0.7800293,0.06536865,-0.6819458,-0.578125,1.34375,0.078125
608,-0.7819824,0.059020996,-0.6604614,-0.390625,1.40625,0.296875
609,-0.77905273,0.062683105,-0.6658325,-0.046875,0.859375,0.390625
610,-0.78027344,0.06048584,-0.65948486,-0.078125,1.265625,0.65625
611,-0.7780762,0.070495605,-0.67022705,-0.28125,1.359375,0.609375
612,-0.7858887,0.06317139,-0.6609497,0.03125,1.234375,0.8125
613,-0.77441406,0.066833496,-0.659729,-0.625,1.109375,0.25
614,-0.78271484,0.058532715,-0.6555786,-0.21875,0.84375,0.828125
615,-0.7783203,0.06732178,-0.6519165,-0.609375,0.5,0.5
616,-0.7832031,0.061706543,-0.6646118,-0.0625,0.359375,0.75
617,-0.78271484,0.062194824,-0.6616821,-0.453125,0.8125,0.328125
618,-0.7807617,0.06512451,-0.659729,-0.15625,0.328125,0.40625
619,-0.7883301,0.059020996,-0.66607666,-0.25,0.890625,0.46875
620,-0.7854004,0.06121826,-0.66656494,-0.3125,0.859375,0.234375
621,-0.782959,0.06781006,-0.66851807,-0.234375,1.09375,0.171875
622,-0.78027344,0.06561279,-0.6626587,-0.359375,1.015625,0.546875
623,-0.77563477,0.06048584,-0.6565552,-0.484375,0.84375,0.609375
624,-0.7858887,0.05999756,-0.6704712,-0.34375,0.59375,0.890625
625,-0.7836914,0.066101074,-0.6773071,-1.0625,0.921875,0.921875
626,-0.79418945,0.062927246,-0.65631104,-0.4375,1.140625,1.171875
627,-0.7832031,0.0602417,-0.66778564,-0.59375,1.15625,0.546875
628,-0.7849121,0.058288574,-0.6572876,-0.265625,1.171875,0.671875
629,-0.7832031,0.053649902,-0.6609497,0.21875,0.171875,0.625
630,-0.77734375,0.058288574,-0.6729126,-0.046875,0.875,0.234375
631,-0.782959,0.06341553,-0.6626587,-0.328125,1.21875,0.421875
632,-0.7792969,0.062683105,-0.66290283,-0.3125,0.875,0.671875
633,-0.77612305,0.053649902,-0.66412354,-0.578125,0.765625,0.09375
634,-0.7727051,0.05267334,-0.6609497,-0.109375,0.8125,0.578125
635,-0.779541,0.054138184,-0.66290283,-0.25,0.890625,0.5
636,-0.78393555,0.057556152,-0.6651001,-0.34375,1.421875,-0.171875
637,-0.78100586,0.058532715,-0.65997314,-0.515625,1.5,-0.421875
638,-0.7824707,0.070251465,-0.67193604,-0.46875,1.4375,0.109375
639,-0.7788086,0.05999756,-0.6682739,-0.5,2.21875,0.71875
640,-0.7854004,0.05682373,-0.64801025,0.28125,2.0,0.640625
641,-0.78222656,0.06097412,-0.6536255,-0.53125,1.765625,0.125
642,-0.7883301,0.05218506,-0.6536255,-0.109375,0.984375,1.171875
643,-0.78881836,0.06341553,-0.661438,-0.53125,1.1875,1.015625
644,-0.7922363,0.051208496,-0.65289307,-0.34375,1.140625,1.015625
645,-0.78515625,0.05999756,-0.64923096,-0.234375,1.375,0.640625
646,-0.77490234,0.049987793,-0.6651001,-0.640625,1.578125,0.953125
647,-0.78759766,0.057800293,-0.65411377,-0.40625,1.34375,0.78125
648,-0.79125977,0.059509277,-0.647522,0.015625,0.796875,0.671875
649,-0.7902832,0.058776855,-0.663147,-0.375,1.25,0.0625
650,-0.8034668,0.05267334,-0.6567993,-1.578125,2.78125,-0.921875
651,-0.7824707,0.06048584,-0.65582275,-1.734375,2.109375,-0.359375
652,-0.7873535,0.05633545,-0.6448364,-1.28125,0.8125,0.3125
653,-0.79248047,0.051940918,-0.644104,-0.734375,0.15625,0.859375
654,-0.7963867,0.051452637,-0.65875244,-0.71875,0.09375,0.96875
655,-0.8078613,0.051208496,-0.6621704,-0.921875,0.3125,0.203125
656,-0.7963867,0.050964355,-0.6555786,-1.09375,1.78125,-0.1875
657,-0.7807617,0.055603027,-0.64801025,-0.75,1.296875,0.125
658,-0.7858887,0.05340576,-0.64971924,-0.640625,0.8125,0.84375
659,-0.7956543,0.04852295,-0.64556885,-0.125,0.640625,1.078125
660,-0.795166,0.054382324,-0.6538696,-0.84375,0.25,0.09375
661,-0.79589844,0.05291748,-0.6489868,-0.609375,1.171875,-0.4375
662,-0.79248047,0.051208496,-0.63726807,-0.578125,0.078125,-1.140625
663,-0.79003906,0.055358887,-0.6555786,-0.828125,-0.296875,-0.984375
664,-0.79125977,0.051696777,-0.6502075,-0.5625,-0.484375,-0.1875
665,-0.7910156,0.05609131,-0.6592407,-1.109375,0.03125,-0.421875
666,-0.7861328,0.055114746,-0.6602173,-0.6875,-0.375,-0.0625
667,-0.78100586,0.058044434,-0.65167236,-0.421875,-0.625,-0.171875
668,-0.79052734,0.05999756,-0.6592407,-0.28125,-0.265625,-0.1875
669,-0.7907715,0.054138184,-0.6565552,0.140625,-0.03125,-0.109375
670,-0.78149414,0.055603027,-0.6687622,-0.375,0.25,-0.421875
671,-0.7763672,0.059265137,-0.65802,-0.921875,0.265625,-0.28125
672,-0.77734375,0.06097412,-0.6638794,-0.734375,-0.1875,0.03125
673,-0.77490234,0.06561279,-0.6694946,-0.65625,1.109375,0.328125
674,-0.7763672,0.054382324,-0.65704346,0.015625,0.140625,0.5
675,-0.78125,0.062683105,-0.661438,-0.609375,1.015625,-0.203125
676,-0.767334,0.058288574,-0.64434814,0.03125,0.328125,-0.140625
677,-0.7780762,0.059509277,-0.6724243,-0.21875,1.03125,0.625
678,-0.779541,0.04901123,-0.6519165,-0.453125,0.640625,0.71875
679,-0.7788086,0.05267334,-0.6643677,-1.25,0.46875,-0.140625
680,-0.7780762,0.055114746,-0.65509033,-0.890625,-0.046875,-0.1875
681,-0.7763672,0.054382324,-0.65753174,-0.671875,-0.546875,-0.4375
682,-0.77563477,0.055114746,-0.66119385,-0.90625,-0.859375,-0.765625
683,-0.7753906,0.058532715,-0.66070557,-0.8125,-0.75,-0.71875
684,-0.7651367,0.070251465,-0.6734009,-0.546875,-0.59375,-0.4375
685,-0.7770996,0.05706787,-0.66412354,-0.140625,0.734375,0.4375
686,-0.7734375,0.062438965,-0.67559814,-0.578125,0.296875,0.125
687,-0.76782227,0.059265137,-0.66290283,-0.59375,-0.15625,0.046875
688,-0.7705078,0.06488037,-0.678772,-0.25,-0.171875,0.234375
689,-0.7734375,0.057800293,-0.67266846,-0.3125,0.53125,0.234375
690,-0.76904297,0.06072998,-0.6716919,-0.1875,0.453125,0.53125
691,-0.7722168,0.06439209,-0.6748657,-0.015625,0.796875,0.65625
692,-0.76708984,0.0524292,-0.6694946,0.0625,-0.265625,0.515625
693,-0.7675781,0.05657959,-0.6917114,-0.390625,0.328125,0.390625
694,-0.78271484,0.06414795,-0.66851807,0.203125,0.625,0.28125
695,-0.77612305,0.05706787,-0.6873169,0.21875,1.546875,0.28125
696,-0.782959,0.046325684,-0.6843872,0.515625,1.265625,-0.609375
697,-0.76342773,0.08343506,-0.6712036,0.109375,2.828125,-0.65625
698,-0.7583008,0.070007324,-0.6589966,-0.296875,2.75,1.109375
699,-0.7734375,0.06781006,-0.65753174,-0.046875,0.15625,1.328125
700,-0.7836914,0.06561279,-0.6826782,0.046875,0.546875,1.5
701,-0.7763672,0.062194824,-0.6826782,-0.03125,3.421875,1.328125
702,-0.7709961,0.057556152,-0.6790161,0.15625,3.375,1.390625
703,-0.77001953,0.05340576,-0.6577759,-0.234375,2.375,1.171875
704,-0.782959,0.06878662,-0.66851807,-0.375,1.140625,0.640625
705,-0.78393555,0.059020996,-0.659729,0.046875,0.328125,1.03125
706,-0.78808594,0.062927246,-0.6609497,-0.25,0.9375,-0.109375
707,-0.77978516,0.066589355,-0.6646118,-0.59375,0.578125,0.296875
708,-0.76831055,0.061706543,-0.663147,-0.96875,0.1875,0.140625
709,-0.7783203,0.06097412,-0.68341064,-0.796875,-0.390625,0.140625
710,-0.77612305,0.05291748,-0.6609497,-0.28125,0.65625,-0.25
711,-0.7741699,0.06903076,-0.6860962,-0.671875,0.484375,0.625
712,-0.77368164,0.062438965,-0.6777954,-0.53125,1.5625,0.609375
713,-0.7841797,0.057800293,-0.66729736,0.0,1.203125,0.734375
714,-0.77124023,0.058044434,-0.66973877,-0.234375,0.609375,0.015625
715,-0.77734375,0.062194824,-0.6633911,-0.109375,1.1875,0.359375
716,-0.7722168,0.0680542,-0.6663208,-0.4375,1.03125,0.265625
717,-0.7714844,0.059265137,-0.7149048,-0.078125,-1.640625,0.875
718,-0.7648926,0.059020996,-0.64190674,-1.0,1.1875,0.890625
719,-0.7631836,0.06121826,-0.6777954,-0.796875,1.265625,1.515625
720,-0.782959,0.051940918,-0.64630127,-0.0625,0.8125,1.15625
721,-0.7817383,0.058288574,-0.65802,-0.3125,0.921875,-0.046875
722,-0.779541,0.054626465,-0.6638794,0.0625,0.765625,-0.421875
723,-0.76782227,0.06048584,-0.6782837,-0.09375,1.125,0.09375
724,-0.7729492,0.055603027,-0.65509033,-0.1875,0.734375,0.046875
725,-0.7775879,0.057556152,-0.6799927,-0.5,0.28125,0.234375
726,-0.77612305,0.062927246,-0.6602173,-0.40625,0.40625,0.375
727,-0.7763672,0.055358887,-0.6748657,-0.3125,0.609375,0.34375
728,-0.7805176,0.066589355,-0.6489868,-0.046875,1.59375,0.15625
729,-0.77563477,0.051208496,-0.6658325,-0.0625,1.78125,1.25
730,-0.77734375,0.054626465,-0.66973877,-0.21875,1.828125,0.71875
731,-0.78027344,0.05682373,-0.659729,-0.578125,1.171875,0.453125
732,-0.78637695,0.06463623,-0.67510986,-0.40625,1.15625,0.390625
733,-0.78344727,0.051208496,-0.6499634,-0.8125,1.390625,0.796875
734,-0.7807617,0.06097412,-0.67755127,-0.875,1.3125,0.015625
735,-0.7832031,0.059020996,-0.6555786,-0.15625,0.640625,0.15625
736,-0.782959,0.062683105,-0.66070557,0.0,0.921875,0.140625
737,-0.7746582,0.05291748,-0.6668091,-0.8125,1.828125,-0.375
738,-0.7714844,0.047546387,-0.6538696,-0.265625,1.4375,-0.015625
739,-0.7973633,0.050720215,-0.6704712,-0.90625,2.546875,-1.0625
740,-0.78344727,0.066345215,-0.65948486,0.875,3.078125,-0.40625
741,-0.7819824,0.059509277,-0.64971924,1.625,3.265625,-1.125
742,-0.7861328,0.07342529,-0.6626587,0.515625,3.03125,-1.75
743,-0.77685547,0.05706787,-0.6248169,0.171875,0.5625,-0.484375
744,-0.7956543,0.06951904,-0.6687622,-0.328125,1.9375,0.46875
745,-0.79003906,0.05682373,-0.612854,0.03125,1.328125,0.40625
746,-0.7927246,0.07513428,-0.663147,-0.921875,1.140625,0.421875
747,-0.78930664,0.06463623,-0.63848877,-0.78125,0.265625,0.953125
748,-0.7878418,0.06903076,-0.6604614,-1.546875,0.53125,0.21875
749,-0.795166,0.070251465,-0.64923096,-1.1875,0.671875,0.484375
