sample_no,accel_x,accel_y,accel_z,gyro_x,gyro_y,gyro_z
0,-0.43896484,-0.10479736,-0.87457275,-0.015625,-0.34375,0.296875
1,-0.4428711,-0.09869385,-0.87164307,-0.109375,-0.09375,0.140625
2,-0.44018555,-0.101623535,-0.8711548,-0.046875,-0.25,0.203125
3,-0.43286133,-0.09503174,-0.8687134,0.1875,-0.40625,0.140625
4,-0.43481445,-0.09844971,-0.866272,-0.03125,-0.46875,0.140625
5,-0.44067383,-0.09649658,-0.86602783,-0.09375,-0.4375,-0.015625
6,-0.44384766,-0.10089111,-0.8735962,-0.03125,-0.375,0.203125
7,-0.43920898,-0.09967041,-0.86846924,-0.046875,-0.46875,0.140625
8,-0.43774414,-0.10064697,-0.8699341,-0.21875,-0.3125,0.28125
9,-0.43920898,-0.09893799,-0.8665161,0.234375,-0.359375,0.234375
10,-0.43920898,-0.09454346,-0.8670044,0.015625,-0.671875,0.15625
11,-0.4416504,-0.10211182,-0.87091064,0.0,-0.46875,0.15625
12,-0.4404297,-0.09576416,-0.8682251,-0.171875,-0.375,0.1875
13,-0.43847656,-0.09893799,-0.8670044,-0.078125,-0.390625,0.28125
14,-0.43603516,-0.101379395,-0.86602783,-0.078125,-0.265625,0.296875
15,-0.44384766,-0.10211182,-0.87164307,-0.140625,-0.359375,0.125
16,-0.43896484,-0.10284424,-0.86724854,-0.21875,-0.109375,0.140625
17,-0.44018555,-0.08917236,-0.8713989,-0.046875,-0.453125,0.171875
18,-0.4326172,-0.093566895,-0.87091064,-0.265625,-0.484375,0.09375
19,-0.43920898,-0.09503174,-0.86968994,-0.125,-0.609375,0.234375
20,-0.4440918,-0.09942627,-0.8731079,0.0,-0.546875,0.1875
21,-0.43774414,-0.10357666,-0.86968994,-0.125,-0.609375,0.265625
22,-0.43823242,-0.101135254,-0.86798096,-0.046875,-0.5625,0.265625
23,-0.4375,-0.10015869,-0.8718872,-0.21875,-0.5,0.171875
24,-0.43408203,-0.10040283,-0.87384033,-0.1875,-0.328125,0.3125
25,-0.4375,-0.0960083,-0.86260986,-0.09375,-0.359375,0.1875
26,-0.4404297,-0.0960083,-0.86724854,-0.1875,-0.328125,0.203125
27,-0.43945312,-0.10479736,-0.8687134,-0.1875,-0.5625,0.1875
28,-0.4440918,-0.10040283,-0.8648071,-0.34375,-0.390625,0.125
29,-0.44140625,-0.10015869,-0.866272,-0.234375,-0.359375,0.25
30,-0.43945312,-0.10089111,-0.86383057,-0.203125,-0.40625,0.015625
31,-0.4411621,-0.10601807,-0.86920166,-0.234375,-0.375,0.1875
32,-0.4411621,-0.101379395,-0.86798096,-0.28125,-0.5625,0.234375
33,-0.43969727,-0.10040283,-0.8682251,-0.140625,-0.671875,0.125
34,-0.43945312,-0.10308838,-0.8670044,-0.25,-0.59375,0.109375
35,-0.44384766,-0.10040283,-0.8740845,-0.40625,-0.453125,0.125
36,-0.44067383,-0.10284424,-0.87042236,-0.25,-0.515625,0.234375
37,-0.4362793,-0.10211182,-0.8670044,-0.0625,-0.40625,0.234375
38,-0.4375,-0.097717285,-0.8670044,-0.1875,-0.375,0.21875
39,-0.43774414,-0.10235596,-0.87091064,-0.171875,-0.71875,0.171875
40,-0.43554688,-0.1038208,-0.8701782,-0.328125,-0.515625,0.171875
41,-0.43920898,-0.10308838,-0.87042236,-0.328125,-0.375,0.125
42,-0.43408203,-0.10772705,-0.8706665,-0.453125,-0.734375,0.25
43,-0.4387207,-0.10479736,-0.866272,-0.125,-0.328125,0.25
44,-0.43603516,-0.105285645,-0.8699341,0.015625,-0.703125,0.15625
45,-0.43774414,-0.10235596,-0.86920166,-0.015625,-0.65625,0.09375
46,-0.43774414,-0.105285645,-0.8677368,-0.109375,-0.59375,0.1875
47,-0.4428711,-0.105773926,-0.8635864,-0.09375,-0.53125,0.109375
48,-0.44433594,-0.10406494,-0.87042236,-0.328125,-0.4375,0.3125
49,-0.4387207,-0.10284424,-0.8677368,-0.15625,-0.359375,0.078125
50,-0.44067383,-0.10748291,-0.8711548,-0.296875,-0.390625,0.3125
51,-0.4350586,-0.10650635,-0.8682251,-0.28125,-0.484375,0.140625
52,-0.43603516,-0.10845947,-0.86676025,-0.1875,-0.546875,0.03125
53,-0.43188477,-0.10040283,-0.8701782,-0.296875,-0.375,0.203125
54,-0.43652344,-0.10601807,-0.8670044,-0.15625,-0.625,0.265625
55,-0.43847656,-0.10699463,-0.8701782,-0.125,-0.515625,0.28125
56,-0.4326172,-0.10015869,-0.86724854,-0.203125,-0.4375,0.28125
57,-0.4350586,-0.093322754,-0.8701782,-0.03125,-0.71875,0.25
58,-0.4440918,-0.10748291,-0.8694458,-0.140625,-0.53125,0.359375
59,-0.43969727,-0.09820557,-0.8648071,0.015625,-0.34375,0.03125
60,-0.44067383,-0.10870361,-0.8677368,-0.234375,-0.453125,0.046875
61,-0.4326172,-0.10333252,-0.8665161,-0.046875,-0.375,0.28125
62,-0.43774414,-0.10211182,-0.864563,-0.0625,-0.5,0.25
63,-0.43603516,-0.105773926,-0.8677368,0.0,-0.484375,0.1875
64,-0.43652344,-0.10015869,-0.8694458,0.03125,-0.59375,0.171875
65,-0.43554688,-0.10284424,-0.8674927,-0.0625,-0.5,0.25
66,-0.4362793,-0.10455322,-0.8718872,-0.140625,-0.421875,0.0
67,-0.43286133,-0.10211182,-0.8706665,-0.0625,-0.421875,0.09375
68,-0.4350586,-0.10675049,-0.86724854,0.015625,-0.21875,0.21875
69,-0.43286133,-0.10601807,-0.8694458,0.015625,-0.453125,0.25
70,-0.43823242,-0.10333252,-0.8682251,0.125,-0.515625,0.3125
71,-0.43701172,-0.105773926,-0.86968994,-0.09375,-0.328125,0.109375
72,-0.43115234,-0.10723877,-0.8689575,0.046875,-0.6875,0.15625
73,-0.4387207,-0.1038208,-0.8665161,0.171875,-0.484375,0.109375
74,-0.43237305,-0.1026001,-0.8699341,0.109375,-0.59375,0.15625
75,-0.43701172,-0.10040283,-0.86505127,-0.03125,-0.390625,0.125
76,-0.43286133,-0.097473145,-0.8701782,0.0,-0.421875,0.25
77,-0.43945312,-0.10064697,-0.8701782,0.109375,-0.25,0.171875
78,-0.43603516,-0.09991455,-0.87335205,-0.1875,-0.34375,0.203125
79,-0.43896484,-0.10406494,-0.8694458,0.0625,-0.140625,0.1875
80,-0.4326172,-0.1038208,-0.8687134,0.15625,-0.359375,0.28125
81,-0.4362793,-0.101135254,-0.8665161,0.109375,-0.5,0.171875
82,-0.43432617,-0.10455322,-0.87335205,0.109375,-0.53125,0.15625
83,-0.4387207,-0.10430908,-0.86602783,0.15625,-0.484375,0.109375
84,-0.4399414,-0.101379395,-0.8674927,0.078125,-0.515625,0.109375
85,-0.43920898,-0.09991455,-0.8699341,0.09375,-0.390625,0.234375
86,-0.43408203,-0.097717285,-0.86968994,0.046875,-0.484375,0.15625
87,-0.43774414,-0.09674072,-0.8687134,-0.046875,-0.40625,0.1875
88,-0.4362793,-0.10675049,-0.8657837,0.0,-0.3125,0.40625
89,-0.43359375,-0.093566895,-0.8682251,0.140625,-0.4375,0.09375
90,-0.43432617,-0.09698486,-0.86920166,-0.078125,-0.296875,0.203125
91,-0.4399414,-0.097961426,-0.8711548,-0.015625,-0.234375,0.21875
92,-0.43603516,-0.09918213,-0.86260986,0.234375,-0.546875,0.15625
93,-0.43603516,-0.09991455,-0.8623657,0.0625,-0.40625,0.265625
94,-0.43823242,-0.10040283,-0.86505127,0.0625,-0.390625,0.078125
95,-0.44067383,-0.101379395,-0.8711548,-0.078125,-0.375,0.203125
96,-0.4326172,-0.09234619,-0.86920166,0.0,-0.46875,0.203125
97,-0.43676758,-0.10015869,-0.86920166,-0.046875,-0.34375,0.203125
98,-0.4399414,-0.10064697,-0.8718872,0.046875,-0.375,0.1875
99,-0.4428711,-0.097229004,-0.8694458,-0.0625,-0.53125,0.328125
100,-0.4350586,-0.09942627,-0.86309814,0.03125,-0.34375,0.125
101,-0.4338379,-0.09893799,-0.87164307,0.046875,-0.328125,0.21875
102,-0.43920898,-0.093322754,-0.8665161,0.015625,-0.265625,0.140625
103,-0.43188477,-0.097717285,-0.86798096,-0.109375,-0.25,0.109375
104,-0.4404297,-0.10357666,-0.8699341,0.03125,-0.40625,0.078125
105,-0.4375,-0.09942627,-0.86553955,-0.0625,-0.46875,0.203125
106,-0.4440918,-0.10015869,-0.87384033,0.03125,-0.359375,0.203125
107,-0.4399414,-0.09967041,-0.8623657,0.03125,-0.34375,0.25
108,-0.4416504,-0.09698486,-0.87164307,-0.234375,-0.328125,0.109375
109,-0.44262695,-0.10064697,-0.8657837,-0.09375,-0.5,0.21875
110,-0.43701172,-0.09942627,-0.8706665,0.109375,-0.265625,0.125
111,-0.43896484,-0.09942627,-0.864563,0.0625,-0.40625,0.203125
112,-0.44018555,-0.09942627,-0.86431885,-0.140625,-0.5,0.171875
113,-0.4404297,-0.09649658,-0.8699341,-0.078125,-0.34375,0.15625
114,-0.43945312,-0.09893799,-0.8633423,-0.0625,-0.390625,0.234375
115,-0.44262695,-0.09991455,-0.8694458,-0.234375,-0.578125,0.265625
116,-0.4404297,-0.105041504,-0.86187744,0.0625,-0.375,0.25
117,-0.4423828,-0.09991455,-0.87384033,0.0,-0.4375,0.21875
118,-0.4375,-0.093566895,-0.8706665,0.0,-0.4375,0.265625
119,-0.4416504,-0.10015869,-0.8713989,-0.015625,-0.34375,0.234375
120,-0.43798828,-0.09503174,-0.866272,-0.09375,-0.328125,0.09375
121,-0.43920898,-0.09967041,-0.8633423,-0.125,-0.375,0.203125
122,-0.44482422,-0.09185791,-0.86602783,-0.0625,-0.328125,0.25
123,-0.4375,-0.09283447,-0.8674927,-0.125,-0.453125,0.234375
124,-0.43945312,-0.09820557,-0.87042236,-0.171875,-0.578125,0.25
125,-0.44384766,-0.10333252,-0.8731079,-0.015625,-0.34375,0.109375
126,-0.4362793,-0.09259033,-0.86920166,-0.078125,-0.34375,0.203125
127,-0.4411621,-0.09259033,-0.86798096,0.015625,-0.375,0.15625
128,-0.4428711,-0.09967041,-0.8701782,-0.1875,-0.46875,0.1875
129,-0.44189453,-0.101623535,-0.86676025,0.109375,-0.46875,0.09375
130,-0.44433594,-0.101867676,-0.8687134,-0.015625,-0.609375,0.03125
131,-0.4362793,-0.093322754,-0.86553955,-0.015625,-0.546875,0.140625
132,-0.4375,-0.101379395,-0.8711548,-0.015625,-0.484375,0.21875
133,-0.4399414,-0.09820557,-0.8706665,0.046875,-0.296875,0.0625
134,-0.44189453,-0.101867676,-0.86431885,0.015625,-0.296875,0.34375
135,-0.43823242,-0.105285645,-0.87042236,-0.140625,-0.359375,0.125
136,-0.4411621,-0.09820557,-0.86431885,-0.109375,-0.390625,0.21875
137,-0.44384766,-0.09918213,-0.86676025,0.03125,-0.625,0.21875
138,-0.4326172,-0.101623535,-0.87506104,-0.09375,-0.453125,0.125
139,-0.4428711,-0.09942627,-0.8687134,-0.15625,-0.5625,0.109375
140,-0.43823242,-0.101623535,-0.8640747,-0.15625,-0.484375,0.078125
141,-0.44628906,-0.09844971,-0.8682251,0.046875,-0.3125,0.140625
142,-0.4428711,-0.10040283,-0.866272,-0.171875,-0.484375,0.140625
143,-0.44018555,-0.09893799,-0.86920166,-0.1875,-0.484375,0.234375
144,-0.4411621,-0.09088135,-0.8670044,-0.078125,-0.328125,0.140625
145,-0.43725586,-0.10211182,-0.8694458,-0.15625,-0.328125,0.1875
146,-0.44213867,-0.10064697,-0.861145,0.03125,-0.46875,0.15625
147,-0.44384766,-0.09967041,-0.8753052,-0.265625,-0.40625,0.234375
148,-0.44067383,-0.09942627,-0.8616333,-0.078125,-0.359375,0.1875
149,-0.43701172,-0.09820557,-0.87213135,0.09375,-0.484375,0.15625
150,-0.43945312,-0.09869385,-0.8670044,0.0,-0.390625,0.25
151,-0.4428711,-0.09454346,-0.87579346,-0.078125,-0.46875,0.140625
152,-0.44213867,-0.09527588,-0.866272,-0.09375,-0.296875,0.0625
153,-0.4399414,-0.09844971,-0.86431885,-0.0625,-0.421875,0.15625
154,-0.4416504,-0.09454346,-0.87091064,-0.359375,-0.625,0.296875
155,-0.43530273,-0.09674072,-0.8652954,-0.1875,-0.296875,0.234375
156,-0.43920898,-0.101379395,-0.86724854,-0.078125,-0.375,0.21875
157,-0.4453125,-0.093811035,-0.8711548,-0.203125,-0.53125,0.1875
158,-0.4465332,-0.09234619,-0.87213135,-0.21875,-0.4375,0.203125
159,-0.43823242,-0.105285645,-0.864563,-0.3125,-0.375,0.171875
160,-0.4404297,-0.09820557,-0.86676025,-0.21875,-0.375,0.265625
161,-0.44311523,-0.097229004,-0.8623657,-0.265625,-0.40625,0.0625
162,-0.44311523,-0.097717285,-0.8665161,-0.25,-0.453125,0.296875
163,-0.4428711,-0.10015869,-0.86431885,-0.203125,-0.4375,0.234375
164,-0.44335938,-0.09698486,-0.86798096,-0.265625,-0.328125,0.234375
165,-0.4416504,-0.09991455,-0.86260986,-0.328125,-0.328125,0.140625
166,-0.43725586,-0.09625244,-0.86065674,-0.25,-0.453125,0.078125
167,-0.44677734,-0.10040283,-0.8621216,-0.328125,-0.34375,0.140625
168,-0.44213867,-0.10699463,-0.8623657,-0.140625,-0.625,0.171875
169,-0.44262695,-0.10064697,-0.864563,-0.09375,-0.453125,0.046875
170,-0.4411621,-0.09942627,-0.86724854,-0.234375,-0.5,0.140625
171,-0.44018555,-0.1026001,-0.8701782,-0.125,-0.59375,0.109375
172,-0.43847656,-0.10406494,-0.8706665,-0.375,-0.53125,0.09375
173,-0.44628906,-0.09307861,-0.8701782,-0.046875,-0.375,0.140625
174,-0.44189453,-0.10089111,-0.8694458,-0.171875,-0.375,0.140625
175,-0.43945312,-0.10675049,-0.8674927,-0.140625,-0.375,0.25
176,-0.43920898,-0.101379395,-0.86383057,-0.03125,-0.484375,0.09375
177,-0.44628906,-0.09918213,-0.8665161,-0.078125,-0.4375,0.140625
178,-0.43945312,-0.101623535,-0.86602783,-0.3125,-0.453125,0.171875
179,-0.44628906,-0.097961426,-0.86431885,-0.375,-0.46875,0.15625
180,-0.44311523,-0.09918213,-0.8657837,0.015625,-0.5625,0.15625
181,-0.44018555,-0.10064697,-0.86505127,-0.109375,-0.46875,0.09375
182,-0.43530273,-0.109191895,-0.8706665,0.03125,-0.640625,0.328125
183,-0.4404297,-0.10455322,-0.86431885,-0.21875,-0.375,0.25
184,-0.43823242,-0.09844971,-0.86260986,-0.234375,-0.40625,0.28125
185,-0.4345703,-0.10357666,-0.8652954,-0.03125,-0.421875,0.15625
186,-0.4428711,-0.09918213,-0.86260986,-0.1875,-0.375,0.09375
187,-0.43676758,-0.10626221,-0.8652954,0.015625,-0.578125,0.1875
188,-0.43823242,-0.105529785,-0.8711548,-0.015625,-0.5,0.1875
189,-0.4387207,-0.09820557,-0.86602783,-0.078125,-0.3125,0.078125
190,-0.44067383,-0.09942627,-0.86383057,-0.03125,-0.59375,0.109375
191,-0.44213867,-0.09820557,-0.8694458,0.015625,-0.34375,0.15625
192,-0.43701172,-0.10235596,-0.86260986,-0.046875,-0.53125,0.109375
193,-0.4416504,-0.09674072,-0.8670044,-0.28125,-0.328125,0.078125
194,-0.43847656,-0.101623535,-0.86383057,0.015625,-0.296875,0.21875
195,-0.43896484,-0.097961426,-0.8713989,0.046875,-0.65625,0.296875
196,-0.43823242,-0.10357666,-0.8701782,0.015625,-0.390625,0.203125
197,-0.4440918,-0.097473145,-0.86505127,-0.0625,-0.390625,0.203125
198,-0.43774414,-0.0960083,-0.8652954,0.0,-0.53125,0.125
199,-0.4399414,-0.10284424,-0.86431885,-0.21875,-0.3125,0.078125
200,-0.43969727,-0.10455322,-0.87164307,-0.03125,-0.4375,0.1875
201,-0.4362793,-0.10455322,-0.8633423,-0.078125,-0.5625,0.203125
202,-0.43896484,-0.10211182,-0.8677368,0.0,-0.640625,0.15625
203,-0.43603516,-0.10723877,-0.87042236,0.109375,-0.546875,0.234375
204,-0.4362793,-0.10284424,-0.8665161,-0.015625,-0.5625,0.109375
205,-0.43554688,-0.10089111,-0.86724854,-0.078125,-0.453125,0.140625
206,-0.43847656,-0.09698486,-0.86260986,-0.03125,-0.421875,0.265625
207,-0.44555664,-0.10089111,-0.86138916,0.15625,-0.375,0.09375
208,-0.4399414,-0.10089111,-0.87286377,0.015625,-0.359375,0.234375
209,-0.4404297,-0.10845947,-0.8670044,0.0,-0.53125,0.21875
210,-0.44140625,-0.101867676,-0.8648071,0.109375,-0.4375,0.15625
211,-0.4404297,-0.09967041,-0.87091064,-0.03125,-0.453125,0.09375
212,-0.4411621,-0.10479736,-0.8694458,-0.0625,-0.5,0.265625
213,-0.44091797,-0.10089111,-0.86553955,0.140625,-0.484375,0.265625
214,-0.44018555,-0.10284424,-0.86724854,0.109375,-0.5,0.21875
215,-0.44213867,-0.10284424,-0.8682251,-0.015625,-0.546875,0.234375
216,-0.4423828,-0.09698486,-0.8633423,0.015625,-0.4375,0.234375
217,-0.43701172,-0.10211182,-0.8687134,0.0,-0.375,0.25
218,-0.43798828,-0.09991455,-0.86724854,0.015625,-0.453125,0.1875
219,-0.44189453,-0.09576416,-0.86383057,-0.125,-0.421875,0.203125
220,-0.44067383,-0.10089111,-0.8713989,0.0,-0.46875,0.15625
221,-0.44213867,-0.097473145,-0.8755493,0.109375,-0.53125,0.203125
222,-0.44433594,-0.09259033,-0.8699341,0.15625,-0.46875,0.21875
223,-0.4428711,-0.097717285,-0.8706665,0.078125,-0.25,0.203125
224,-0.43432617,-0.09454346,-0.8711548,-0.171875,-0.421875,0.046875
225,-0.43823242,-0.09942627,-0.8689575,-0.015625,-0.28125,0.28125
226,-0.4428711,-0.10308838,-0.8711548,0.140625,-0.4375,0.09375
227,-0.44384766,-0.09820557,-0.8706665,0.078125,-0.328125,0.125
228,-0.43969727,-0.09674072,-0.8699341,-0.078125,-0.46875,0.1875
229,-0.4416504,-0.09820557,-0.86260986,0.015625,-0.5625,0.140625
230,-0.43847656,-0.101379395,-0.8665161,-0.046875,-0.3125,0.265625
231,-0.4465332,-0.09503174,-0.87823486,-0.109375,-0.359375,0.1875
232,-0.4423828,-0.10284424,-0.86798096,0.0,-0.375,0.09375
233,-0.44018555,-0.09918213,-0.86602783,-0.09375,-0.546875,0.1875
234,-0.4428711,-0.09185791,-0.8682251,-0.0625,-0.578125,0.15625
235,-0.43920898,-0.09649658,-0.86724854,0.0625,-0.3125,0.203125
236,-0.4345703,-0.09576416,-0.8753052,-0.25,-0.359375,0.296875
237,-0.4375,-0.10211182,-0.862854,-0.09375,-0.40625,0.203125
238,-0.4350586,-0.09893799,-0.86724854,-0.015625,-0.390625,0.203125
239,-0.4440918,-0.09503174,-0.8706665,-0.125,-0.5,0.1875
240,-0.44604492,-0.097473145,-0.86431885,-0.09375,-0.375,0.203125
241,-0.43896484,-0.09942627,-0.8689575,-0.015625,-0.40625,0.203125
242,-0.4411621,-0.09820557,-0.86602783,-0.109375,-0.203125,0.125
243,-0.43652344,-0.09918213,-0.8621216,-0.078125,-0.28125,0.296875
244,-0.43579102,-0.09649658,-0.86431885,-0.015625,-0.484375,0.234375
245,-0.4411621,-0.097473145,-0.8726196,-0.109375,-0.5625,0.15625
246,-0.43725586,-0.101623535,-0.86553955,-0.046875,-0.171875,0.265625
247,-0.44213867,-0.097229004,-0.86383057,0.1875,-0.40625,0.125
248,-0.44067383,-0.10211182,-0.8609009,-0.171875,-0.28125,0.125
249,-0.43847656,-0.10235596,-0.8648071,-0.078125,-0.421875,0.203125
250,-0.43823242,-0.09210205,-0.866272,-0.125,-0.375,0.21875
251,-0.4411621,-0.097961426,-0.8694458,-0.234375,-0.390625,0.1875
252,-0.44189453,-0.0960083,-0.8699341,-0.40625,-0.578125,0.171875
253,-0.43969727,-0.09283447,-0.86724854,-0.0625,-0.265625,0.171875
254,-0.44555664,-0.09918213,-0.86505127,0.140625,-0.546875,0.125
255,-0.44360352,-0.09844971,-0.8743286,-0.015625,-0.40625,0.125
256,-0.4423828,-0.09454346,-0.8706665,-0.1875,-0.234375,0.1875
257,-0.43847656,-0.09649658,-0.87286377,-0.21875,-0.46875,0.234375
258,-0.4453125,-0.0960083,-0.86724854,-0.125,-0.296875,0.203125
259,-0.43920898,-0.09503174,-0.86553955,0.015625,-0.40625,0.203125
260,-0.44384766,-0.09454346,-0.86968994,0.0,-0.390625,0.328125
261,-0.43920898,-0.09844971,-0.86602783,-0.140625,-0.5,0.296875
262,-0.44213867,-0.09527588,-0.8640747,0.03125,-0.5,0.109375
263,-0.44458008,-0.094055176,-0.86920166,-0.09375,-0.390625,0.109375
264,-0.4423828,-0.10040283,-0.862854,-0.09375,-0.5,0.171875
265,-0.4465332,-0.101867676,-0.86431885,-0.0625,-0.5,0.140625
266,-0.44091797,-0.093566895,-0.866272,-0.15625,-0.46875,0.234375
267,-0.4416504,-0.09918213,-0.86920166,-0.15625,-0.5,0.234375
268,-0.4423828,-0.09991455,-0.8726196,0.015625,-0.484375,0.078125
269,-0.4404297,-0.097229004,-0.8670044,-0.171875,-0.4375,0.234375
270,-0.44262695,-0.093322754,-0.8689575,-0.078125,-0.421875,0.1875
271,-0.43945312,-0.10064697,-0.8652954,0.0,-0.4375,0.09375
272,-0.4404297,-0.09844971,-0.8706665,-0.046875,-0.390625,0.234375
273,-0.44213867,-0.10284424,-0.8735962,-0.296875,-0.5,0.1875
274,-0.43823242,-0.09893799,-0.8633423,-0.046875,-0.328125,0.171875
275,-0.44189453,-0.09429932,-0.8687134,0.03125,-0.546875,0.21875
276,-0.44189453,-0.097473145,-0.8731079,-0.1875,-0.390625,0.15625
277,-0.44213867,-0.09259033,-0.8689575,-0.0625,-0.5625,0.203125
278,-0.4411621,-0.09649658,-0.86187744,-0.125,-0.46875,0.28125
279,-0.44213867,-0.09869385,-0.86676025,-0.09375,-0.09375,0.125
280,-0.44213867,-0.09625244,-0.8623657,-0.234375,-0.203125,0.203125
281,-0.44311523,-0.09820557,-0.8652954,0.03125,-0.484375,0.265625
282,-0.44702148,-0.10211182,-0.87286377,-0.109375,-0.46875,0.171875
283,-0.4482422,-0.09893799,-0.8652954,-0.203125,-0.453125,0.1875
284,-0.44702148,-0.097961426,-0.86553955,-0.09375,-0.421875,0.1875
285,-0.44458008,-0.097229004,-0.8687134,-0.125,-0.5625,0.140625
286,-0.44189453,-0.09893799,-0.864563,-0.265625,-0.59375,0.171875
287,-0.44311523,-0.097229004,-0.8687134,-0.078125,-0.4375,0.125
288,-0.4411621,-0.09820557,-0.8670044,-0.3125,-0.3125,0.109375
289,-0.43847656,-0.09649658,-0.86798096,-0.234375,-0.40625,-0.046875
290,-0.44018555,-0.09674072,-0.8701782,0.046875,-0.515625,0.234375
291,-0.4428711,-0.09893799,-0.86920166,-0.359375,-0.390625,0.03125
292,-0.4411621,-0.105773926,-0.86431885,-0.203125,-0.5,0.234375
293,-0.44433594,-0.09893799,-0.86553955,-0.1875,-0.453125,0.359375
294,-0.4423828,-0.101867676,-0.866272,-0.046875,-0.5,0.1875
295,-0.44604492,-0.09649658,-0.8640747,-0.265625,-0.296875,0.21875
296,-0.44262695,-0.09967041,-0.8677368,-0.125,-0.296875,0.140625
297,-0.44335938,-0.105041504,-0.864563,-0.15625,-0.578125,0.25
298,-0.44726562,-0.09454346,-0.8665161,-0.25,-0.46875,0.15625
299,-0.4404297,-0.0947876,-0.8640747,-0.1875,-0.421875,0.078125
300,-0.44091797,-0.09503174,-0.8621216,-0.234375,-0.53125,0.171875
301,-0.4399414,-0.09674072,-0.8635864,-0.296875,-0.40625,0.203125
302,-0.43798828,-0.09893799,-0.8635864,-0.234375,-0.453125,0.171875
303,-0.43359375,-0.10284424,-0.8640747,-0.15625,-0.421875,0.109375
304,-0.44067383,-0.09991455,-0.8670044,-0.21875,-0.5,0.21875
305,-0.4440918,-0.10748291,-0.8657837,-0.203125,-0.46875,0.125
306,-0.44433594,-0.09844971,-0.8682251,-0.1875,-0.453125,0.109375
307,-0.44335938,-0.101867676,-0.8648071,-0.21875,-0.484375,0.171875
308,-0.44604492,-0.10406494,-0.8726196,-0.28125,-0.546875,0.1875
309,-0.44067383,-0.101623535,-0.86505127,-0.1875,-0.34375,0.09375
310,-0.44262695,-0.101867676,-0.8694458,-0.296875,-0.453125,0.25
311,-0.44018555,-0.09918213,-0.864563,-0.078125,-0.453125,0.203125
312,-0.44067383,-0.093322754,-0.8740845,-0.109375,-0.59375,0.078125
313,-0.44506836,-0.09991455,-0.8640747,-0.109375,-0.28125,0.234375
314,-0.4440918,-0.10211182,-0.86065674,-0.296875,-0.5625,0.140625
315,-0.44482422,-0.09869385,-0.86553955,-0.328125,-0.453125,0.15625
316,-0.44140625,-0.097473145,-0.86260986,-0.09375,-0.4375,0.125
317,-0.44189453,-0.101867676,-0.8674927,-0.328125,-0.640625,0.234375
318,-0.43847656,-0.09674072,-0.8640747,-0.171875,-0.59375,0.25
319,-0.43774414,-0.09918213,-0.87384033,0.03125,-0.671875,0.15625
320,-0.44091797,-0.10479736,-0.866272,-0.125,-0.609375,0.234375
321,-0.44189453,-0.10284424,-0.8652954,-0.25,-0.546875,0.21875
322,-0.4411621,-0.101623535,-0.8731079,-0.578125,-0.421875,0.390625
323,-0.4428711,-0.10211182,-0.87457275,-0.453125,-0.34375,0.15625
324,-0.4428711,-0.105773926,-0.86798096,-0.359375,-0.296875,0.140625
325,-0.4404297,-0.1038208,-0.8670044,-0.203125,-0.78125,0.125
326,-0.4440918,-0.109680176,-0.8670044,-0.09375,-0.578125,0.15625
327,-0.44335938,-0.105285645,-0.86676025,-0.203125,-0.40625,0.140625
328,-0.43945312,-0.105285645,-0.86309814,-0.171875,-0.59375,0.046875
329,-0.44311523,-0.10284424,-0.8670044,-0.109375,-0.546875,0.328125
330,-0.4399414,-0.105529785,-0.86676025,-0.046875,-0.375,0.265625
331,-0.4411621,-0.11138916,-0.86431885,0.015625,-0.484375,0.21875
332,-0.43530273,-0.10748291,-0.8623657,-0.1875,-0.5,-0.109375
333,-0.44384766,-0.101623535,-0.8723755,0.09375,-0.640625,0.140625
334,-0.43701172,-0.10406494,-0.864563,0.015625,-0.53125,0.328125
335,-0.43920898,-0.09893799,-0.8699341,0.078125,-0.421875,0.375
336,-0.4399414,-0.10089111,-0.8674927,-0.03125,-0.453125,0.203125
337,-0.44433594,-0.10015869,-0.86309814,0.171875,-0.390625,0.140625
338,-0.44555664,-0.09991455,-0.866272,0.109375,-0.328125,0.125
339,-0.43701172,-0.10455322,-0.86602783,-0.015625,-0.421875,0.375
340,-0.44140625,-0.10455322,-0.86798096,0.21875,-0.53125,0.15625
341,-0.4362793,-0.09942627,-0.8670044,0.0625,-0.296875,0.125
342,-0.4387207,-0.097473145,-0.86138916,-0.046875,-0.390625,0.125
343,-0.4399414,-0.105529785,-0.86505127,-0.125,-0.484375,0.171875
344,-0.43481445,-0.101867676,-0.8682251,-0.046875,-0.328125,0.15625
345,-0.4333496,-0.101867676,-0.8687134,-0.015625,-0.390625,0.203125
346,-0.4375,-0.105041504,-0.86431885,0.125,-0.546875,0.0625
347,-0.43603516,-0.10455322,-0.86920166,-0.015625,-0.40625,0.078125
348,-0.43774414,-0.09844971,-0.8682251,-0.078125,-0.515625,0.234375
349,-0.4411621,-0.09552002,-0.87091064,0.25,-0.5,0.203125
350,-0.44067383,-0.10089111,-0.866272,-0.03125,-0.5,0.171875
351,-0.43969727,-0.10601807,-0.8623657,0.0625,-0.375,0.203125
352,-0.44213867,-0.09967041,-0.86431885,0.140625,-0.53125,0.109375
353,-0.44360352,-0.10357666,-0.8635864,0.078125,-0.4375,0.34375
354,-0.43798828,-0.09844971,-0.86431885,0.015625,-0.421875,0.078125
355,-0.44360352,-0.10089111,-0.866272,0.09375,-0.4375,0.078125
356,-0.44360352,-0.09991455,-0.86676025,0.046875,-0.34375,0.3125
357,-0.43676758,-0.09918213,-0.87091064,-0.109375,-0.375,0.125
358,-0.44189453,-0.10406494,-0.864563,0.0,-0.3125,0.21875
359,-0.4428711,-0.101623535,-0.8652954,-0.046875,-0.453125,0.078125
360,-0.43969727,-0.10308838,-0.8640747,0.046875,-0.453125,0.203125
361,-0.4411621,-0.09844971,-0.86724854,0.03125,-0.390625,0.15625
362,-0.44262695,-0.10284424,-0.86309814,-0.03125,-0.328125,0.171875
363,-0.4423828,-0.10064697,-0.86676025,0.0625,-0.3125,0.203125
364,-0.44140625,-0.097473145,-0.8674927,0.15625,-0.34375,0.125
365,-0.44433594,-0.09893799,-0.86309814,0.109375,-0.375,0.203125
366,-0.44018555,-0.10015869,-0.8670044,0.03125,-0.296875,0.234375
367,-0.44140625,-0.09503174,-0.86798096,-0.046875,-0.34375,0.265625
368,-0.43652344,-0.10772705,-0.8591919,0.03125,-0.390625,0.203125
369,-0.44604492,-0.09088135,-0.8694458,0.046875,-0.328125,0.015625
370,-0.43896484,-0.09820557,-0.86798096,-0.171875,-0.21875,0.046875
371,-0.43896484,-0.10064697,-0.8640747,0.0,-0.34375,0.265625
372,-0.4404297,-0.09674072,-0.8633423,0.0,-0.234375,0.15625
373,-0.4375,-0.09942627,-0.87042236,0.171875,-0.359375,0.15625
374,-0.4453125,-0.105041504,-0.86846924,-0.125,-0.421875,0.171875
375,-0.44555664,-0.09674072,-0.8657837,-0.140625,-0.234375,0.1875
376,-0.44018555,-0.09625244,-0.8743286,-0.0625,-0.421875,0.296875
377,-0.44482422,-0.097229004,-0.86309814,0.0625,-0.234375,0.28125
378,-0.44140625,-0.10211182,-0.86505127,-0.078125,-0.28125,0.125
379,-0.44726562,-0.10406494,-0.86798096,0.0,-0.453125,0.109375
380,-0.44433594,-0.097473145,-0.86846924,0.0,-0.59375,0.171875
381,-0.4428711,-0.09918213,-0.86602783,-0.046875,-0.484375,0.21875
382,-0.44262695,-0.09698486,-0.86065674,-0.0625,-0.375,0.140625
383,-0.4465332,-0.09698486,-0.86846924,-0.1875,-0.28125,0.171875
384,-0.4428711,-0.089904785,-0.86798096,-0.078125,-0.4375,0.140625
385,-0.44335938,-0.09942627,-0.87042236,-0.03125,-0.421875,0.046875
386,-0.4416504,-0.097473145,-0.8677368,-0.234375,-0.46875,0.171875
387,-0.43603516,-0.097229004,-0.86920166,-0.1875,-0.375,0.234375
388,-0.44213867,-0.09674072,-0.8640747,-0.09375,-0.375,0.265625
389,-0.43725586,-0.09259033,-0.8633423,-0.234375,-0.1875,0.21875
390,-0.43920898,-0.09552002,-0.8723755,-0.140625,-0.5,0.0625
391,-0.44506836,-0.10699463,-0.86798096,-0.203125,-0.515625,0.078125
392,-0.43701172,-0.10040283,-0.8640747,-0.078125,-0.640625,0.109375
393,-0.44360352,-0.0947876,-0.86602783,0.078125,-0.59375,0.140625
394,-0.44311523,-0.097961426,-0.86602783,-0.34375,-0.5,0.1875
395,-0.4428711,-0.09918213,-0.8687134,-0.21875,-0.578125,0.203125
396,-0.4453125,-0.09674072,-0.86383057,-0.203125,-0.3125,0.0625
397,-0.44580078,-0.09869385,-0.86724854,-0.234375,-0.375,0.078125
398,-0.44628906,-0.0960083,-0.8670044,-0.5625,-0.609375,0.046875
399,-0.44311523,-0.10357666,-0.86676025,-0.21875,-0.390625,0.203125
400,-0.43847656,-0.09625244,-0.8713989,-0.09375,-0.671875,0.203125
401,-0.44311523,-0.097473145,-0.8670044,-0.234375,-0.421875,0.1875
402,-0.44384766,-0.09844971,-0.862854,-0.328125,-0.34375,0.015625
403,-0.44262695,-0.10089111,-0.8604126,-0.140625,-0.28125,0.0625
404,-0.44213867,-0.101623535,-0.8723755,-0.28125,-0.390625,0.140625
405,-0.44458008,-0.101623535,-0.86676025,-0.296875,-0.375,0.203125
406,-0.44311523,-0.10357666,-0.8665161,-0.125,-0.640625,0.265625
407,-0.44458008,-0.10430908,-0.86260986,-0.234375,-0.625,0.0625
408,-0.43969727,-0.10723877,-0.86676025,-0.1875,-0.546875,0.125
409,-0.43798828,-0.10089111,-0.8652954,-0.3125,-0.578125,0.265625
410,-0.4428711,-0.09698486,-0.86798096,-0.203125,-0.484375,0.1875
411,-0.4411621,-0.101379395,-0.87164307,-0.25,-0.453125,0.296875
412,-0.4411621,-0.101867676,-0.86138916,-0.21875,-0.3125,0.25
413,-0.44140625,-0.10040283,-0.8657837,-0.21875,-0.578125,0.28125
414,-0.44311523,-0.09869385,-0.8699341,-0.265625,-0.59375,0.15625
415,-0.43969727,-0.10211182,-0.86431885,-0.296875,-0.453125,0.171875
416,-0.44580078,-0.09869385,-0.8682251,-0.078125,-0.515625,0.21875
417,-0.4387207,-0.09967041,-0.8689575,-0.203125,-0.390625,0.15625
418,-0.4428711,-0.101867676,-0.86553955,-0.03125,-0.546875,0.125
419,-0.43920898,-0.10211182,-0.8587036,-0.03125,-0.3125,0.203125
420,-0.43920898,-0.10308838,-0.86553955,0.0,-0.53125,0.109375
421,-0.44262695,-0.101379395,-0.8677368,-0.078125,-0.46875,0.171875
422,-0.43945312,-0.10235596,-0.86798096,-0.109375,-0.515625,0.0625
423,-0.4423828,-0.10406494,-0.862854,-0.140625,-0.40625,0.21875
424,-0.43408203,-0.09942627,-0.86798096,0.0,-0.421875,0.21875
425,-0.44482422,-0.09942627,-0.8706665,-0.125,-0.5,0.28125
426,-0.43774414,-0.101379395,-0.8687134,0.015625,-0.640625,0.25
427,-0.43652344,-0.09820557,-0.86383057,-0.046875,-0.5625,0.140625
428,-0.43676758,-0.09820557,-0.8735962,0.140625,-0.578125,0.1875
429,-0.44555664,-0.10479736,-0.86260986,0.109375,-0.359375,0.1875
430,-0.4411621,-0.10211182,-0.8701782,0.046875,-0.328125,0.171875
431,-0.4423828,-0.09625244,-0.87213135,0.21875,-0.46875,0.265625
432,-0.4411621,-0.09844971,-0.86846924,-0.09375,-0.53125,0.109375
433,-0.44067383,-0.10406494,-0.864563,-0.078125,-0.53125,0.0625
434,-0.44458008,-0.10430908,-0.8723755,0.1875,-0.640625,0.28125
435,-0.43481445,-0.09674072,-0.864563,-0.03125,-0.421875,0.15625
436,-0.4404297,-0.10430908,-0.86260986,0.125,-0.359375,0.15625
437,-0.43701172,-0.097961426,-0.86187744,0.015625,-0.328125,0.21875
438,-0.44091797,-0.105773926,-0.8652954,-0.0625,-0.3125,0.09375
439,-0.43603516,-0.10089111,-0.8748169,-0.265625,-0.453125,0.171875
440,-0.44335938,-0.10357666,-0.8694458,0.015625,-0.4375,0.203125
441,-0.44506836,-0.10650635,-0.87091064,0.109375,-0.5625,0.0625
442,-0.44433594,-0.0947876,-0.8706665,-0.046875,-0.453125,0.203125
443,-0.44702148,-0.10357666,-0.87164307,-0.015625,-0.484375,0.203125
444,-0.44091797,-0.10211182,-0.86383057,-0.046875,-0.34375,0.25
445,-0.4375,-0.1038208,-0.8682251,-0.109375,-0.421875,0.234375
446,-0.4423828,-0.097473145,-0.866272,0.03125,-0.359375,0.25
447,-0.44482422,-0.10284424,-0.87457275,-0.109375,-0.578125,0.0625
448,-0.44384766,-0.09893799,-0.8665161,0.15625,-0.40625,0.34375
449,-0.44580078,-0.09649658,-0.86920166,0.0,-0.171875,0.1875
450,-0.4453125,-0.101135254,-0.862854,0.046875,-0.265625,0.203125
451,-0.43701172,-0.09893799,-0.8657837,0.078125,-0.328125,0.171875
452,-0.44311523,-0.09869385,-0.8711548,-0.140625,-0.390625,0.1875
453,-0.4399414,-0.10284424,-0.8677368,0.09375,-0.40625,0.1875
454,-0.44458008,-0.10040283,-0.86724854,0.15625,-0.5,0.203125
455,-0.43896484,-0.09991455,-0.86505127,-0.171875,-0.328125,0.203125
456,-0.44213867,-0.09527588,-0.8677368,0.078125,-0.390625,0.09375
457,-0.43945312,-0.09967041,-0.8652954,-0.078125,-0.34375,0.15625
458,-0.44189453,-0.10089111,-0.86309814,0.03125,-0.265625,0.21875
459,-0.43798828,-0.101867676,-0.8689575,-0.15625,-0.53125,0.28125
460,-0.44506836,-0.10211182,-0.8635864,0.015625,-0.40625,0.296875
461,-0.44311523,-0.10748291,-0.8689575,0.109375,-0.53125,0.109375
462,-0.4399414,-0.10040283,-0.8640747,-0.140625,-0.546875,0.203125
463,-0.43652344,-0.101135254,-0.8674927,-0.125,-0.4375,0.140625
464,-0.44067383,-0.10015869,-0.86383057,0.046875,-0.296875,0.265625
465,-0.4399414,-0.09967041,-0.86187744,-0.21875,-0.375,0.21875
466,-0.44482422,-0.10211182,-0.8633423,-0.140625,-0.46875,0.109375
467,-0.4375,-0.10235596,-0.86602783,-0.09375,-0.46875,0.109375
468,-0.44433594,-0.10406494,-0.8677368,-0.109375,-0.484375,0.125
469,-0.4428711,-0.09283447,-0.86383057,-0.125,-0.46875,0.296875
470,-0.44580078,-0.0947876,-0.86602783,-0.078125,-0.265625,0.09375
471,-0.44018555,-0.09674072,-0.8682251,0.046875,-0.390625,0.140625
472,-0.4440918,-0.09625244,-0.8635864,-0.078125,-0.453125,0.1875
473,-0.43823242,-0.10284424,-0.86505127,0.109375,-0.203125,0.0625
474,-0.44335938,-0.0947876,-0.8604126,0.09375,-0.328125,0.125
475,-0.44458008,-0.09576416,-0.8706665,-0.203125,-0.609375,0.3125
476,-0.4416504,-0.09674072,-0.87091064,-0.171875,-0.53125,0.15625
477,-0.44189453,-0.09893799,-0.8677368,-0.15625,-0.453125,0.265625
478,-0.44482422,-0.09649658,-0.8670044,-0.1875,-0.390625,0.25
479,-0.44335938,-0.09869385,-0.87945557,-0.34375,-0.5,0.25
480,-0.44360352,-0.09527588,-0.86383057,-0.1875,-0.5,0.296875
481,-0.43676758,-0.10211182,-0.86724854,-0.09375,-0.484375,0.15625
482,-0.4387207,-0.09820557,-0.8694458,-0.15625,-0.453125,0.0
483,-0.44189453,-0.10211182,-0.86846924,-0.171875,-0.5,0.15625
484,-0.4416504,-0.10333252,-0.8670044,-0.171875,-0.6875,0.1875
485,-0.43774414,-0.0947876,-0.86505127,-0.296875,-0.265625,0.15625
486,-0.44604492,-0.10015869,-0.8657837,-0.28125,-0.46875,0.25
487,-0.44702148,-0.105529785,-0.8674927,-0.15625,-0.46875,0.265625
488,-0.44750977,-0.09918213,-0.8706665,-0.265625,-0.328125,0.125
489,-0.44140625,-0.09967041,-0.86602783,-0.21875,-0.453125,0.125
490,-0.4375,-0.101135254,-0.86065674,-0.234375,-0.5,0.0
491,-0.44677734,-0.09869385,-0.8633423,-0.078125,-0.53125,0.296875
492,-0.43847656,-0.105285645,-0.8633423,-0.046875,-0.46875,0.0625
493,-0.44702148,-0.101623535,-0.8687134,-0.015625,-0.359375,0.21875
494,-0.4399414,-0.1026001,-0.866272,-0.296875,-0.46875,0.21875
495,-0.43701172,-0.097473145,-0.8706665,-0.1875,-0.5,0.203125
496,-0.44189453,-0.0947876,-0.86431885,-0.203125,-0.328125,0.234375
497,-0.44213867,-0.101867676,-0.86846924,-0.265625,-0.265625,0.125
498,-0.44140625,-0.105773926,-0.86846924,-0.234375,-0.546875,0.21875
499,-0.44482422,-0.10601807,-0.8633423,-0.203125,-0.484375,0.1875
500,-0.44360352,-0.105041504,-0.86920166,-0.0625,-0.484375,0.265625
501,-0.44091797,-0.09820557,-0.8633423,-0.15625,-0.453125,0.140625
502,-0.44018555,-0.10284424,-0.8711548,-0.171875,-0.421875,0.203125
503,-0.4375,-0.101623535,-0.87091064,-0.15625,-0.5625,0.15625
504,-0.4404297,-0.101867676,-0.8677368,-0.234375,-0.484375,0.09375
505,-0.43823242,-0.10211182,-0.8677368,-0.21875,-0.453125,0.25
506,-0.43676758,-0.105773926,-0.86602783,-0.046875,-0.578125,0.28125
507,-0.43920898,-0.10211182,-0.8706665,0.0625,-0.640625,0.234375
508,-0.43798828,-0.097717285,-0.87042236,0.015625,-0.390625,0.296875
509,-0.4362793,-0.10211182,-0.8699341,-0.03125,-0.4375,0.234375
510,-0.43920898,-0.10455322,-0.8694458,0.09375,-0.375,0.1875
511,-0.43969727,-0.10406494,-0.87042236,0.09375,-0.40625,0.21875
512,-0.43969727,-0.101867676,-0.86920166,0.015625,-0.578125,0.171875
513,-0.4416504,-0.105041504,-0.8665161,0.15625,-0.4375,0.125
514,-0.44433594,-0.09967041,-0.86431885,-0.078125,-0.3125,0.1875
515,-0.43798828,-0.0960083,-0.87164307,-0.015625,-0.421875,0.125
516,-0.43774414,-0.09967041,-0.8689575,0.015625,-0.25,0.171875
517,-0.43652344,-0.09674072,-0.8616333,0.0,-0.265625,0.25
518,-0.43676758,-0.097229004,-0.86676025,-0.125,-0.5,0.125
519,-0.43896484,-0.10089111,-0.8689575,0.125,-0.328125,0.203125
520,-0.4411621,-0.09942627,-0.86968994,0.28125,-0.34375,0.296875
521,-0.44384766,-0.09967041,-0.8657837,0.015625,-0.4375,0.234375
522,-0.4399414,-0.09674072,-0.8735962,-0.0625,-0.40625,0.234375
523,-0.43530273,-0.097473145,-0.8621216,-0.109375,-0.21875,0.09375
524,-0.4411621,-0.09844971,-0.86724854,-0.078125,-0.15625,0.15625
525,-0.43896484,-0.09893799,-0.86920166,0.09375,-0.140625,0.203125
526,-0.4399414,-0.101867676,-0.8677368,-0.078125,-0.296875,0.171875
527,-0.44677734,-0.094055176,-0.8677368,0.078125,-0.375,0.125
528,-0.4375,-0.101379395,-0.8665161,-0.03125,-0.296875,0.21875
529,-0.43579102,-0.097229004,-0.86602783,0.109375,-0.34375,0.15625
530,-0.44140625,-0.09991455,-0.87506104,0.03125,-0.359375,0.171875
531,-0.44262695,-0.097717285,-0.8674927,-0.015625,-0.4375,0.21875
532,-0.44091797,-0.097961426,-0.8657837,-0.1875,-0.34375,0.1875
533,-0.43554688,-0.10064697,-0.8689575,-0.015625,-0.359375,0.140625
534,-0.4482422,-0.097961426,-0.8689575,0.125,-0.359375,0.234375
535,-0.44433594,-0.09527588,-0.8670044,0.015625,-0.4375,0.1875
536,-0.4423828,-0.101135254,-0.8689575,-0.046875,-0.40625,0.078125
537,-0.44482422,-0.09649658,-0.8674927,-0.046875,-0.234375,0.171875
538,-0.4375,-0.10040283,-0.862854,-0.171875,-0.203125,0.171875
539,-0.44628906,-0.09918213,-0.8674927,-0.125,-0.390625,0.28125
540,-0.43945312,-0.1026001,-0.8652954,-0.171875,-0.390625,0.234375
541,-0.4387207,-0.10406494,-0.8670044,0.125,-0.484375,0.171875
542,-0.4387207,-0.09893799,-0.86553955,-0.046875,-0.5,0.265625
543,-0.44067383,-0.10626221,-0.8694458,-0.125,-0.5,0.15625
544,-0.4411621,-0.101623535,-0.86968994,-0.1875,-0.390625,0.21875
545,-0.43701172,-0.10015869,-0.86846924,-0.015625,-0.265625,0.15625
546,-0.43823242,-0.10357666,-0.8731079,-0.125,-0.40625,0.234375
547,-0.44726562,-0.101623535,-0.8657837,-0.03125,-0.5,0.140625
548,-0.4453125,-0.101623535,-0.8665161,-0.1875,-0.390625,0.15625
549,-0.4345703,-0.09625244,-0.8699341,-0.0625,-0.375,0.09375
550,-0.44384766,-0.097717285,-0.86968994,-0.03125,-0.34375,0.234375
551,-0.43432617,-0.10015869,-0.8648071,-0.140625,-0.140625,0.21875
552,-0.44384766,-0.09674072,-0.8633423,-0.09375,-0.484375,0.21875
553,-0.45214844,-0.10357666,-0.8743286,-0.125,-0.296875,0.296875
554,-0.44018555,-0.09967041,-0.8640747,-0.0625,-0.390625,0.078125
555,-0.44335938,-0.09967041,-0.86968994,0.09375,-0.484375,0.203125
556,-0.44580078,-0.097961426,-0.87164307,-0.140625,-0.4375,0.109375
557,-0.4411621,-0.0960083,-0.8665161,-0.234375,-0.546875,0.15625
558,-0.44506836,-0.10089111,-0.866272,-0.203125,-0.3125,0.203125
559,-0.44262695,-0.09454346,-0.8699341,-0.1875,-0.484375,0.21875
560,-0.44189453,-0.09991455,-0.86968994,-0.28125,-0.421875,0.265625
561,-0.4416504,-0.10626221,-0.8616333,-0.09375,-0.34375,0.140625
562,-0.44360352,-0.09649658,-0.8718872,-0.078125,-0.265625,0.078125
563,-0.4428711,-0.09454346,-0.8670044,-0.1875,-0.421875,0.203125
564,-0.44140625,-0.101135254,-0.8665161,-0.171875,-0.375,0.078125
565,-0.44580078,-0.105529785,-0.864563,-0.265625,-0.53125,0.109375
566,-0.43969727,-0.10040283,-0.8677368,-0.109375,-0.578125,0.21875
567,-0.44189453,-0.09942627,-0.8718872,-0.265625,-0.28125,0.15625
568,-0.44189453,-0.101379395,-0.8670044,-0.046875,-0.421875,0.0625
569,-0.43725586,-0.09967041,-0.8713989,-0.28125,-0.5,0.09375
570,-0.44482422,-0.1038208,-0.86505127,-0.09375,-0.484375,0.203125
571,-0.43823242,-0.10650635,-0.86676025,-0.390625,-0.53125,-0.03125
572,-0.4465332,-0.1026001,-0.8687134,-0.15625,-0.59375,0.15625
573,-0.44360352,-0.10308838,-0.8674927,-0.234375,-0.421875,0.171875
574,-0.43896484,-0.09967041,-0.8657837,-0.28125,-0.53125,0.21875
575,-0.44018555,-0.1026001,-0.8699341,-0.34375,-0.375,0.171875
576,-0.44384766,-0.09649658,-0.862854,-0.234375,-0.390625,0.0625
577,-0.44189453,-0.10015869,-0.8677368,-0.3125,-0.65625,0.140625
578,-0.44189453,-0.105285645,-0.8665161,-0.125,-0.484375,0.15625
579,-0.4404297,-0.09674072,-0.87042236,-0.171875,-0.578125,0.234375
580,-0.43920898,-0.09991455,-0.87091064,-0.265625,-0.390625,-0.03125
581,-0.44067383,-0.10455322,-0.8687134,-0.140625,-0.484375,0.1875
582,-0.43798828,-0.09820557,-0.86920166,-0.21875,-0.5625,0.21875
583,-0.43969727,-0.09869385,-0.862854,-0.203125,-0.296875,0.1875
584,-0.44067383,-0.10015869,-0.86187744,-0.234375,-0.5625,0.1875
585,-0.4428711,-0.101379395,-0.86846924,-0.046875,-0.46875,0.140625
586,-0.4428711,-0.109191895,-0.8718872,-0.140625,-0.484375,0.109375
587,-0.43774414,-0.10723877,-0.8701782,-0.234375,-0.5,0.265625
588,-0.44580078,-0.1038208,-0.86920166,0.015625,-0.5,0.203125
589,-0.4411621,-0.105773926,-0.86553955,-0.09375,-0.5,0.171875
590,-0.4399414,-0.09893799,-0.8694458,0.09375,-0.53125,0.265625
591,-0.43823242,-0.101867676,-0.87091064,-0.015625,-0.5,0.171875
592,-0.4428711,-0.10821533,-0.8591919,0.15625,-0.34375,0.265625
593,-0.4350586,-0.097717285,-0.86920166,0.125,-0.34375,0.171875
594,-0.43969727,-0.09893799,-0.8657837,0.0625,-0.53125,0.234375
595,-0.43920898,-0.09967041,-0.8674927,0.09375,-0.515625,0.203125
596,-0.43554688,-0.10064697,-0.86309814,0.03125,-0.4375,0.1875
597,-0.4428711,-0.09820557,-0.86383057,-0.09375,-0.390625,0.265625
598,-0.4477539,-0.09967041,-0.8713989,0.015625,-0.234375,0.296875
599,-0.44555664,-0.10064697,-0.8682251,0.09375,-0.40625,0.234375
600,-0.44091797,-0.09869385,-0.8706665,0.015625,-0.484375,0.1875
601,-0.4411621,-0.1026001,-0.8753052,0.140625,-0.46875,0.1875
602,-0.43920898,-0.10479736,-0.8731079,-0.0625,-0.390625,0.25
603,-0.43969727,-0.09552002,-0.8677368,0.125,-0.421875,0.140625
604,-0.4440918,-0.10626221,-0.86383057,-0.03125,-0.265625,0.21875
605,-0.44091797,-0.101135254,-0.866272,0.015625,-0.375,0.140625
606,-0.4375,-0.1038208,-0.8670044,0.078125,-0.4375,0.265625
607,-0.44189453,-0.09942627,-0.8670044,0.0,-0.40625,0.203125
608,-0.4440918,-0.101379395,-0.86676025,-0.09375,-0.46875,0.0625
609,-0.44018555,-0.101135254,-0.8711548,0.03125,-0.296875,0.15625
610,-0.43823242,-0.09576416,-0.86553955,-0.03125,-0.296875,0.21875
611,-0.4477539,-0.10479736,-0.8694458,0.03125,-0.5,0.078125
612,-0.44213867,-0.09967041,-0.86602783,0.0,-0.640625,0.265625
613,-0.4404297,-0.101623535,-0.8648071,-0.046875,-0.28125,0.328125
614,-0.44262695,-0.09991455,-0.8687134,-0.078125,-0.609375,0.21875
615,-0.44140625,-0.0947876,-0.86724854,-0.171875,-0.40625,0.03125
616,-0.4375,-0.10015869,-0.86968994,-0.078125,-0.3125,0.203125
617,-0.43676758,-0.10040283,-0.8665161,0.09375,-0.4375,0.171875
618,-0.44262695,-0.1026001,-0.86676025,-0.046875,-0.421875,0.296875
619,-0.4411621,-0.089660645,-0.8670044,-0.140625,-0.234375,0.34375
620,-0.44482422,-0.09625244,-0.86431885,-0.015625,-0.34375,0.203125
621,-0.44189453,-0.101623535,-0.86846924,-0.046875,-0.46875,0.21875
622,-0.4428711,-0.09991455,-0.8670044,0.0,-0.515625,0.28125
623,-0.44458008,-0.09527588,-0.87164307,-0.09375,-0.453125,0.25
624,-0.44482422,-0.10089111,-0.8621216,0.0625,-0.40625,0.125
625,-0.44140625,-0.09429932,-0.87042236,-0.046875,-0.46875,0.21875
626,-0.44213867,-0.09649658,-0.86309814,-0.0625,-0.203125,0.21875
627,-0.4453125,-0.09893799,-0.8689575,-0.140625,-0.546875,0.25
628,-0.4338379,-0.10211182,-0.8633423,-0.046875,-0.4375,0.3125
629,-0.44091797,-0.097229004,-0.8665161,0.0,-0.53125,0.234375
630,-0.44433594,-0.09527588,-0.86798096,-0.109375,-0.390625,0.171875
631,-0.44067383,-0.09698486,-0.87164307,-0.234375,-0.375,0.15625
632,-0.44726562,-0.09698486,-0.8665161,-0.078125,-0.40625,0.265625
633,-0.4411621,-0.10040283,-0.87091064,-0.09375,-0.4375,0.140625
634,-0.4423828,-0.097717285,-0.8670044,0.015625,-0.515625,0.21875
635,-0.44335938,-0.105529785,-0.86602783,-0.078125,-0.546875,0.109375
636,-0.44384766,-0.09576416,-0.86505127,-0.046875,-0.5,0.015625
637,-0.44213867,-0.101623535,-0.86846924,-0.109375,-0.4375,0.15625
638,-0.44189453,-0.09991455,-0.87164307,-0.171875,-0.25,0.1875
639,-0.44213867,-0.10211182,-0.8670044,-0.0625,-0.296875,0.171875
640,-0.4416504,-0.101135254,-0.8677368,-0.140625,-0.359375,0.265625
641,-0.44458008,-0.10308838,-0.8652954,-0.171875,-0.421875,0.15625
642,-0.43969727,-0.09991455,-0.8723755,0.0,-0.546875,0.078125
643,-0.4338379,-0.097473145,-0.8713989,0.046875,-0.59375,0.140625
644,-0.44262695,-0.09283447,-0.8674927,-0.21875,-0.453125,0.15625
645,-0.44189453,-0.09991455,-0.8640747,-0.28125,-0.53125,-0.015625
646,-0.44604492,-0.09820557,-0.8689575,-0.234375,-0.453125,0.25
647,-0.4411621,-0.10455322,-0.8694458,-0.09375,-0.46875,0.125
648,-0.4375,-0.101379395,-0.8694458,-0.25,-0.484375,0.078125
649,-0.43432617,-0.10015869,-0.86383057,-0.1875,-0.578125,0.15625
650,-0.4399414,-0.09454346,-0.8657837,-0.109375,-0.46875,0.125
651,-0.44384766,-0.097961426,-0.8711548,-0.359375,-0.515625,0.15625
652,-0.4416504,-0.09527588,-0.86968994,-0.28125,-0.40625,0.046875
653,-0.44335938,-0.09210205,-0.8731079,-0.21875,-0.421875,0.234375
654,-0.4375,-0.10284424,-0.86724854,-0.28125,-0.34375,0.1875
655,-0.44091797,-0.09991455,-0.8701782,-0.265625,-0.625,0.1875
656,-0.4453125,-0.1038208,-0.8682251,-0.15625,-0.546875,0.265625
657,-0.4416504,-0.10089111,-0.86968994,-0.09375,-0.5625,0.21875
658,-0.4440918,-0.097473145,-0.8706665,-0.25,-0.609375,0.171875
659,-0.44140625,-0.10284424,-0.8701782,-0.234375,-0.5,0.25
660,-0.44384766,-0.09967041,-0.87213135,-0.140625,-0.5,0.171875
661,-0.4375,-0.09942627,-0.86431885,-0.109375,-0.3125,0.140625
662,-0.44335938,-0.101379395,-0.86920166,-0.234375,-0.53125,0.171875
663,-0.44458008,-0.09674072,-0.86187744,-0.109375,-0.53125,0.15625
664,-0.44189453,-0.101623535,-0.8701782,-0.125,-0.578125,0.109375
665,-0.4411621,-0.10040283,-0.8657837,-0.234375,-0.5,0.1875
666,-0.44067383,-0.10211182,-0.8682251,-0.125,-0.59375,0.21875
667,-0.43847656,-0.10308838,-0.8657837,-0.234375,-0.484375,0.1875
668,-0.43823242,-0.10479736,-0.85894775,-0.015625,-0.546875,0.203125
669,-0.4411621,-0.10235596,-0.86724854,-0.234375,-0.3125,-0.046875
670,-0.4423828,-0.10333252,-0.8670044,-0.046875,-0.421875,0.296875
671,-0.43847656,-0.105041504,-0.8694458,0.125,-0.6875,0.328125
672,-0.43823242,-0.09991455,-0.86309814,-0.03125,-0.484375,0.15625
673,-0.43554688,-0.10626221,-0.8665161,-0.078125,-0.484375,0.125
674,-0.43847656,-0.1038208,-0.8711548,-0.125,-0.53125,0.078125
675,-0.44458008,-0.1026001,-0.8701782,-0.015625,-0.40625,0.375
676,-0.4333496,-0.109680176,-0.87286377,0.046875,-0.515625,0.21875
677,-0.43920898,-0.1038208,-0.8713989,0.078125,-0.515625,0.21875
678,-0.4350586,-0.10723877,-0.8731079,0.21875,-0.375,0.3125
679,-0.44213867,-0.10430908,-0.87164307,0.203125,-0.46875,0.109375
680,-0.4399414,-0.10040283,-0.8665161,0.34375,-0.390625,0.15625
681,-0.43969727,-0.09991455,-0.8640747,0.171875,-0.296875,0.15625
682,-0.43896484,-0.097229004,-0.86968994,0.0,-0.28125,0.140625
683,-0.43432617,-0.10284424,-0.86968994,0.015625,-0.375,0.125
684,-0.44067383,-0.097717285,-0.8682251,0.1875,-0.453125,0.171875
685,-0.43920898,-0.093811035,-0.8648071,0.015625,-0.40625,0.171875
686,-0.44018555,-0.10040283,-0.86798096,0.046875,-0.390625,0.15625
687,-0.4350586,-0.101623535,-0.8713989,0.046875,-0.390625,0.21875
688,-0.4404297,-0.101379395,-0.86383057,0.046875,-0.1875,0.125
689,-0.4350586,-0.09625244,-0.86431885,-0.203125,-0.359375,0.125
690,-0.43945312,-0.09918213,-0.866272,-0.0625,-0.28125,0.09375
691,-0.44067383,-0.1026001,-0.87164307,0.1875,-0.453125,0.140625
692,-0.43920898,-0.09674072,-0.86798096,-0.046875,-0.484375,0.078125
693,-0.4399414,-0.10015869,-0.8689575,-0.046875,-0.359375,0.140625
694,-0.4350586,-0.101623535,-0.86724854,0.09375,-0.296875,0.296875
695,-0.43920898,-0.09625244,-0.86676025,-0.015625,-0.546875,0.0625
696,-0.4411621,-0.09918213,-0.8689575,0.03125,-0.28125,0.109375
697,-0.44262695,-0.09698486,-0.86676025,-0.015625,-0.375,0.21875
698,-0.44018555,-0.097961426,-0.86505127,0.015625,-0.3125,0.125
699,-0.44433594,-0.097229004,-0.8687134,0.0,-0.328125,0.125
700,-0.44140625,-0.097229004,-0.87164307,-0.125,-0.296875,0.125
701,-0.44018555,-0.101135254,-0.8701782,-0.03125,-0.46875,0.21875
702,-0.4423828,-0.09893799,-0.8731079,-0.078125,-0.359375,0.28125
703,-0.4477539,-0.10064697,-0.86724854,0.0,-0.390625,0.25
704,-0.43847656,-0.09698486,-0.8682251,0.078125,-0.21875,0.171875
705,-0.43408203,-0.09991455,-0.86920166,-0.0625,-0.484375,0.1875
706,-0.4440918,-0.09869385,-0.87164307,-0.0625,-0.484375,0.171875
707,-0.44555664,-0.10235596,-0.86553955,-0.078125,-0.5,0.234375
708,-0.44360352,-0.09820557,-0.8657837,-0.15625,-0.453125,0.234375
709,-0.44213867,-0.09942627,-0.8711548,-0.109375,-0.140625,0.046875
710,-0.4428711,-0.10455322,-0.8621216,-0.046875,-0.203125,0.203125
711,-0.4387207,-0.09527588,-0.8657837,0.015625,-0.421875,0.09375
712,-0.44262695,-0.097717285,-0.86920166,-0.046875,-0.421875,0.203125
713,-0.44091797,-0.09674072,-0.8701782,-0.09375,-0.40625,0.09375
714,-0.43798828,-0.09967041,-0.8682251,-0.078125,-0.640625,0.359375
715,-0.43896484,-0.09942627,-0.8711548,0.0,-0.640625,0.171875
716,-0.4404297,-0.101867676,-0.866272,-0.015625,-0.34375,0.171875
717,-0.44482422,-0.101379395,-0.8706665,-0.09375,-0.375,0.09375
718,-0.44213867,-0.09649658,-0.86553955,-0.140625,-0.40625,0.046875
719,-0.4428711,-0.10040283,-0.8648071,-0.03125,-0.390625,0.234375
720,-0.44360352,-0.10211182,-0.87042236,0.0,-0.390625,0.171875
721,-0.43823242,-0.10064697,-0.8718872,-0.046875,-0.453125,0.25
722,-0.44018555,-0.09136963,-0.8635864,-0.125,-0.46875,0.265625
723,-0.44189453,-0.09527588,-0.8726196,-0.21875,-0.328125,0.265625
724,-0.44433594,-0.10015869,-0.864563,-0.03125,-0.421875,0.15625
725,-0.44750977,-0.1026001,-0.86920166,-0.078125,-0.21875,0.046875
726,-0.43920898,-0.0947876,-0.86846924,-0.046875,-0.453125,0.234375
727,-0.44091797,-0.09918213,-0.87042236,-0.234375,-0.40625,0.28125
728,-0.4375,-0.10064697,-0.8699341,-0.109375,-0.1875,0.1875
729,-0.4411621,-0.0960083,-0.8687134,-0.109375,-0.3125,0.046875
730,-0.44189453,-0.10089111,-0.8635864,-0.046875,-0.359375,0.15625
731,-0.4411621,-0.093811035,-0.8677368,-0.28125,-0.34375,0.171875
732,-0.4482422,-0.09820557,-0.862854,-0.28125,-0.28125,0.1875
733,-0.4440918,-0.09967041,-0.8718872,-0.0625,-0.453125,0.09375
734,-0.4416504,-0.09942627,-0.8677368,-0.28125,-0.453125,0.21875
735,-0.44628906,-0.101867676,-0.8723755,-0.296875,-0.484375,0.21875
736,-0.43945312,-0.10357666,-0.8701782,-0.0625,-0.46875,0.15625
737,-0.43920898,-0.101379395,-0.86676025,-0.15625,-0.453125,0.140625
738,-0.43896484,-0.101379395,-0.86968994,-0.03125,-0.375,0.171875
739,-0.44091797,-0.101135254,-0.8635864,-0.296875,-0.421875,0.296875
740,-0.44189453,-0.0960083,-0.8694458,-0.203125,-0.34375,0.15625
741,-0.44262695,-0.09893799,-0.8677368,-0.0625,-0.421875,-0.015625
742,-0.4453125,-0.1026001,-0.86505127,-0.125,-0.421875,0.125
743,-0.44067383,-0.09869385,-0.8677368,-0.21875,-0.421875,0.015625
744,-0.4326172,-0.10235596,-0.86724854,-0.09375,-0.28125,0.203125
745,-0.44482422,-0.10357666,-0.8682251,-0.15625,-0.453125,0.234375
746,-0.4411621,-0.101623535,-0.86602783,-0.25,-0.53125,0.171875
747,-0.4404297,-0.10089111,-0.8674927,-0.03125,-0.578125,0.25
748,-0.44360352,-0.097229004,-0.86260986,-0.140625,-0.46875,0.265625
749,-0.44360352,-0.10211182,-0.86505127,-0.015625,-0.671875,0.203125
750,-0.44335938,-0.10284424,-0.8689575,-0.3125,-0.640625,0.21875
751,-0.4416504,-0.097473145,-0.8648071,-0.0625,-0.359375,0.15625
752,-0.4404297,-0.10430908,-0.87213135,-0.328125,-0.453125,0.15625
753,-0.44262695,-0.105041504,-0.8652954,-0.140625,-0.421875,0.328125
754,-0.44506836,-0.1038208,-0.8701782,-0.03125,-0.390625,0.09375
755,-0.43823242,-0.10357666,-0.86553955,-0.234375,-0.375,0.25
756,-0.44262695,-0.10406494,-0.86602783,-0.03125,-0.359375,0.25
757,-0.43676758,-0.101379395,-0.8670044,-0.09375,-0.34375,0.234375
758,-0.44189453,-0.09967041,-0.866272,-0.1875,-0.375,0.234375
759,-0.4411621,-0.09942627,-0.8689575,-0.015625,-0.65625,0.296875
