sample_no,accel_x,accel_y,accel_z,gyro_x,gyro_y,gyro_z
0,-0.0014648438,-0.97979736,0.14935303,-1.140625,-0.71875,-0.1875
1,-0.0073242188,-0.99591064,0.15179443,-0.96875,-0.375,-0.25
2,0.0,-0.9963989,0.15594482,-0.78125,-0.8125,0.25
3,0.0012207031,-0.9915161,0.14984131,-1.484375,-1.421875,0.5
4,0.0,-0.9834595,0.14593506,-0.9375,-0.828125,-0.359375
5,-0.0107421875,-1.0012817,0.15863037,-0.640625,-0.375,0.171875
6,-0.010253906,-0.9866333,0.14593506,-0.828125,-0.96875,0.171875
7,-0.005126953,-0.99053955,0.152771,-0.28125,-0.5,-0.15625
8,-0.004638672,-0.9924927,0.15570068,-0.328125,-0.4375,0.5625
9,-0.010986328,-0.9944458,0.15179443,-0.90625,-0.125,0.8125
10,-0.0087890625,-0.9907837,0.15252686,-0.390625,-0.171875,0.921875
11,-0.0009765625,-0.99176025,0.15081787,-0.34375,-0.140625,0.984375
12,-0.00048828125,-0.99298096,0.14910889,-0.875,-0.609375,0.984375
13,0.0,-0.99176025,0.16131592,-0.546875,-0.25,0.90625
14,0.0,-0.9951782,0.14984131,-0.046875,0.28125,1.03125
15,0.011474609,-0.9805298,0.15228271,-0.171875,0.265625,0.859375
16,0.0056152344,-1.003479,0.13787842,-1.421875,0.28125,1.046875
17,0.005859375,-0.991272,0.15716553,-0.25,0.25,1.234375
18,0.01953125,-0.9873657,0.12445068,-1.65625,-0.578125,0.03125
19,0.018066406,-0.99053955,0.16448975,0.65625,0.3125,0.265625
20,0.0107421875,-1.0032349,0.14959717,-0.25,-0.6875,0.953125
21,0.0068359375,-0.9834595,0.14178467,0.078125,0.890625,1.21875
22,0.0087890625,-0.98687744,0.14471436,0.671875,-0.015625,0.84375
23,0.015625,-0.99346924,0.14178467,0.9375,-0.015625,1.5625
24,0.014404297,-0.9866333,0.13690186,-0.78125,-0.6875,0.921875
25,0.009521484,-0.989563,0.14715576,0.140625,-0.359375,0.5
26,0.012939453,-0.99957275,0.14007568,0.5625,-1.171875,0.96875
27,0.017578125,-0.99005127,0.14593506,-0.03125,-1.15625,1.015625
28,0.016113281,-0.9976196,0.14520264,-0.125,-0.765625,0.78125
29,0.022705078,-0.987854,0.13983154,-0.34375,-1.09375,0.625
30,0.015136719,-0.9990845,0.14227295,-0.65625,-1.3125,0.34375
31,0.013671875,-0.9885864,0.1383667,-0.296875,-1.375,-0.09375
32,0.019042969,-0.98809814,0.14105225,-0.71875,-1.34375,0.15625
33,0.021240234,-0.989563,0.14105225,-0.484375,-1.15625,0.0625
34,0.013916016,-0.98809814,0.13616943,-0.5625,-1.15625,0.109375
35,0.022216797,-0.9846802,0.13128662,-0.953125,-1.671875,-0.375
36,0.012939453,-1.0061646,0.13909912,-0.765625,-0.5625,0.3125
37,0.018066406,-0.98931885,0.15325928,-0.828125,-1.25,-0.703125
38,0.016113281,-0.98687744,0.12298584,-1.953125,-1.265625,-0.421875
39,0.022460938,-0.97735596,0.15008545,-1.078125,-1.03125,-0.75
40,0.016113281,-1.003479,0.14715576,-0.625,-1.59375,-0.140625
41,0.015625,-0.98150635,0.1408081,-1.03125,-0.734375,-0.1875
42,0.0087890625,-0.98809814,0.14764404,-0.953125,-0.78125,-0.515625
43,0.010498047,-0.9968872,0.15570068,0.203125,-0.90625,0.1875
44,0.016845703,-0.9915161,0.14227295,-0.921875,-0.953125,0.1875
45,0.017578125,-0.98443604,0.13641357,-0.890625,-0.6875,-0.375
46,0.0087890625,-0.9883423,0.15545654,-0.625,-0.421875,0.140625
47,0.010498047,-0.9961548,0.14422607,-0.484375,-1.421875,-0.0625
48,0.018798828,-0.9898071,0.14154053,-0.25,-1.046875,0.03125
49,0.017578125,-0.98394775,0.14691162,-0.5,-0.71875,-0.328125
50,0.013916016,-0.9866333,0.14593506,-0.390625,-1.015625,-0.234375
51,0.010253906,-0.98931885,0.14129639,-0.71875,-0.8125,-0.375
52,0.010986328,-0.9907837,0.14642334,-0.609375,-1.359375,-0.4375
53,0.009765625,-0.9883423,0.15032959,-0.59375,-1.09375,-0.40625
54,0.014404297,-0.98883057,0.14593506,-0.21875,-0.828125,-0.25
55,0.013183594,-0.9973755,0.13763428,-1.09375,-1.21875,-0.453125
56,0.0024414062,-0.98321533,0.15447998,-0.625,-0.984375,-0.21875
57,0.022216797,-0.99420166,0.14788818,-1.328125,-1.015625,-0.890625
58,-0.0063476562,-1.0027466,0.14910889,-0.625,-1.4375,0.03125
59,0.020996094,-0.97735596,0.121276855,-2.34375,-1.640625,-1.390625
60,0.011474609,-0.9981079,0.1552124,-0.921875,-1.3125,-1.171875
61,-0.0021972656,-1.000061,0.1461792,-1.234375,-1.71875,-0.84375
62,-0.0024414062,-0.98883057,0.15618896,-0.421875,-0.59375,-0.546875
63,-0.001953125,-0.99835205,0.15130615,-0.359375,-1.296875,-0.46875
64,0.006591797,-0.9932251,0.15179443,-0.390625,-1.03125,0.015625
65,0.009765625,-0.99224854,0.1473999,-0.75,-0.5625,-0.296875
66,-0.0053710938,-0.9902954,0.15203857,-0.78125,-0.6875,-0.359375
67,-0.0029296875,-0.9924927,0.15423584,0.03125,-0.765625,0.28125
68,-0.0012207031,-0.9944458,0.14276123,-0.140625,-0.984375,-0.046875
69,-0.0034179688,-0.987854,0.15081787,0.671875,-0.703125,0.078125
70,0.0056152344,-0.99298096,0.14764404,0.421875,-0.21875,0.25
71,-0.009033203,-0.9937134,0.1461792,0.265625,-0.375,0.265625
72,-0.0034179688,-0.99468994,0.1461792,0.21875,-0.078125,0.25
73,0.0021972656,-0.9939575,0.14569092,-0.5,-0.53125,0.140625
74,0.0048828125,-0.99005127,0.14349365,-0.671875,-0.859375,-0.046875
75,-0.0034179688,-0.9920044,0.15447998,-0.671875,-1.28125,0.0
76,-0.008056641,-1.0054321,0.1437378,-0.640625,-1.25,0.40625
77,-0.0026855469,-0.9834595,0.15057373,-1.03125,-1.59375,0.03125
78,0.0073242188,-0.9907837,0.14642334,-1.296875,-0.59375,-0.046875
79,-0.01586914,-0.99224854,0.16986084,-0.4375,-1.375,0.265625
80,0.0073242188,-1.0029907,0.12884521,-2.546875,-1.28125,-0.375
81,0.0068359375,-0.98443604,0.15032959,-0.921875,-1.0625,-0.453125
82,0.0009765625,-1.0093384,0.15350342,-1.109375,-1.28125,0.328125
83,-0.006591797,-0.98150635,0.15496826,-0.921875,-0.53125,0.5
84,0.0014648438,-0.9951782,0.15179443,-1.0625,-0.984375,-0.046875
85,0.00048828125,-0.9956665,0.15447998,-0.625,-1.234375,0.5625
86,0.005859375,-0.9985962,0.14837646,-1.296875,-1.125,0.40625
87,-0.001953125,-0.98883057,0.15203857,-1.125,-0.890625,0.046875
88,-0.0061035156,-0.9976196,0.1605835,-0.296875,-0.609375,0.53125
89,0.0031738281,-0.989563,0.14837646,-0.875,-1.4375,0.71875
90,0.0026855469,-0.99176025,0.15887451,-0.859375,-1.59375,0.0625
91,0.0017089844,-0.9949341,0.15203857,-0.796875,-1.046875,-0.125
92,-0.009521484,-0.99591064,0.15618896,-0.921875,-1.390625,-0.3125
93,-0.0053710938,-0.98638916,0.15228271,-0.875,-1.140625,0.171875
94,0.0021972656,-0.9883423,0.15008545,-0.859375,-1.515625,0.21875
95,0.0,-0.99102783,0.15447998,-0.75,-1.4375,0.28125
96,0.001953125,-0.99102783,0.16131592,-1.34375,-1.140625,0.53125
97,-0.0041503906,-0.9951782,0.16156006,-0.0625,-0.546875,0.53125
98,0.010253906,-0.9890747,0.15301514,-0.5625,-0.8125,0.40625
99,-0.0041503906,-0.9898071,0.1671753,-0.125,-0.84375,0.5
100,0.017089844,-0.9973755,0.1593628,-1.90625,-0.78125,0.0625
101,0.0056152344,-0.9883423,0.14422607,-0.671875,-0.875,0.390625
102,0.020507812,-0.97442627,0.15203857,-1.765625,-1.609375,-0.890625
103,0.0007324219,-1.0007935,0.17156982,0.53125,-1.28125,-0.203125
104,0.0029296875,-0.9902954,0.1461792,-0.03125,-1.109375,0.078125
105,-0.0043945312,-0.9829712,0.15789795,-0.0625,-0.53125,-0.1875
106,-0.0024414062,-0.986145,0.15838623,0.359375,-0.078125,0.109375
107,-0.0021972656,-0.9927368,0.15960693,0.40625,0.1875,0.703125
108,0.0,-0.9993286,0.15179443,-0.78125,0.53125,0.46875
109,0.0014648438,-0.9871216,0.15887451,-0.71875,1.078125,0.3125
110,-0.0036621094,-1.0049438,0.14691162,-0.140625,0.09375,0.984375
111,0.0087890625,-0.98516846,0.15594482,-1.34375,-0.5625,0.578125
112,0.00048828125,-0.9854126,0.14569092,-0.15625,-0.1875,0.40625
113,0.012939453,-0.989563,0.15863037,-0.6875,-0.34375,-0.046875
114,0.005859375,-0.99176025,0.15863037,-1.109375,-0.53125,-0.046875
115,-0.00390625,-0.9951782,0.16229248,-0.828125,-0.578125,0.0
116,0.010253906,-0.98760986,0.15985107,-0.65625,-0.65625,-0.078125
117,0.005859375,-0.98516846,0.15814209,-0.859375,-0.734375,-0.09375
118,0.0029296875,-0.9883423,0.15960693,-0.21875,-0.8125,-0.140625
119,0.010253906,-0.9956665,0.15765381,-0.03125,-0.703125,0.0
120,0.005126953,-0.98687744,0.15032959,-1.125,-1.078125,-0.375
121,-0.0041503906,-0.9939575,0.15838623,-0.28125,-0.71875,0.046875
122,-0.001953125,-0.97076416,0.17254639,-0.828125,-1.40625,-1.0625
123,-0.009521484,-1.0061646,0.14593506,-0.4375,-0.859375,-0.078125
124,0.016601562,-0.97735596,0.14715576,-1.484375,-1.265625,-1.40625
125,0.0036621094,-0.9949341,0.16156006,0.453125,-1.046875,-0.703125
126,-0.013916016,-0.9990845,0.14715576,-0.234375,-0.859375,-0.125
127,-0.012939453,-0.98443604,0.16156006,-0.3125,-0.625,-0.40625
128,-0.012451172,-0.98516846,0.15960693,0.421875,-1.375,-0.46875
129,0.0007324219,-0.9907837,0.15106201,0.46875,-0.796875,0.5
130,0.0036621094,-0.991272,0.15081787,-0.125,-0.4375,0.046875
131,-0.004638672,-0.99224854,0.15252686,0.90625,0.0,0.0625
132,-0.0053710938,-0.9927368,0.15472412,0.8125,-0.40625,0.171875
133,-0.0017089844,-0.98809814,0.14666748,-0.375,-0.640625,0.28125
134,0.0041503906,-0.9956665,0.15228271,0.40625,-0.21875,0.625
135,0.00390625,-0.9915161,0.14300537,-0.0625,-0.40625,0.265625
136,-0.0021972656,-0.9907837,0.15667725,-0.34375,-0.046875,-0.140625
137,-0.0007324219,-0.99224854,0.1449585,-0.125,-0.625,-0.015625
138,-0.007080078,-0.99224854,0.14715576,-0.859375,-0.515625,-0.015625
139,-0.0009765625,-0.99468994,0.15618896,-0.34375,-0.5625,0.171875
140,0.0053710938,-0.9812622,0.1461792,-0.453125,-0.359375,0.171875
141,-0.0012207031,-0.98883057,0.15496826,-0.296875,-0.59375,0.3125
142,-0.0026855469,-0.9990845,0.14105225,-1.3125,-0.84375,0.171875
143,-0.015625,-0.98760986,0.15252686,-1.640625,-0.734375,-0.703125
144,-0.0021972656,-0.9985962,0.14324951,-0.890625,-0.15625,-0.28125
145,0.0043945312,-0.9939575,0.16473389,-0.765625,-1.515625,0.40625
146,-0.0031738281,-0.9998169,0.137146,-2.71875,-1.703125,-1.09375
147,0.0048828125,-0.98028564,0.15985107,-1.453125,-1.078125,-1.859375
148,0.0041503906,-1.00177,0.16693115,-1.4375,-0.890625,-1.203125
149,-0.021240234,-0.9849243,0.16204834,-2.15625,-1.125,-0.75
150,-0.027832031,-0.9898071,0.152771,-0.765625,-1.53125,-0.125
151,-0.0075683594,-0.987854,0.1564331,-0.34375,-2.140625,0.5625
152,0.0024414062,-0.9924927,0.15960693,-2.015625,-1.515625,0.28125
153,-0.025146484,-0.99542236,0.15081787,-0.890625,-1.0,0.3125
154,-0.010253906,-0.9871216,0.16766357,0.671875,-0.1875,1.15625
155,-0.001953125,-0.99420166,0.1593628,-0.171875,-0.90625,1.4375
156,-0.0053710938,-0.9883423,0.1605835,-0.5625,-1.296875,0.75
157,-0.0068359375,-0.9871216,0.16448975,-0.25,0.0,1.203125
158,0.00048828125,-0.9902954,0.1605835,-0.671875,-0.140625,1.21875
159,0.0029296875,-0.99664307,0.15618896,-1.109375,-0.390625,1.359375
160,0.0024414062,-0.9859009,0.15423584,-0.90625,-0.6875,1.0625
161,-0.00048828125,-0.98809814,0.1593628,-0.875,-1.203125,0.78125
162,0.005126953,-0.9956665,0.15301514,-0.90625,-1.203125,0.578125
163,0.005859375,-0.987854,0.16156006,-1.078125,-1.078125,0.546875
164,0.0024414062,-0.9937134,0.1593628,-0.28125,-0.640625,0.46875
165,0.010986328,-0.98443604,0.15692139,-0.703125,-1.328125,0.265625
166,0.0036621094,-1.0020142,0.16986084,-0.875,-0.1875,0.53125
167,-0.0007324219,-0.9837036,0.18255615,-0.375,-1.265625,0.34375
168,0.005859375,-0.9915161,0.13641357,-1.765625,-1.375,0.078125
169,0.011962891,-0.97003174,0.16351318,-1.28125,-0.828125,-0.671875
170,0.013916016,-1.0166626,0.15960693,-0.28125,-0.875,0.140625
171,0.0012207031,-0.987854,0.15325928,-1.0,-0.90625,0.078125
172,-0.0075683594,-0.9771118,0.1605835,-0.140625,-1.171875,-0.515625
173,0.010498047,-0.9837036,0.16912842,0.65625,-1.5,-0.171875
174,-0.00024414062,-1.000061,0.15789795,0.328125,-1.6875,0.015625
175,0.0034179688,-0.9920044,0.15863037,-0.109375,-1.703125,-0.375
176,-0.0021972656,-0.99053955,0.16693115,-0.078125,-1.078125,0.46875
177,0.001953125,-1.0007935,0.15423584,-0.03125,-1.6875,0.1875
178,0.0009765625,-0.99005127,0.14666748,-0.625,-1.703125,-0.21875
179,0.0026855469,-0.99176025,0.16912842,-0.125,-0.796875,-0.1875
180,-0.0009765625,-0.9963989,0.15667725,-0.40625,-1.015625,-0.015625
181,-0.0009765625,-0.9949341,0.15911865,0.03125,-0.921875,-0.171875
182,0.013427734,-0.9898071,0.15692139,-0.234375,-1.1875,0.125
183,-0.00048828125,-0.9883423,0.1539917,-0.75,-1.1875,0.28125
184,0.0043945312,-0.9841919,0.15838623,-0.59375,-0.96875,-0.0625
185,0.011474609,-0.98931885,0.15008545,-2.09375,-0.578125,-0.875
186,-0.00390625,-1.0032349,0.15374756,-1.34375,-0.3125,-0.421875
187,-0.016601562,-0.98028564,0.17816162,-1.25,-1.0625,-1.15625
188,-0.010498047,-0.9990845,0.15057373,-0.890625,-0.8125,-0.359375
189,0.011230469,-0.973938,0.14959717,-2.015625,-0.75,-1.171875
190,0.0014648438,-0.9944458,0.17694092,-0.484375,-0.578125,-0.609375
191,-0.013183594,-0.9990845,0.15863037,-0.15625,-0.875,-0.078125
192,-0.014404297,-0.98223877,0.17156982,-0.046875,-0.21875,-0.28125
193,-0.009765625,-1.0027466,0.16375732,0.203125,-0.921875,-0.1875
194,-0.0031738281,-0.9854126,0.15985107,0.0625,-0.5,-0.109375
195,-0.010498047,-0.9898071,0.15765381,-0.0625,-0.328125,-0.5
196,-0.010009766,-0.9932251,0.16448975,0.984375,-0.15625,0.21875
197,-0.0073242188,-0.9961548,0.16253662,0.359375,0.28125,0.609375
198,-0.0034179688,-0.9898071,0.15008545,0.046875,-0.3125,0.234375
199,-0.0053710938,-0.9924927,0.15789795,0.15625,-0.28125,0.203125
200,-0.0043945312,-0.9961548,0.15032959,0.546875,-0.421875,0.125
201,-0.012451172,-0.9976196,0.15057373,0.109375,-0.15625,0.171875
202,-0.009033203,-0.99884033,0.15838623,0.546875,-0.28125,0.09375
203,-0.009033203,-0.9944458,0.16229248,0.203125,-0.1875,0.421875
204,-0.0036621094,-0.9915161,0.14666748,-0.765625,-0.625,0.171875
205,-0.01586914,-0.99542236,0.1593628,0.03125,-0.375,0.359375
206,-0.005126953,-0.9907837,0.17034912,-0.71875,-0.34375,0.484375
207,0.0029296875,-1.0007935,0.1449585,-1.6875,-0.96875,0.6875
208,0.00048828125,-0.9717407,0.15130615,-2.0,-2.296875,-0.3125
209,0.0048828125,-0.9885864,0.15179443,-0.140625,-1.6875,-0.171875
210,-0.010986328,-0.99884033,0.15057373,-1.03125,-1.828125,0.234375
211,-0.004638672,-0.99224854,0.16229248,-0.96875,-1.078125,0.171875
212,-0.005859375,-0.99664307,0.15179443,-0.296875,-1.421875,0.28125
213,0.0056152344,-0.9956665,0.15179443,-0.75,-0.875,0.84375
214,-0.008056641,-0.9849243,0.14715576,-0.921875,-1.90625,0.125
215,-0.012207031,-0.99591064,0.1642456,-0.546875,-0.671875,0.296875
216,-0.0017089844,-0.9981079,0.14984131,-0.53125,-0.859375,1.03125
217,-0.00024414062,-0.9939575,0.15008545,-1.25,-1.640625,0.640625
218,0.0009765625,-0.9907837,0.15472412,-0.53125,-1.140625,0.65625
219,0.009033203,-0.99053955,0.15325928,-1.3125,-1.359375,0.296875
220,0.0007324219,-0.98760986,0.15447998,-0.984375,-1.546875,0.296875
221,-0.0056152344,-0.9985962,0.16546631,-1.328125,-1.484375,0.421875
222,-0.0061035156,-0.9932251,0.16107178,-0.53125,-1.453125,0.53125
223,0.0029296875,-0.9841919,0.15423584,-0.59375,-0.984375,0.4375
224,0.001953125,-0.9890747,0.15667725,-0.828125,-1.515625,0.3125
225,-0.001953125,-0.9885864,0.16912842,-0.265625,-1.671875,0.5
226,0.0026855469,-0.99957275,0.1515503,-0.828125,-1.234375,0.3125
227,-0.0036621094,-0.9871216,0.17010498,0.15625,-1.40625,0.03125
228,0.014404297,-0.9949341,0.15081787,-0.984375,-0.8125,0.296875
229,-0.0075683594,-0.9981079,0.17156982,-0.546875,-1.375,0.6875
230,0.013183594,-0.9807739,0.14202881,-1.203125,-0.90625,-0.515625
231,-0.0012207031,-0.99005127,0.17694092,-0.390625,-0.859375,0.0625
232,-0.0012207031,-1.0003052,0.15887451,0.109375,-1.1875,0.5
233,-0.0031738281,-0.98321533,0.16790771,-0.9375,-0.421875,0.671875
234,-0.0034179688,-0.98760986,0.15765381,-0.46875,-0.890625,0.234375
235,-0.004638672,-0.9854126,0.15960693,-0.484375,-1.515625,0.84375
236,0.011474609,-0.99420166,0.16278076,-0.953125,-1.5,0.625
237,-0.0024414062,-0.9771118,0.16400146,-1.296875,-0.421875,0.21875
238,-0.0017089844,-0.99591064,0.17181396,-0.0625,-1.15625,1.25
239,0.01977539,-0.9841919,0.14959717,-0.796875,-1.421875,1.171875
240,0.014160156,-0.99420166,0.16375732,-1.3125,-0.171875,0.578125
241,0.013671875,-0.9890747,0.1618042,-1.109375,0.03125,-0.140625
242,0.0041503906,-0.9873657,0.16546631,-1.234375,-0.6875,0.03125
243,-0.0009765625,-0.9871216,0.1642456,-0.84375,-1.0,-0.171875
244,0.009521484,-0.98760986,0.16156006,-0.75,-1.203125,-0.09375
245,0.0087890625,-0.9866333,0.16912842,-1.453125,-1.25,-0.53125
246,-0.0026855469,-0.99542236,0.15887451,-0.890625,-1.640625,-0.625
247,0.0007324219,-0.99176025,0.16741943,-0.65625,-1.453125,-0.421875
248,0.0017089844,-0.9920044,0.168396,-0.953125,-1.46875,-0.21875
249,-0.0007324219,-0.9812622,0.1618042,-1.3125,-2.484375,-0.796875
250,0.0034179688,-0.99176025,0.17767334,-0.5,-1.484375,-0.328125
251,0.005859375,-0.97735596,0.1720581,-0.5,-2.0625,-1.359375
252,-0.0063476562,-0.98394775,0.1618042,-1.484375,-2.09375,-0.5
253,0.009277344,-0.96759033,0.15081787,-2.078125,-3.1875,-1.375
254,-0.001953125,-0.9932251,0.18597412,-0.1875,-2.984375,-1.140625
255,0.0,-0.9920044,0.16619873,-0.5625,-2.5625,-0.375
256,-0.0063476562,-0.9783325,0.17059326,-0.4375,-2.296875,-1.140625
257,-0.009765625,-0.9871216,0.17816162,0.09375,-2.46875,-1.390625
258,-0.012207031,-0.9932251,0.17108154,2.171875,-2.90625,-1.03125
259,-0.015380859,-0.99005127,0.16912842,0.53125,-2.578125,-0.765625
260,-0.023925781,-0.9898071,0.17010498,1.03125,-2.046875,-1.390625
261,-0.020019531,-1.0095825,0.17889404,2.203125,-1.28125,-0.578125
262,-0.021484375,-0.9990845,0.16204834,0.828125,-0.140625,-0.359375
263,-0.016845703,-0.9819946,0.16009521,0.921875,-0.59375,-0.203125
264,-0.0146484375,-0.9963989,0.16033936,0.34375,-0.84375,-0.609375
265,-0.02368164,-0.991272,0.15447998,0.640625,-0.84375,-0.78125
266,-0.02368164,-0.99346924,0.152771,0.484375,-0.8125,-0.859375
267,-0.022949219,-0.991272,0.1564331,0.796875,-0.03125,-0.671875
268,-0.0234375,-0.9973755,0.14788818,0.046875,-0.84375,-0.09375
269,-0.01928711,-0.9932251,0.14715576,-0.203125,-0.78125,-0.09375
270,-0.030273438,-0.99298096,0.1473999,-0.125,-0.734375,-0.296875
271,-0.021484375,-0.99542236,0.14935303,0.0,-0.84375,-0.546875
272,-0.026367188,-1.0007935,0.15106201,-0.421875,-0.453125,-0.015625
273,-0.024169922,-0.99420166,0.15863037,-0.46875,-1.859375,-0.65625
274,-0.021972656,-1.0005493,0.14422607,-1.640625,-0.40625,-0.9375
275,-0.049316406,-0.98883057,0.17010498,-0.6875,-0.796875,-0.453125
276,-0.034179688,-1.0022583,0.1383667,-1.484375,-1.984375,-0.109375
277,-0.015380859,-0.9741821,0.1486206,-0.5,-2.53125,-0.546875
278,-0.024902344,-1.010315,0.14837646,0.3125,-1.578125,-0.5
279,-0.046142578,-0.99005127,0.14398193,-0.4375,-0.921875,-0.203125
280,-0.037353516,-0.9951782,0.15496826,-0.59375,-0.890625,0.34375
281,-0.038330078,-0.99102783,0.1564331,-0.953125,-1.359375,0.40625
282,-0.032958984,-0.99542236,0.14910889,-1.078125,-1.046875,0.625
283,-0.028564453,-0.9883423,0.14984131,-1.328125,-0.96875,-0.1875
284,-0.028808594,-0.9859009,0.16473389,-0.5625,-0.8125,0.0625
285,-0.027832031,-1.000061,0.15863037,-0.578125,-1.0625,0.875
286,-0.020263672,-0.99005127,0.14666748,-1.40625,-1.875,0.859375
287,-0.025146484,-0.986145,0.1486206,-0.9375,-0.921875,0.375
288,-0.030273438,-0.99468994,0.15252686,-0.84375,-0.78125,0.5
289,-0.03564453,-0.9961548,0.15545654,-1.0,-1.578125,0.59375
290,-0.028076172,-0.9883423,0.15863037,-0.984375,-0.84375,0.703125
291,-0.02734375,-0.99468994,0.15130615,-1.578125,-1.65625,0.4375
292,-0.03125,-0.9873657,0.15594482,-1.015625,-1.1875,0.453125
293,-0.026367188,-0.99005127,0.1618042,-1.328125,-2.125,0.25
294,-0.02734375,-0.9963989,0.16229248,-0.9375,-1.34375,-0.0625
295,-0.027832031,-0.9898071,0.16107178,-0.84375,-1.359375,0.640625
296,-0.018554688,-0.989563,0.16253662,-0.25,-1.421875,0.78125
297,-0.025390625,-0.9859009,0.16033936,-0.859375,-0.953125,0.53125
298,-0.038330078,-0.9873657,0.16229248,0.03125,-0.828125,0.515625
299,-0.017822266,-0.9907837,0.16326904,-0.71875,-1.046875,0.40625
300,-0.032470703,-0.99591064,0.15447998,-0.703125,-0.375,0.65625
301,-0.014160156,-0.9885864,0.1708374,-1.28125,-0.28125,-0.09375
302,-0.017333984,-0.9873657,0.14105225,-0.890625,-0.53125,0.546875
303,-0.022705078,-0.97857666,0.16278076,-1.265625,-0.6875,0.015625
304,-0.018554688,-1.005188,0.17279053,-0.078125,-0.671875,0.734375
305,-0.019042969,-0.9873657,0.15789795,-1.171875,-0.046875,0.59375
306,-0.029296875,-0.9817505,0.16204834,-0.53125,0.390625,0.375
307,-0.026855469,-0.99102783,0.15374756,-0.546875,-1.21875,0.375
308,-0.018554688,-0.987854,0.1564331,-0.3125,-0.765625,0.890625
309,-0.020751953,-0.9890747,0.15008545,-0.796875,-0.625,0.453125
310,-0.014160156,-0.9717407,0.16619873,-0.578125,-1.0,0.078125
311,-0.015625,-0.9927368,0.15887451,-0.03125,-1.5,0.078125
312,-0.015380859,-0.98321533,0.16595459,0.25,-1.125,0.203125
313,-0.0029296875,-0.9885864,0.152771,-0.203125,-0.0625,-0.234375
314,-0.024658203,-0.9924927,0.16668701,-0.046875,-0.515625,-0.5
315,-0.0234375,-0.99102783,0.15814209,-0.140625,-0.46875,-0.1875
316,-0.020996094,-0.99005127,0.16546631,-0.03125,-0.421875,-0.171875
317,-0.020751953,-0.99176025,0.15789795,0.0,-0.6875,-0.078125
318,-0.016845703,-0.99468994,0.14984131,-0.25,-0.71875,0.0625
319,-0.021240234,-0.9939575,0.15667725,-0.203125,-0.6875,-0.25
320,-0.022949219,-0.9885864,0.1605835,-0.1875,-0.96875,-0.1875
321,-0.018066406,-0.9834595,0.1630249,-0.578125,-1.203125,-0.25
322,-0.025634766,-0.9961548,0.15301514,-0.421875,-0.765625,0.015625
323,-0.020996094,-0.9898071,0.1461792,-0.84375,-0.9375,-0.25
324,-0.026367188,-0.99420166,0.1593628,-0.328125,-0.734375,0.21875
325,-0.026123047,-0.98150635,0.17254639,-0.9375,-0.59375,-0.75
326,-0.024658203,-0.99542236,0.13690186,-0.453125,-0.75,0.046875
327,-0.0087890625,-0.9717407,0.14276123,-1.515625,-0.859375,-1.0625
328,-0.030273438,-1.0044556,0.17376709,-0.078125,-1.015625,-0.609375
329,-0.028320312,-0.9963989,0.15692139,-0.421875,-0.390625,0.015625
330,-0.028564453,-0.9902954,0.16082764,-0.703125,-0.171875,-0.125
331,-0.024414062,-0.9973755,0.15203857,-0.59375,-1.28125,-0.21875
332,-0.02368164,-0.98931885,0.15618896,-0.265625,-0.796875,-0.046875
333,-0.020507812,-0.9924927,0.15716553,-0.546875,-0.53125,0.28125
334,-0.029052734,-0.98809814,0.15423584,-0.5,-0.359375,-0.375
335,-0.030273438,-0.99005127,0.16815186,0.53125,-0.59375,-0.296875
336,-0.02319336,-0.9993286,0.1461792,0.0,-0.703125,0.59375
337,-0.034423828,-0.99713135,0.15057373,0.390625,-0.1875,0.5625
338,-0.024414062,-0.9944458,0.16107178,0.953125,0.296875,0.40625
339,-0.025634766,-0.98516846,0.14837646,1.40625,0.046875,0.390625
340,-0.020019531,-0.98638916,0.14593506,1.03125,-0.078125,0.171875
341,-0.013427734,-1.0007935,0.14007568,1.140625,0.15625,0.78125
342,-0.017822266,-1.0117798,0.1473999,0.390625,0.140625,0.71875
343,-0.0234375,-0.98883057,0.13690186,0.125,-0.359375,0.375
344,-0.025390625,-0.9883423,0.13909912,0.828125,0.09375,0.578125
345,-0.028076172,-0.9973755,0.14105225,0.765625,0.296875,0.515625
346,-0.020996094,-0.99786377,0.14178467,0.453125,0.78125,0.3125
347,-0.02319336,-0.9873657,0.14349365,0.921875,1.125,0.15625
348,-0.011962891,-0.99346924,0.14031982,0.65625,1.3125,0.40625
349,-0.017333984,-0.98883057,0.13397217,-0.4375,-0.5,0.0625
350,-0.013427734,-1.0015259,0.11932373,0.09375,-0.515625,0.21875
351,-0.040039062,-0.99224854,0.14129639,0.78125,-0.953125,0.71875
352,-0.018066406,-1.0064087,0.109069824,-1.390625,1.265625,0.875
353,-0.01953125,-0.97613525,0.12298584,-1.0,0.71875,-0.21875
354,-0.030761719,-1.0161743,0.124694824,-0.015625,0.703125,0.765625
355,-0.016601562,-0.99542236,0.12054443,-0.25,1.03125,0.3125
356,-0.020507812,-0.99957275,0.1239624,-1.125,0.65625,-0.421875
357,-0.0234375,-1.0015259,0.13104248,-1.5625,0.59375,-0.015625
358,-0.018798828,-0.98101807,0.13226318,-1.640625,1.015625,0.4375
359,-0.0234375,-0.9824829,0.13641357,-1.71875,0.078125,-0.296875
360,-0.012939453,-0.9783325,0.19647217,0.265625,-0.09375,-0.15625
361,0.03149414,-0.98760986,0.16473389,-1.8125,-0.046875,-0.84375
362,0.013427734,-0.96588135,0.17840576,-0.28125,-1.421875,-0.59375
363,-0.0024414062,-1.0007935,0.17694092,0.25,-1.703125,0.71875
364,-0.009521484,-0.9932251,0.14886475,-1.015625,-1.609375,1.265625
365,-0.0031738281,-0.99102783,0.15472412,-1.25,-0.4375,0.90625
366,-0.0048828125,-0.98638916,0.14642334,-1.078125,-1.28125,1.0
367,-0.0048828125,-0.98321533,0.15130615,0.671875,-1.625,1.046875
368,0.0146484375,-0.97857666,0.14227295,0.90625,-1.34375,1.015625
369,0.0024414062,-1.0007935,0.15179443,-0.078125,-1.078125,0.828125
370,0.0024414062,-1.0037231,0.15765381,-0.015625,-1.21875,0.671875
371,0.016113281,-0.99005127,0.14422607,-0.578125,-1.71875,0.5625
372,-0.00048828125,-0.99346924,0.15838623,-0.5,-1.296875,0.890625
373,0.010009766,-0.991272,0.15472412,-0.203125,-0.84375,0.546875
374,-0.02319336,-0.9990845,0.12982178,-0.046875,-0.234375,-0.84375
375,-0.037597656,-1.0025024,0.11468506,-0.4375,-0.515625,0.015625
376,-0.03955078,-0.9849243,0.11395264,-0.84375,-0.640625,-0.5625
377,-0.041015625,-0.99957275,0.11834717,-0.421875,-0.8125,-0.609375
378,-0.029785156,-0.9968872,0.11273193,0.125,-0.28125,0.53125
379,-0.036376953,-0.9968872,0.10858154,-0.890625,-0.125,0.046875
380,-0.034179688,-0.99713135,0.1083374,-0.515625,-0.171875,0.359375
381,-0.03466797,-1.0108032,0.11956787,-1.15625,-0.109375,0.453125
382,-0.029541016,-0.99713135,0.11907959,-0.734375,-0.5625,0.625
383,-0.028808594,-0.99102783,0.12054443,-1.171875,-0.84375,0.296875
384,-0.025634766,-0.9944458,0.13031006,-1.40625,-0.921875,0.28125
385,-0.034423828,-0.9976196,0.11956787,-1.78125,-1.515625,-0.078125
386,-0.026855469,-0.9944458,0.12615967,-1.65625,-1.5625,-0.328125
387,-0.029296875,-0.987854,0.12249756,-0.21875,-1.796875,0.09375
388,-0.041992188,-0.99591064,0.11932373,-0.1875,-1.65625,0.40625
389,-0.03491211,-0.9924927,0.11785889,-0.4375,-1.34375,0.09375
390,-0.029541016,-0.98931885,0.12225342,-0.78125,-1.40625,0.3125
391,-0.037109375,-0.99176025,0.120788574,-1.0,-1.171875,0.203125
392,-0.040039062,-0.9998169,0.12567139,-0.765625,-0.90625,0.5
393,-0.033447266,-1.0003052,0.12005615,-0.53125,-0.484375,0.84375
394,-0.022705078,-0.99664307,0.1161499,-1.359375,-0.65625,0.5625
395,-0.033691406,-0.99420166,0.13201904,-0.546875,-0.09375,1.109375
396,-0.021972656,-0.98931885,0.13812256,-1.515625,-0.90625,-0.390625
397,-0.025634766,-1.0078735,0.11932373,-0.734375,0.171875,1.0
398,-0.020263672,-0.9763794,0.105163574,-2.65625,-1.078125,-0.6875
399,-0.02758789,-1.0044556,0.14031982,-0.21875,-0.875,0.109375
400,-0.027832031,-0.9961548,0.13153076,-1.03125,-0.4375,0.8125
401,-0.041259766,-0.98687744,0.13494873,-1.609375,-0.078125,0.25
402,-0.028564453,-0.9981079,0.12835693,-0.84375,-0.828125,0.296875
403,-0.029052734,-0.99591064,0.13275146,-0.65625,-1.234375,0.53125
404,-0.020263672,-1.003479,0.13104248,-1.546875,-0.90625,0.671875
405,-0.03491211,-0.99005127,0.13128662,-1.5,-1.546875,-0.0625
406,-0.02709961,-0.9920044,0.13983154,-0.21875,-0.484375,0.265625
407,-0.030517578,-0.99713135,0.1239624,-1.3125,-1.375,0.0625
408,-0.018798828,-0.98223877,0.12957764,0.21875,-0.828125,0.15625
409,-0.022460938,-0.98565674,0.1281128,-0.453125,-1.140625,0.171875
410,-0.021484375,-1.0007935,0.12591553,0.078125,-0.875,-0.046875
411,-0.022705078,-0.99053955,0.12738037,0.21875,-0.734375,-0.0625
412,-0.024902344,-0.9924927,0.124694824,0.21875,-1.203125,-0.4375
413,-0.022949219,-0.9973755,0.12567139,0.359375,-1.390625,-0.46875
414,-0.022705078,-1.0025024,0.12567139,0.171875,-1.453125,-0.515625
415,-0.03149414,-0.99884033,0.12713623,0.265625,-0.796875,-0.328125
416,-0.036621094,-0.9915161,0.12249756,0.71875,-0.6875,-0.25
417,-0.024169922,-0.9902954,0.1251831,0.9375,-0.75,0.0625
418,-0.034179688,-0.9976196,0.1227417,0.609375,-0.90625,0.203125
419,-0.029052734,-0.9951782,0.11541748,0.515625,-0.8125,-0.09375
420,-0.033203125,-0.99786377,0.11907959,0.9375,-0.53125,0.375
421,-0.025146484,-0.9927368,0.113708496,0.015625,-0.78125,-0.734375
422,-0.043945312,-1.0059204,0.112976074,1.15625,-0.25,0.53125
423,-0.024414062,-0.9837036,0.101257324,-1.53125,-0.84375,-1.15625
424,-0.026611328,-0.99542236,0.12054443,0.25,-0.859375,-0.40625
425,-0.045410156,-1.0020142,0.11273193,-0.796875,-0.640625,-0.5
426,-0.039794922,-0.9939575,0.1149292,-0.375,0.140625,0.046875
427,-0.031982422,-0.9998169,0.11883545,-0.890625,-0.125,-0.453125
428,-0.029541016,-0.9898071,0.11590576,-0.453125,-0.390625,0.359375
429,-0.035888672,-0.99786377,0.11517334,-0.828125,-0.140625,0.421875
430,-0.036865234,-0.99298096,0.11566162,-0.4375,-0.671875,-0.34375
431,-0.041259766,-1.0039673,0.121520996,0.203125,-0.125,0.015625
432,-0.03564453,-0.9993286,0.11395264,-0.546875,-0.09375,0.671875
433,-0.029541016,-0.99102783,0.1083374,-0.390625,-0.671875,0.328125
434,-0.033203125,-0.9915161,0.11932373,0.0,-0.140625,0.28125
435,-0.03149414,-1.0012817,0.1083374,-0.421875,-0.78125,0.078125
436,-0.04345703,-0.99591064,0.117614746,-0.65625,-0.890625,0.109375
437,-0.02758789,-0.9998169,0.11590576,-0.9375,-1.21875,-0.03125
438,-0.028564453,-1.0012817,0.12030029,-1.421875,-1.3125,-0.015625
439,-0.040527344,-0.99713135,0.12005615,-1.21875,-1.515625,0.234375
440,-0.037109375,-0.9981079,0.11517334,-0.734375,-1.609375,0.15625
441,-0.033447266,-0.989563,0.11541748,-0.3125,-1.171875,0.0625
442,-0.026611328,-0.9924927,0.112976074,-0.671875,-2.03125,-0.21875
443,-0.032226562,-0.9961548,0.120788574,-1.5,-1.6875,-0.3125
444,-0.037353516,-1.0025024,0.112976074,-1.234375,-1.203125,0.25
445,-0.03515625,-0.98883057,0.11907959,-0.875,-0.890625,0.484375
446,-0.033447266,-0.99005127,0.112976074,-1.046875,-1.015625,0.4375
447,-0.033691406,-0.98760986,0.12298584,-1.359375,-1.40625,0.1875
448,-0.027832031,-1.0066528,0.11663818,-1.46875,0.21875,0.71875
449,-0.049804688,-0.9859009,0.14056396,-1.390625,-0.84375,0.765625
450,-0.031982422,-1.0046997,0.105407715,-2.9375,-0.859375,0.125
451,-0.02709961,-0.9783325,0.13641357,-1.359375,-1.5,-0.5
452,-0.032958984,-1.0110474,0.1317749,-0.796875,-1.140625,0.515625
453,-0.03955078,-0.99542236,0.1239624,-1.515625,-0.03125,0.609375
454,-0.037353516,-0.9956665,0.12738037,0.75,0.125,0.96875
455,-0.032470703,-0.9993286,0.11907959,-1.875,-1.515625,1.59375
456,-0.041992188,-0.98883057,0.12689209,0.03125,-0.78125,1.125
457,-0.014404297,-0.98687744,0.13128662,-0.734375,-0.5625,0.96875
458,-0.037597656,-0.9915161,0.12347412,-0.421875,-1.09375,0.46875
459,-0.020751953,-1.0073853,0.13201904,-0.703125,-0.796875,0.515625
460,-0.020263672,-0.9924927,0.12371826,-1.421875,-1.015625,0.71875
461,-0.020019531,-0.9873657,0.1317749,0.109375,-1.09375,0.828125
462,-0.020263672,-1.0032349,0.1281128,-1.109375,-0.828125,0.609375
463,-0.029296875,-0.99542236,0.12640381,-0.765625,-0.984375,0.9375
464,-0.01586914,-0.989563,0.12860107,-0.078125,-0.4375,0.703125
465,-0.012451172,-0.99005127,0.12249756,-0.109375,-1.25,0.484375
466,-0.018310547,-0.98760986,0.1251831,0.109375,-1.0,0.328125
467,-0.025146484,-0.9985962,0.12542725,0.203125,-0.84375,-0.03125
468,-0.022949219,-0.99468994,0.13201904,-0.21875,-0.8125,-0.265625
469,-0.01928711,-0.9927368,0.12713623,-0.125,-0.75,-0.109375
470,-0.021972656,-0.99346924,0.12713623,0.21875,-0.734375,-0.28125
471,-0.017089844,-0.99664307,0.12005615,0.09375,-0.515625,0.109375
472,-0.015380859,-0.9949341,0.12371826,-0.59375,-1.28125,-0.375
473,-0.02734375,-1.005188,0.12591553,-0.234375,-0.359375,0.234375
474,-0.036376953,-0.98150635,0.14007568,-0.21875,-0.890625,-0.421875
475,-0.013671875,-1.0049438,0.11248779,-0.09375,-0.734375,0.28125
476,-0.010986328,-0.9871216,0.11834717,-1.046875,-1.28125,-0.78125
477,-0.02368164,-1.0027466,0.12762451,-0.078125,-1.484375,-0.078125
478,-0.016357422,-0.9854126,0.11468506,0.1875,-1.140625,-0.25
479,-0.021972656,-0.98760986,0.121032715,-0.375,-1.171875,-1.046875
480,-0.025146484,-0.9993286,0.11566162,-0.109375,-1.5625,-0.671875
481,-0.033691406,-1.0022583,0.13031006,0.25,-0.84375,-0.265625
482,-0.017333984,-1.0010376,0.117614746,-0.203125,-0.734375,0.21875
483,-0.022949219,-0.9854126,0.121276855,-0.859375,-0.625,-0.3125
484,-0.03173828,-1.0005493,0.1281128,0.421875,-0.71875,0.171875
485,-0.018554688,-0.9998169,0.11224365,0.09375,-1.125,0.328125
486,-0.024169922,-0.989563,0.11785889,-0.078125,-1.03125,-0.046875
487,-0.01928711,-0.99224854,0.11981201,0.03125,-1.0625,-0.25
488,-0.029541016,-0.99298096,0.11639404,0.0625,-0.75,0.046875
489,-0.028564453,-0.989563,0.11663818,0.0,-0.640625,-0.015625
490,-0.025146484,-0.99713135,0.113708496,0.03125,-0.96875,0.03125
491,-0.032714844,-1.0020142,0.11419678,-0.40625,-0.9375,-0.140625
492,-0.030029297,-0.9951782,0.109313965,0.015625,-0.90625,-0.046875
493,-0.030761719,-0.9949341,0.11102295,-0.09375,-0.5625,-0.140625
494,-0.036621094,-0.99713135,0.109802246,0.015625,-0.6875,0.09375
495,-0.021972656,-1.000061,0.105407715,-0.109375,-0.453125,0.046875
496,-0.02709961,-0.9885864,0.11883545,-0.140625,-0.796875,0.09375
497,-0.026367188,-1.0025024,0.11175537,0.140625,-0.640625,0.421875
498,-0.031982422,-1.0025024,0.10736084,-0.625,-0.9375,-0.1875
499,-0.03149414,-0.9973755,0.11004639,-0.0625,-0.09375,0.328125
500,-0.020507812,-0.9927368,0.11224365,-0.9375,-0.796875,-0.359375
501,-0.033203125,-1.0078735,0.11224365,-0.21875,-0.28125,0.609375
502,-0.018554688,-0.9768677,0.08856201,-1.78125,-0.734375,-0.375
503,-0.02319336,-0.9973755,0.11224365,-0.53125,-1.078125,-0.671875
504,-0.037597656,-1.0020142,0.1071167,-0.890625,-0.78125,-0.296875
505,-0.040039062,-0.98883057,0.11639404,-0.171875,-0.515625,-0.203125
506,-0.029541016,-1.0044556,0.113708496,-0.765625,-0.703125,0.015625
507,-0.03540039,-0.98883057,0.12054443,-0.234375,-0.984375,0.0
508,-0.026123047,-0.99786377,0.11224365,-0.359375,-0.6875,0.234375
509,-0.030029297,-0.98883057,0.11102295,-0.625,-0.96875,-0.203125
510,-0.03173828,-0.99420166,0.121520996,-0.546875,-0.890625,0.203125
511,-0.028564453,-1.0056763,0.11004639,-0.53125,-0.5625,0.203125
512,-0.030517578,-0.9902954,0.10662842,-0.3125,-0.78125,0.21875
513,-0.029541016,-0.9937134,0.1149292,-0.703125,-0.546875,0.109375
514,-0.02758789,-0.9998169,0.113464355,-0.453125,-0.953125,0.046875
515,-0.03100586,-1.0003052,0.109313965,-0.53125,-0.71875,0.171875
516,-0.034179688,-1.0012817,0.11273193,-0.890625,-0.84375,0.0
517,-0.028564453,-0.9956665,0.117126465,-1.453125,-1.84375,-0.09375
518,-0.03125,-1.000061,0.117370605,-1.65625,-2.0,-0.4375
519,-0.03515625,-0.9961548,0.11590576,-0.796875,-1.5625,-0.28125
520,-0.025634766,-0.99298096,0.11639404,-0.78125,-1.1875,-0.0625
521,-0.029785156,-0.9985962,0.11151123,-1.0,-1.46875,-0.09375
522,-0.034423828,-1.0037231,0.117614746,-1.109375,-1.015625,-0.03125
523,-0.03173828,-0.99835205,0.11395264,-0.96875,-0.65625,0.359375
524,-0.038085938,-0.9932251,0.121276855,-1.234375,-0.9375,0.359375
525,-0.032470703,-0.9961548,0.12298584,-0.96875,-0.796875,0.765625
526,-0.030517578,-0.99053955,0.116882324,-1.484375,-1.109375,0.421875
527,-0.034423828,-1.0064087,0.11981201,-0.921875,0.109375,0.96875
528,-0.033447266,-0.98101807,0.14788818,-1.625,-1.125,0.0625
529,-0.021484375,-0.9968872,0.105407715,-1.453125,-0.203125,0.4375
530,-0.01928711,-0.9717407,0.117614746,-2.078125,-1.109375,-0.4375
531,-0.02734375,-1.0134888,0.13641357,-0.765625,-1.109375,0.328125
532,-0.02709961,-1.000061,0.11468506,-1.796875,-0.609375,0.328125
533,-0.037353516,-0.986145,0.13275146,-1.4375,-0.46875,0.28125
534,-0.015625,-0.9985962,0.121520996,-1.125,-1.046875,0.328125
535,-0.026855469,-0.99102783,0.13201904,-0.984375,-1.0625,0.484375
536,-0.021484375,-0.9968872,0.1359253,-1.734375,-0.859375,0.5625
537,-0.033203125,-0.9885864,0.12762451,-1.171875,-0.828125,0.59375
538,-0.028076172,-0.99713135,0.14056396,-0.671875,-0.546875,0.609375
539,-0.017333984,-1.0015259,0.12640381,-1.234375,-1.375,0.53125
540,-0.022949219,-0.99224854,0.13250732,-0.71875,-0.828125,0.40625
541,-0.026611328,-0.991272,0.13006592,-0.984375,-0.890625,0.234375
542,-0.030517578,-0.9956665,0.1293335,-0.890625,-0.875,0.640625
543,-0.029052734,-0.99102783,0.13031006,-0.734375,-1.40625,0.453125
544,-0.017822266,-0.99420166,0.12591553,-0.3125,-1.25,0.53125
545,-0.013916016,-0.987854,0.13128662,0.15625,-1.40625,0.40625
546,-0.01953125,-1.0022583,0.13421631,-0.390625,-1.0,0.125
547,-0.018554688,-0.99542236,0.13421631,-0.40625,-0.65625,-0.234375
548,-0.02368164,-0.98687744,0.1359253,-0.46875,-0.75,-0.03125
549,-0.021240234,-0.9866333,0.12786865,-0.375,-1.1875,-0.046875
550,-0.02709961,-0.989563,0.13665771,0.515625,-0.921875,-0.171875
551,-0.022216797,-1.0003052,0.124938965,-0.109375,-0.859375,-0.046875
552,-0.026611328,-0.98809814,0.13348389,0.765625,-1.4375,-0.359375
553,-0.01953125,-1.0046997,0.1251831,-0.390625,-0.734375,-0.421875
554,-0.037109375,-1.0005493,0.14276123,0.625,-1.03125,-0.15625
555,-0.021728516,-0.99176025,0.117126465,-0.703125,-0.890625,-0.78125
556,-0.021972656,-0.9898071,0.12054443,-0.140625,-1.375,-1.3125
557,-0.03100586,-1.0046997,0.13397217,0.421875,-1.4375,-0.515625
558,-0.025878906,-0.9854126,0.12567139,-0.15625,-0.75,-0.34375
559,-0.03857422,-0.9944458,0.12689209,0.15625,-0.703125,-0.421875
560,-0.03149414,-1.0010376,0.124694824,0.171875,-1.25,-0.265625
561,-0.030761719,-1.0005493,0.12298584,0.5,-0.796875,0.0
562,-0.022460938,-0.99542236,0.11029053,0.109375,-0.875,0.03125
563,-0.038330078,-0.98931885,0.12713623,0.53125,-0.53125,0.0
564,-0.029785156,-1.0027466,0.11859131,0.625,-0.828125,0.359375
565,-0.028320312,-0.9927368,0.11810303,-0.171875,-0.625,0.546875
566,-0.022705078,-0.9973755,0.12225342,-0.0625,-0.5,-0.015625
567,-0.028320312,-0.9998169,0.11029053,0.046875,-0.828125,-0.046875
568,-0.03466797,-1.0005493,0.12005615,-0.1875,-0.4375,0.203125
569,-0.03857422,-0.9981079,0.117370605,-0.578125,-0.484375,0.015625
570,-0.027832031,-0.9976196,0.12298584,-0.421875,-0.84375,0.109375
571,-0.030517578,-0.9985962,0.11932373,-0.328125,-0.75,0.109375
572,-0.032958984,-0.9998169,0.11834717,0.015625,-0.65625,-0.0625
573,-0.028320312,-0.99664307,0.11590576,0.078125,-0.421875,0.21875
574,-0.033935547,-0.99591064,0.1161499,-0.15625,-0.53125,0.328125
575,-0.02734375,-0.9961548,0.109802246,-0.34375,-0.796875,-0.09375
576,-0.038085938,-0.99591064,0.11444092,-0.203125,-0.6875,0.21875
577,-0.034179688,-1.0003052,0.11444092,-0.15625,-0.734375,0.28125
578,-0.020019531,-0.99102783,0.09954834,-0.4375,-0.953125,-0.25
579,-0.038085938,-1.0054321,0.113220215,-0.328125,-0.296875,0.28125
580,-0.032470703,-0.99542236,0.109558105,-0.828125,-0.75,-0.328125
581,-0.036132812,-1.0044556,0.11810303,0.375,-0.1875,0.78125
582,-0.022216797,-0.98638916,0.086364746,-1.890625,-1.09375,-0.421875
583,-0.030517578,-0.99591064,0.11590576,-0.328125,-0.953125,-0.578125
584,-0.034179688,-0.99786377,0.10736084,-0.734375,-0.78125,0.078125
585,-0.03564453,-0.99346924,0.11810303,-0.203125,-0.40625,0.046875
586,-0.031982422,-1.0003052,0.113708496,-0.234375,-0.46875,0.0
587,-0.03955078,-0.9885864,0.11273193,-0.546875,-0.875,0.390625
588,-0.028808594,-0.9927368,0.11029053,-0.09375,-0.484375,0.25
589,-0.033447266,-0.99884033,0.10882568,-0.765625,-0.921875,0.03125
590,-0.03515625,-0.99346924,0.120788574,-0.609375,-0.78125,-0.03125
591,-0.030029297,-1.000061,0.1149292,-0.453125,-0.859375,0.40625
592,-0.030029297,-1.0022583,0.11419678,-1.234375,-1.28125,-0.015625
593,-0.033691406,-1.003479,0.11932373,-1.625,-1.453125,0.0625
594,-0.034423828,-0.9907837,0.113708496,-1.625,-1.78125,-0.171875
595,-0.034423828,-0.9927368,0.11273193,-0.484375,-1.734375,0.1875
596,-0.034423828,-0.99786377,0.11077881,-1.109375,-1.546875,-0.40625
597,-0.029541016,-0.9902954,0.1149292,-0.546875,-1.375,0.0625
598,-0.029785156,-0.99346924,0.1149292,0.3125,-0.5625,0.625
599,-0.022949219,-1.0029907,0.11199951,-0.109375,-0.421875,1.09375
600,-0.033447266,-1.0029907,0.11907959,-0.671875,-0.8125,0.921875
601,-0.032958984,-0.9956665,0.116882324,-0.609375,-1.03125,0.90625
602,-0.029052734,-0.9939575,0.10760498,-0.375,-0.8125,1.03125
603,-0.032714844,-1.0020142,0.11859131,-0.609375,-0.359375,0.828125
604,-0.029052734,-1.0032349,0.105651855,0.21875,0.3125,1.546875
605,-0.027832031,-0.9937134,0.11029053,-0.328125,0.53125,1.5
606,-0.020751953,-0.99542236,0.11175537,-0.3125,0.375,1.3125
607,-0.017822266,-1.0081177,0.117614746,-0.015625,1.15625,1.9375
608,-0.021484375,-0.9846802,0.1251831,-1.40625,0.046875,0.171875
609,-0.019042969,-0.99786377,0.10418701,-0.234375,0.765625,1.265625
610,-0.0073242188,-0.9829712,0.101745605,-1.671875,-0.765625,0.078125
611,-0.017578125,-1.008606,0.12713623,-0.359375,-1.109375,0.28125
612,-0.0068359375,-0.9932251,0.109313965,-0.421875,-0.5625,0.671875
613,-0.018310547,-0.98809814,0.11029053,-0.765625,-0.828125,0.203125
614,-0.02368164,-0.9915161,0.10687256,0.765625,-1.234375,0.0625
615,-0.0041503906,-0.98687744,0.10491943,1.71875,-0.421875,1.0625
616,-0.012207031,-1.0010376,0.09906006,0.578125,-0.765625,0.875
617,-0.015136719,-0.98638916,0.10784912,-0.109375,-0.359375,-0.046875
618,-0.014404297,-1.0039673,0.11859131,0.40625,-0.96875,-0.046875
619,-0.006591797,-1.00177,0.10662842,-0.578125,-1.09375,-0.15625
620,-0.0073242188,-0.99053955,0.10443115,-0.84375,-1.296875,-0.5
621,-0.010009766,-0.99884033,0.11224365,-0.96875,-1.046875,-0.296875
622,-0.017822266,-0.9949341,0.101745605,-0.703125,-0.96875,-0.5
623,-0.014160156,-0.9981079,0.10638428,-0.125,-0.578125,0.09375
624,-0.01586914,-0.99786377,0.109802246,-0.265625,-0.796875,0.03125
625,-0.020751953,-0.9998169,0.10394287,-0.609375,-1.296875,0.15625
626,-0.024169922,-0.9939575,0.10247803,-0.421875,-1.359375,-0.1875
627,-0.017578125,-1.0025024,0.10394287,-0.265625,-1.3125,-0.09375
628,-0.01171875,-0.9990845,0.10394287,-0.71875,-1.390625,-0.140625
629,-0.016113281,-0.98638916,0.10345459,-0.6875,-1.59375,-0.578125
630,-0.01171875,-0.99298096,0.105163574,0.25,-1.453125,-0.359375
631,-0.015380859,-1.0003052,0.097839355,0.140625,-1.40625,-0.296875
632,-0.023925781,-0.9968872,0.109802246,0.515625,-1.234375,-0.375
633,-0.0073242188,-0.99957275,0.09564209,-0.890625,-0.34375,-0.328125
634,-0.032470703,-1.0056763,0.124938965,0.375,-0.40625,0.265625
635,-0.012939453,-0.99664307,0.090270996,-1.34375,-0.828125,-0.3125
636,-0.010253906,-0.986145,0.10028076,-1.109375,-1.1875,-0.90625
637,-0.027832031,-1.0083618,0.11395264,-0.515625,-0.9375,-0.421875
638,-0.03100586,-0.99053955,0.101989746,-0.65625,-0.75,-0.015625
639,-0.020263672,-0.9937134,0.097839355,-0.421875,-0.609375,-0.328125
640,-0.02368164,-0.99664307,0.10272217,-0.453125,-0.9375,-0.03125
641,-0.025878906,-0.9973755,0.0993042,-0.015625,-0.953125,0.15625
642,-0.01977539,-0.9990845,0.09490967,-0.140625,-0.421875,0.0625
643,-0.032470703,-0.989563,0.10076904,-0.5,-0.484375,0.125
644,-0.025634766,-1.0027466,0.10443115,0.015625,-0.484375,0.25
645,-0.017578125,-1.0027466,0.09710693,-0.453125,-0.765625,0.5
646,-0.0234375,-0.9981079,0.10272217,-0.328125,-0.4375,0.015625
647,-0.01977539,-1.0005493,0.09881592,-0.28125,-0.78125,0.0
648,-0.030029297,-0.99957275,0.09906006,-0.5625,-0.375,0.15625
649,-0.026367188,-0.99713135,0.101989746,-0.234375,-0.609375,0.03125
650,-0.021240234,-0.9939575,0.10369873,-0.59375,-0.75,0.0
651,-0.024169922,-0.9949341,0.101501465,-0.5625,-0.984375,-0.140625
652,-0.028076172,-1.0003052,0.10101318,-0.390625,-0.625,-0.125
653,-0.021484375,-1.0003052,0.10003662,-0.359375,-0.953125,-0.15625
654,-0.018310547,-0.99664307,0.109802246,-0.59375,-0.625,0.03125
655,-0.03100586,-0.99468994,0.10418701,-0.546875,-0.734375,0.015625
656,-0.026855469,-1.0007935,0.097595215,-0.421875,-0.9375,-0.109375
657,-0.018066406,-0.99884033,0.10345459,-0.359375,-1.03125,0.15625
658,-0.02319336,-1.0022583,0.105895996,-0.75,-0.875,-0.0625
659,-0.022705078,-1.0015259,0.09515381,-1.234375,-1.390625,-0.21875
660,-0.028320312,-1.0083618,0.11029053,-1.046875,-1.28125,-0.015625
661,-0.02319336,-1.0061646,0.11102295,-2.96875,-2.140625,-0.78125
662,-0.041748047,-1.00177,0.10858154,-1.6875,-1.265625,-0.40625
663,-0.017822266,-0.97735596,0.08538818,-2.75,-2.015625,-1.46875
664,-0.021972656,-0.99102783,0.12005615,-1.046875,-2.75,-1.28125
665,-0.033935547,-1.0130005,0.105163574,-2.1875,-1.90625,0.03125
666,-0.040771484,-0.98150635,0.11053467,-1.171875,-1.125,-0.234375
667,-0.040283203,-1.0020142,0.11468506,-1.0,-1.375,0.125
668,-0.036865234,-0.99005127,0.12200928,-1.3125,-1.53125,0.4375
669,-0.031982422,-0.99298096,0.11224365,-1.65625,-1.296875,0.171875
670,-0.036132812,-0.99102783,0.11639404,-1.109375,-1.0,0.140625
671,-0.030761719,-1.0022583,0.12762451,-0.796875,-0.53125,0.71875
672,-0.02734375,-1.0044556,0.11932373,-0.75,-0.1875,0.953125
673,-0.02734375,-0.9951782,0.109069824,-1.40625,-1.1875,0.734375
674,-0.02734375,-0.99542236,0.12615967,-0.78125,-0.75,0.828125
675,-0.019042969,-0.99298096,0.11883545,-0.953125,-0.53125,0.640625
676,-0.028808594,-0.9993286,0.11810303,-0.734375,-0.75,0.328125
677,-0.024414062,-0.991272,0.12567139,-0.859375,-0.75,0.828125
678,-0.025634766,-0.9937134,0.1227417,-0.578125,-0.875,0.671875
679,-0.026367188,-0.9927368,0.12176514,-0.859375,-0.5625,0.6875
680,-0.025146484,-0.98638916,0.12005615,-0.5625,-0.84375,0.6875
681,-0.025390625,-0.9915161,0.12176514,-0.625,-0.859375,0.46875
682,-0.019042969,-0.99835205,0.11444092,-1.203125,-1.140625,0.359375
683,-0.02368164,-0.9939575,0.11566162,-0.5625,-1.5625,0.34375
684,-0.01977539,-0.9920044,0.11785889,-0.5,-1.140625,0.125
685,-0.02319336,-0.99420166,0.117126465,-0.15625,-0.90625,0.265625
686,-0.017089844,-0.99176025,0.11444092,-0.421875,-1.203125,-0.109375
687,-0.028076172,-1.0005493,0.124938965,-0.359375,-0.734375,0.25
688,-0.025878906,-0.98394775,0.13250732,-0.78125,-0.703125,-0.734375
689,-0.015380859,-0.9915161,0.10491943,-0.03125,-0.546875,0.203125
690,-0.016113281,-0.98394775,0.11566162,-0.53125,-1.046875,-0.53125
691,-0.023925781,-1.0125122,0.12982178,0.1875,-0.875,0.03125
692,-0.020996094,-0.9968872,0.113708496,-0.1875,-0.421875,0.171875
693,-0.033203125,-0.9805298,0.12420654,-0.375,-0.78125,-0.53125
694,-0.022216797,-1.0029907,0.11932373,0.296875,-0.984375,0.015625
695,-0.029296875,-0.9944458,0.11981201,0.265625,-0.875,0.03125
696,-0.020263672,-0.9951782,0.12054443,-0.34375,-1.296875,-0.015625
697,-0.021972656,-0.9746704,0.11590576,-0.3125,-0.75,-0.578125
698,-0.028808594,-0.9985962,0.12664795,0.484375,-0.921875,0.015625
699,-0.024902344,-0.9902954,0.11029053,-0.125,-1.28125,-0.0625
700,-0.021484375,-0.99053955,0.11151123,0.453125,-0.828125,0.28125
701,-0.024414062,-0.9920044,0.11395264,0.3125,-0.546875,-0.34375
702,-0.022705078,-0.99005127,0.09954834,0.59375,-1.0625,-0.203125
703,-0.028076172,-0.9932251,0.11590576,-0.078125,-0.9375,-0.15625
704,-0.030029297,-0.9963989,0.11175537,0.015625,-0.46875,0.0
705,-0.030517578,-0.98809814,0.10272217,0.234375,-1.0625,-0.078125
706,-0.028076172,-0.9963989,0.10467529,-0.140625,-0.921875,-0.234375
707,-0.03100586,-0.9993286,0.09857178,0.09375,-0.625,-0.046875
708,-0.029785156,-0.99591064,0.105651855,-0.296875,-0.40625,-0.046875
709,-0.02758789,-0.98931885,0.105163574,-0.171875,-0.59375,0.015625
710,-0.027832031,-0.9985962,0.10467529,-0.203125,-0.640625,-0.015625
711,-0.028076172,-0.99591064,0.109313965,-0.109375,-0.640625,0.140625
712,-0.032958984,-0.9944458,0.101501465,0.078125,-0.34375,0.1875
713,-0.029296875,-0.9985962,0.10784912,0.046875,-0.09375,0.59375
714,-0.034423828,-0.9951782,0.09588623,-0.234375,-0.421875,0.21875
715,-0.037597656,-0.99786377,0.10003662,0.03125,-0.125,0.53125
716,-0.01586914,-0.9956665,0.10614014,-0.609375,-0.5,-0.109375
717,-0.03100586,-1.0073853,0.10223389,0.53125,0.09375,0.6875
718,-0.011474609,-0.98101807,0.09295654,-2.09375,-0.75,-0.671875
719,-0.026123047,-0.99591064,0.11126709,-0.375,-0.796875,-0.25
720,-0.029541016,-0.9990845,0.09857178,-0.84375,-0.796875,0.09375
721,-0.04272461,-0.9890747,0.105895996,-0.40625,-0.4375,-0.203125
722,-0.0234375,-1.0066528,0.105163574,-0.03125,-0.375,0.375
723,-0.03955078,-0.99542236,0.10223389,-0.71875,-0.828125,0.0625
724,-0.025146484,-0.9998169,0.10101318,-0.21875,-0.53125,0.234375
725,-0.029296875,-0.9993286,0.10345459,-1.0625,-0.96875,-0.265625
726,-0.03955078,-0.9932251,0.10638428,-0.453125,-1.078125,-0.0625
727,-0.02758789,-0.9990845,0.1005249,-0.578125,-0.6875,0.234375
728,-0.02758789,-0.9961548,0.10687256,-1.4375,-1.578125,-0.109375
729,-0.033203125,-0.9961548,0.101501465,-1.53125,-1.4375,-0.3125
730,-0.032226562,-0.99591064,0.10443115,-1.515625,-2.078125,-0.671875
731,-0.03100586,-0.9915161,0.10784912,-0.28125,-1.5625,-0.109375
732,-0.027832031,-0.99786377,0.10394287,-0.671875,-1.078125,-0.125
733,-0.038085938,-0.99224854,0.10321045,-0.796875,-1.234375,-0.15625
734,-0.032958984,-0.9927368,0.10418701,-0.78125,-1.25,0.28125
735,-0.036621094,-0.9990845,0.10272217,-1.078125,-1.203125,0.1875
736,-0.03466797,-1.0044556,0.10467529,-0.984375,-0.984375,0.59375
737,-0.028076172,-0.9944458,0.10662842,-1.09375,-0.84375,0.4375
738,-0.032470703,-0.99468994,0.11175537,-0.875,-0.671875,0.5
739,-0.025878906,-0.9985962,0.113220215,-1.296875,-1.03125,0.5
740,-0.029296875,-0.9968872,0.11590576,-1.328125,-1.109375,0.609375
741,-0.03149414,-0.99468994,0.109802246,-0.796875,-0.8125,0.640625
742,-0.01928711,-0.9849243,0.10418701,-0.59375,-0.625,0.109375
743,-0.030029297,-1.0010376,0.112976074,0.265625,-0.234375,0.859375
744,-0.029541016,-0.9866333,0.1227417,-0.15625,-0.6875,0.015625
745,-0.032714844,-0.9956665,0.097595215,-0.5,-0.046875,0.484375
746,-0.018310547,-0.97613525,0.10321045,-0.46875,-1.34375,-0.53125
747,-0.029296875,-1.0042114,0.11663818,0.21875,-0.8125,-0.234375
748,-0.033691406,-0.99005127,0.10321045,-0.609375,-0.609375,0.125
749,-0.029785156,-0.99176025,0.1083374,-0.0625,-0.515625,-0.203125
750,-0.032226562,-1.0081177,0.11248779,0.578125,-0.703125,0.203125
751,-0.030517578,-0.99468994,0.109802246,0.171875,-0.765625,0.34375
752,-0.025146484,-1.0027466,0.10882568,-0.375,-0.875,0.375
753,-0.033203125,-0.9780884,0.10101318,-0.75,-1.0,-0.046875
754,-0.024414062,-1.0027466,0.10784912,0.84375,-0.640625,0.140625
755,-0.014892578,-0.9963989,0.105651855,0.03125,-0.875,0.09375
756,-0.027832031,-0.9932251,0.10369873,-0.234375,-1.046875,0.03125
757,-0.03466797,-0.9990845,0.101501465,0.421875,-0.578125,-0.03125
758,-0.025390625,-0.99420166,0.09686279,-0.09375,-0.953125,-0.15625
759,-0.029052734,-0.9998169,0.10247803,-0.453125,-0.828125,0.140625
