sample_no,accel_x,accel_y,accel_z,gyro_x,gyro_y,gyro_z
0,-0.9289551,-0.19586182,-0.2810669,0.453125,0.21875,-0.046875
1,-0.92456055,-0.1951294,-0.29205322,0.5625,-0.390625,-0.28125
2,-0.9238281,-0.190979,-0.28814697,0.765625,-0.25,-0.3125
3,-0.93115234,-0.19000244,-0.29034424,0.578125,-0.546875,-0.34375
4,-0.9226074,-0.18756104,-0.28497314,0.453125,-0.734375,-0.5
5,-0.92529297,-0.18511963,-0.29083252,0.359375,-0.671875,-0.390625
6,-0.92211914,-0.18560791,-0.28692627,0.390625,-0.359375,-0.3125
7,-0.92407227,-0.18682861,-0.2876587,0.109375,0.375,-0.609375
8,-0.93115234,-0.18634033,-0.2888794,-0.453125,0.46875,-0.546875
9,-0.921875,-0.1885376,-0.27667236,-0.390625,1.359375,-0.75
10,-0.93359375,-0.18804932,-0.29083252,-0.546875,0.96875,-0.546875
11,-0.9177246,-0.1921997,-0.28619385,-1.078125,1.53125,-0.828125
12,-0.93359375,-0.18145752,-0.2786255,-0.640625,1.0625,-0.59375
13,-0.935791,-0.18707275,-0.28131104,-0.453125,1.359375,-0.5
14,-0.92041016,-0.18463135,-0.27130127,-0.1875,0.953125,-0.96875
15,-0.93652344,-0.1843872,-0.27886963,-0.140625,0.609375,-0.53125
16,-0.93603516,-0.1807251,-0.2774048,-0.25,0.859375,-0.671875
17,-0.93481445,-0.18096924,-0.2695923,0.265625,0.578125,-0.671875
18,-0.9333496,-0.18536377,-0.2774048,-0.078125,0.625,-0.375
19,-0.9355469,-0.18682861,-0.27496338,0.484375,0.171875,-0.28125
20,-0.9301758,-0.17999268,-0.26861572,0.109375,0.421875,-0.328125
21,-0.9255371,-0.18463135,-0.2576294,0.1875,0.859375,-0.40625
22,-0.9382324,-0.18463135,-0.2727661,0.375,0.328125,-0.578125
23,-0.93237305,-0.1795044,-0.2637329,0.703125,0.34375,-0.34375
24,-0.93725586,-0.18267822,-0.26885986,0.515625,0.34375,-0.34375
25,-0.92822266,-0.18365479,-0.27008057,0.0,0.515625,-0.265625
26,-0.93188477,-0.17559814,-0.2630005,0.109375,0.609375,-0.40625
27,-0.9387207,-0.17803955,-0.26934814,0.1875,0.609375,-0.390625
28,-0.93969727,-0.18463135,-0.26348877,0.4375,0.46875,-0.28125
29,-0.92944336,-0.17828369,-0.26348877,0.265625,0.171875,-0.484375
30,-0.93188477,-0.17828369,-0.27349854,0.296875,0.078125,-0.4375
31,-0.93530273,-0.17974854,-0.2695923,0.21875,0.03125,-0.34375
32,-0.9375,-0.17828369,-0.26690674,0.265625,-0.015625,-0.46875
33,-0.9333496,-0.18170166,-0.2666626,0.15625,-0.0625,-0.484375
34,-0.9296875,-0.17633057,-0.26617432,0.140625,-0.171875,-0.421875
35,-0.93969727,-0.18023682,-0.26812744,0.125,-0.28125,-0.25
36,-0.9313965,-0.17681885,-0.26348877,0.234375,0.140625,-0.359375
37,-0.9350586,-0.1831665,-0.2666626,0.453125,-0.046875,-0.1875
38,-0.93481445,-0.18585205,-0.28253174,-0.125,-0.34375,-0.375
39,-0.9304199,-0.16851807,-0.24078369,-0.15625,-0.28125,-0.4375
40,-0.94140625,-0.18121338,-0.27960205,-0.96875,-0.421875,-0.25
41,-0.9313965,-0.18292236,-0.25787354,-0.046875,0.203125,-0.484375
42,-0.9382324,-0.1807251,-0.27008057,-0.1875,-1.09375,-0.421875
43,-0.9284668,-0.1795044,-0.26690674,0.203125,-0.390625,-0.453125
44,-0.93066406,-0.17266846,-0.26617432,0.609375,-0.765625,-0.1875
45,-0.92749023,-0.17730713,-0.26715088,0.46875,-0.703125,-0.1875
46,-0.9370117,-0.18145752,-0.26885986,0.15625,-1.0,0.015625
47,-0.9226074,-0.18121338,-0.2781372,0.328125,-0.890625,-0.078125
48,-0.93725586,-0.18389893,-0.28497314,0.03125,-0.59375,0.03125
49,-0.9321289,-0.18341064,-0.27374268,0.640625,-0.15625,-0.203125
50,-0.9304199,-0.17999268,-0.2786255,1.265625,-0.453125,-0.015625
51,-0.92871094,-0.18023682,-0.27423096,1.28125,0.03125,0.078125
52,-0.93359375,-0.17999268,-0.2835083,0.0625,0.765625,-0.09375
53,-0.93359375,-0.18096924,-0.28155518,0.484375,0.5625,0.15625
54,-0.93188477,-0.18634033,-0.28326416,-0.046875,1.328125,0.09375
55,-0.9165039,-0.18414307,-0.26812744,0.59375,1.453125,-0.265625
56,-0.93725586,-0.18389893,-0.26104736,0.875,0.875,0.078125
57,-0.9328613,-0.18096924,-0.26812744,0.890625,1.0625,-0.125
58,-0.9345703,-0.18121338,-0.27496338,1.03125,0.65625,0.03125
59,-0.92944336,-0.18536377,-0.2720337,0.5625,0.78125,0.125
60,-0.92578125,-0.18218994,-0.27008057,0.859375,0.734375,0.09375
61,-0.9265137,-0.18292236,-0.26080322,0.359375,0.265625,0.140625
62,-0.93530273,-0.18365479,-0.25787354,0.53125,0.390625,-0.09375
63,-0.9304199,-0.1873169,-0.26885986,0.359375,-0.1875,-0.09375
64,-0.9291992,-0.18511963,-0.26519775,0.875,-0.234375,-0.09375
65,-0.9321289,-0.18609619,-0.2756958,0.46875,-0.484375,0.078125
66,-0.9279785,-0.18487549,-0.26812744,0.359375,-0.046875,-0.015625
67,-0.92871094,-0.18341064,-0.2720337,0.5625,-0.015625,-0.03125
68,-0.92626953,-0.18804932,-0.27130127,0.5625,-0.1875,-0.03125
69,-0.9326172,-0.18511963,-0.2715454,0.484375,-0.015625,-0.046875
70,-0.93310547,-0.18878174,-0.270813,0.375,0.234375,0.015625
71,-0.9328613,-0.18341064,-0.2732544,0.375,0.3125,-0.015625
72,-0.9355469,-0.18756104,-0.26568604,0.328125,0.3125,-0.171875
73,-0.9279785,-0.19000244,-0.26739502,0.5,0.375,-0.09375
74,-0.93603516,-0.18585205,-0.27227783,0.390625,0.46875,-0.203125
75,-0.93359375,-0.18341064,-0.27398682,0.4375,0.328125,-0.140625
76,-0.93359375,-0.18487549,-0.26739502,0.328125,0.140625,0.015625
77,-0.9338379,-0.18341064,-0.26739502,0.21875,-0.125,-0.25
78,-0.935791,-0.18804932,-0.2678833,0.3125,0.140625,-0.109375
79,-0.9255371,-0.19073486,-0.26837158,0.65625,0.03125,-0.09375
80,-0.9289551,-0.19073486,-0.2744751,0.234375,-0.046875,0.03125
81,-0.93725586,-0.17974854,-0.26202393,0.328125,0.1875,-0.28125
82,-0.9313965,-0.1873169,-0.27716064,-0.15625,0.09375,0.046875
83,-0.92993164,-0.18780518,-0.26397705,0.109375,0.734375,-0.265625
84,-0.9296875,-0.18682861,-0.26812744,0.453125,0.1875,-0.359375
85,-0.9309082,-0.18536377,-0.26641846,0.421875,0.203125,-0.125
86,-0.9316406,-0.18682861,-0.2637329,0.515625,0.46875,-0.171875
87,-0.9304199,-0.18634033,-0.2649536,0.3125,0.28125,-0.125
88,-0.9301758,-0.18707275,-0.26837158,0.421875,0.15625,-0.078125
89,-0.93481445,-0.1885376,-0.26715088,0.734375,-0.03125,-0.234375
90,-0.9355469,-0.19146729,-0.26812744,0.46875,-0.09375,-0.046875
91,-0.9326172,-0.18756104,-0.25738525,0.65625,0.359375,-0.28125
92,-0.9333496,-0.19122314,-0.26202393,0.53125,-0.15625,-0.421875
93,-0.935791,-0.19171143,-0.25836182,0.671875,0.0,-0.328125
94,-0.93847656,-0.19024658,-0.27423096,0.21875,-0.234375,-0.25
95,-0.92456055,-0.18218994,-0.2630005,0.328125,0.234375,-0.34375
96,-0.9345703,-0.18682861,-0.2617798,0.34375,0.234375,-0.234375
97,-0.93408203,-0.18756104,-0.2588501,0.234375,-0.15625,-0.46875
98,-0.93481445,-0.18756104,-0.25982666,0.328125,0.015625,-0.390625
99,-0.9338379,-0.18609619,-0.27301025,0.0625,0.203125,-0.546875
100,-0.9343262,-0.1843872,-0.26397705,-0.046875,0.328125,-0.46875
101,-0.9291992,-0.18341064,-0.2612915,-0.15625,0.09375,-0.4375
102,-0.9345703,-0.18951416,-0.26837158,0.0625,0.125,-0.546875
103,-0.92822266,-0.19000244,-0.25958252,-0.046875,0.375,-0.5625
104,-0.9375,-0.18951416,-0.2649536,-0.296875,0.453125,-0.484375
105,-0.9370117,-0.18414307,-0.25494385,0.09375,0.171875,-0.34375
106,-0.9345703,-0.18658447,-0.25909424,-0.078125,0.234375,-0.375
107,-0.93066406,-0.18511963,-0.2756958,-0.890625,0.46875,-0.578125
108,-0.9321289,-0.17999268,-0.26519775,-0.109375,-0.03125,-0.40625
109,-0.935791,-0.18829346,-0.25860596,0.03125,0.609375,-0.4375
110,-0.92700195,-0.18707275,-0.25543213,0.09375,0.28125,-0.6875
111,-0.94091797,-0.18658447,-0.25982666,-0.046875,-0.203125,-0.234375
112,-0.9423828,-0.17999268,-0.25982666,0.1875,0.28125,-0.46875
113,-0.9362793,-0.18536377,-0.25445557,-0.046875,0.421875,-0.34375
114,-0.9343262,-0.18951416,-0.26080322,-0.03125,0.59375,-0.359375
115,-0.93237305,-0.18145752,-0.25616455,0.734375,0.734375,-0.28125
116,-0.93066406,-0.18804932,-0.26397705,0.078125,0.421875,-0.234375
117,-0.9440918,-0.18145752,-0.24835205,0.484375,0.796875,-0.25
118,-0.93408203,-0.18756104,-0.2571411,0.3125,0.484375,-0.40625
119,-0.9345703,-0.17803955,-0.25006104,0.703125,0.25,-0.59375
120,-0.9343262,-0.18170166,-0.2588501,0.671875,-0.078125,-0.234375
121,-0.93603516,-0.18243408,-0.25909424,0.21875,0.28125,-0.390625
122,-0.93530273,-0.1831665,-0.255188,0.28125,0.109375,-0.234375
123,-0.9387207,-0.1831665,-0.25738525,0.3125,0.15625,-0.15625
124,-0.9316406,-0.18121338,-0.25299072,0.546875,0.15625,-0.265625
125,-0.93774414,-0.17999268,-0.2539673,0.265625,-0.203125,-0.328125
126,-0.93652344,-0.18243408,-0.24810791,0.234375,-0.1875,-0.359375
127,-0.9362793,-0.18463135,-0.25738525,0.328125,-0.203125,-0.265625
128,-0.9375,-0.18414307,-0.25323486,0.8125,-0.75,-0.3125
129,-0.9296875,-0.1873169,-0.26885986,0.484375,-1.140625,-0.171875
130,-0.9387207,-0.16998291,-0.2366333,0.28125,-0.3125,-0.078125
131,-0.94262695,-0.18170166,-0.2642212,0.171875,-0.28125,-0.015625
132,-0.9301758,-0.18536377,-0.24395752,0.65625,0.28125,-0.28125
133,-0.9453125,-0.18585205,-0.25860596,0.640625,-0.75,-0.15625
134,-0.9379883,-0.18023682,-0.2630005,0.78125,-0.09375,-0.234375
135,-0.9313965,-0.17901611,-0.25933838,0.84375,0.109375,-0.09375
136,-0.9345703,-0.17999268,-0.2630005,0.71875,-0.078125,0.015625
137,-0.93725586,-0.18951416,-0.25811768,0.703125,-0.21875,-0.03125
138,-0.9321289,-0.18707275,-0.26080322,1.359375,-0.609375,0.125
139,-0.9382324,-0.18341064,-0.2649536,1.390625,-0.65625,0.28125
140,-0.92822266,-0.18145752,-0.26080322,1.453125,-0.53125,0.03125
141,-0.93115234,-0.1885376,-0.26055908,1.9375,-1.09375,0.0
142,-0.9326172,-0.18145752,-0.2637329,1.890625,-0.890625,-0.03125
143,-0.9321289,-0.17852783,-0.2786255,1.015625,-0.8125,0.125
144,-0.9355469,-0.17755127,-0.26885986,0.9375,-0.015625,0.015625
145,-0.9291992,-0.18096924,-0.26397705,1.265625,0.171875,0.1875
146,-0.93115234,-0.18170166,-0.2642212,0.921875,0.0625,-0.0625
147,-0.9375,-0.1819458,-0.2732544,0.984375,0.09375,-0.03125
148,-0.9338379,-0.18927002,-0.26837158,0.859375,0.53125,-0.140625
149,-0.93359375,-0.18511963,-0.2666626,0.90625,0.328125,0.09375
150,-0.93310547,-0.18414307,-0.26519775,0.953125,0.140625,0.03125
151,-0.935791,-0.18780518,-0.27008057,0.828125,-0.078125,-0.0625
152,-0.93774414,-0.18121338,-0.26983643,0.828125,-0.359375,0.09375
153,-0.93310547,-0.18267822,-0.26837158,0.734375,-0.734375,-0.046875
154,-0.9301758,-0.17633057,-0.27178955,0.59375,-0.109375,-0.21875
155,-0.9316406,-0.18218994,-0.270813,0.734375,-0.203125,-0.015625
156,-0.9367676,-0.18902588,-0.27886963,0.625,-0.171875,-0.015625
157,-0.93066406,-0.17999268,-0.26934814,0.53125,-0.109375,-0.03125
158,-0.935791,-0.18341064,-0.26226807,0.609375,-0.046875,0.0
159,-0.9355469,-0.18096924,-0.2715454,0.484375,0.375,-0.1875
160,-0.9350586,-0.18536377,-0.27471924,0.21875,0.40625,-0.234375
161,-0.9304199,-0.18170166,-0.25128174,0.75,-0.15625,-0.125
162,-0.9370117,-0.1819458,-0.28546143,-0.234375,0.03125,-0.125
163,-0.9199219,-0.18585205,-0.2649536,0.28125,0.03125,-0.140625
164,-0.93359375,-0.1843872,-0.2703247,0.671875,-0.21875,0.015625
165,-0.9321289,-0.1831665,-0.26275635,0.328125,0.171875,-0.1875
166,-0.9309082,-0.18463135,-0.26568604,0.46875,0.0625,-0.140625
167,-0.93481445,-0.18511963,-0.26837158,0.515625,0.015625,-0.109375
168,-0.9370117,-0.18682861,-0.26763916,0.40625,-0.0625,-0.03125
169,-0.9296875,-0.1831665,-0.2678833,0.78125,-0.234375,-0.0625
170,-0.93774414,-0.18634033,-0.2805786,0.21875,-0.5625,0.15625
171,-0.93115234,-0.18292236,-0.26812744,0.59375,-0.078125,-0.28125
172,-0.9326172,-0.1897583,-0.26837158,0.53125,-0.140625,-0.34375
173,-0.9304199,-0.18634033,-0.26739502,0.5625,0.015625,-0.25
174,-0.93188477,-0.18414307,-0.27520752,0.28125,-0.390625,-0.03125
175,-0.9289551,-0.18536377,-0.27056885,0.484375,0.359375,-0.21875
176,-0.93066406,-0.18609619,-0.27105713,0.609375,0.453125,-0.234375
177,-0.9321289,-0.1831665,-0.2666626,0.46875,0.4375,-0.234375
178,-0.93359375,-0.18878174,-0.2703247,0.46875,0.140625,-0.140625
179,-0.9284668,-0.18756104,-0.26812744,0.859375,-0.09375,-0.171875
180,-0.9296875,-0.18609619,-0.26983643,0.359375,-0.296875,-0.203125
181,-0.93359375,-0.18365479,-0.2732544,0.234375,-0.203125,-0.046875
182,-0.9277344,-0.1819458,-0.27178955,0.3125,0.21875,-0.15625
183,-0.9321289,-0.18487549,-0.26861572,0.734375,-0.265625,-0.25
184,-0.92700195,-0.18463135,-0.2695923,0.546875,-0.0625,-0.125
185,-0.9362793,-0.18218994,-0.27838135,-0.0625,0.0625,-0.171875
186,-0.9316406,-0.19171143,-0.27301025,0.390625,0.0625,-0.046875
187,-0.92529297,-0.18609619,-0.269104,0.40625,0.59375,-0.28125
188,-0.92163086,-0.18780518,-0.26568604,0.296875,0.09375,-0.3125
189,-0.9321289,-0.18389893,-0.26593018,0.28125,-0.015625,-0.25
190,-0.9404297,-0.18341064,-0.27105713,0.375,0.15625,-0.125
191,-0.93725586,-0.18927002,-0.2637329,0.546875,0.0625,-0.171875
192,-0.9250488,-0.18707275,-0.2732544,0.515625,-0.09375,0.03125
193,-0.9355469,-0.17877197,-0.26324463,0.890625,-0.015625,-0.21875
194,-0.92700195,-0.17681885,-0.27642822,0.171875,-0.1875,-0.21875
195,-0.9421387,-0.19317627,-0.2649536,0.234375,0.328125,-0.15625
196,-0.9345703,-0.18804932,-0.27838135,0.578125,-0.171875,-0.46875
197,-0.9321289,-0.18536377,-0.2727661,0.609375,-0.34375,-0.140625
198,-0.9313965,-0.19268799,-0.27349854,0.8125,-0.34375,-0.03125
199,-0.9301758,-0.18170166,-0.26617432,0.375,0.375,-0.3125
200,-0.92993164,-0.18804932,-0.26715088,0.296875,0.609375,-0.1875
201,-0.93603516,-0.18389893,-0.2695923,0.1875,0.375,-0.28125
202,-0.93066406,-0.18609619,-0.2625122,0.171875,0.59375,-0.28125
203,-0.93774414,-0.19146729,-0.2732544,0.046875,0.234375,-0.5
204,-0.92822266,-0.17999268,-0.2732544,-0.640625,0.546875,-0.59375
205,-0.9362793,-0.18560791,-0.24395752,-0.484375,0.6875,-0.546875
206,-0.9370117,-0.190979,-0.2798462,-1.0625,0.1875,-0.46875
207,-0.9284668,-0.18707275,-0.26080322,0.125,0.640625,-0.640625
208,-0.93237305,-0.1831665,-0.27008057,-0.125,-0.078125,-0.609375
209,-0.93652344,-0.18267822,-0.26324463,-0.171875,0.296875,-0.78125
210,-0.93969727,-0.18243408,-0.26324463,0.09375,0.4375,-0.40625
211,-0.93237305,-0.18585205,-0.26153564,0.0,0.25,-0.484375
212,-0.9370117,-0.18218994,-0.2630005,-0.296875,0.125,-0.34375
213,-0.93603516,-0.18292236,-0.26739502,0.1875,-0.09375,-0.40625
214,-0.9355469,-0.18145752,-0.2695923,-0.046875,-0.046875,-0.328125
215,-0.9379883,-0.18365479,-0.26690674,0.1875,0.09375,-0.53125
216,-0.9343262,-0.1807251,-0.2571411,0.25,-0.28125,-0.390625
217,-0.93603516,-0.18756104,-0.2649536,0.671875,-0.421875,-0.53125
218,-0.93237305,-0.18048096,-0.2637329,0.328125,-0.234375,-0.421875
219,-0.935791,-0.17974854,-0.2630005,0.1875,0.015625,-0.265625
220,-0.9355469,-0.18511963,-0.26715088,0.21875,0.21875,-0.53125
221,-0.93725586,-0.18414307,-0.25909424,0.703125,-0.296875,-0.390625
222,-0.9375,-0.18634033,-0.2588501,0.46875,0.046875,-0.359375
223,-0.93530273,-0.18902588,-0.28399658,-0.96875,0.046875,-0.4375
224,-0.939209,-0.18536377,-0.26470947,0.4375,-0.34375,-0.328125
225,-0.92822266,-0.18218994,-0.2630005,0.0,0.578125,-0.265625
226,-0.9277344,-0.18048096,-0.26080322,0.671875,0.03125,-0.625
227,-0.93603516,-0.18267822,-0.26715088,0.40625,-0.546875,-0.515625
228,-0.9370117,-0.17877197,-0.26617432,0.3125,-0.046875,-0.390625
229,-0.93237305,-0.17877197,-0.2617798,0.640625,-0.171875,-0.046875
230,-0.9326172,-0.17755127,-0.2654419,0.609375,-0.09375,-0.015625
231,-0.93603516,-0.18560791,-0.27496338,1.234375,-0.671875,-0.125
232,-0.93310547,-0.18511963,-0.26153564,0.984375,-0.46875,-0.0625
233,-0.9304199,-0.18096924,-0.26446533,0.71875,0.0,-0.046875
234,-0.9309082,-0.17803955,-0.26763916,0.84375,-0.0625,-0.109375
235,-0.9321289,-0.17901611,-0.2642212,1.03125,-0.34375,0.03125
236,-0.93530273,-0.1807251,-0.2703247,0.796875,-0.3125,-0.09375
237,-0.9326172,-0.17926025,-0.27227783,0.546875,0.0625,-0.125
238,-0.9296875,-0.18756104,-0.26983643,0.6875,0.0625,-0.1875
239,-0.9321289,-0.1795044,-0.2625122,0.78125,0.0625,-0.078125
240,-0.93310547,-0.18023682,-0.26641846,0.828125,-0.15625,0.171875
241,-0.93652344,-0.18756104,-0.27618408,0.921875,-0.171875,-0.125
242,-0.9328613,-0.1843872,-0.2786255,0.515625,-0.375,-0.078125
243,-0.9309082,-0.17242432,-0.23931885,1.0,0.078125,-0.109375
244,-0.94140625,-0.1897583,-0.28155518,0.0,-0.21875,0.109375
245,-0.9296875,-0.19024658,-0.2612915,0.96875,0.484375,-0.171875
246,-0.93188477,-0.1807251,-0.27496338,0.734375,-0.46875,-0.1875
247,-0.9406738,-0.18560791,-0.27105713,0.828125,-0.09375,-0.125
248,-0.9316406,-0.18536377,-0.26837158,1.078125,0.3125,0.125
249,-0.9370117,-0.1819458,-0.26861572,1.046875,0.0625,0.078125
250,-0.92944336,-0.18365479,-0.27301025,1.09375,0.171875,0.140625
251,-0.9326172,-0.18585205,-0.27008057,1.4375,0.25,0.234375
252,-0.93188477,-0.18829346,-0.27960205,1.09375,-0.0625,0.0625
253,-0.92626953,-0.18023682,-0.2642212,0.96875,0.3125,0.0
254,-0.9362793,-0.1819458,-0.27349854,0.90625,0.0625,0.09375
255,-0.9313965,-0.1885376,-0.26812744,1.375,0.328125,-0.078125
256,-0.93310547,-0.18634033,-0.27301025,0.5625,0.015625,-0.1875
257,-0.9265137,-0.18170166,-0.27008057,0.71875,0.265625,-0.046875
258,-0.9362793,-0.18487549,-0.27545166,0.765625,0.03125,-0.046875
259,-0.9333496,-0.18389893,-0.26739502,0.953125,-0.171875,0.0625
260,-0.93066406,-0.18511963,-0.27520752,0.859375,-0.515625,0.015625
261,-0.92944336,-0.18511963,-0.27301025,0.78125,-0.609375,-0.0625
262,-0.935791,-0.18463135,-0.27471924,0.6875,-0.546875,0.078125
263,-0.93237305,-0.18145752,-0.27423096,0.5625,-0.34375,-0.125
264,-0.9291992,-0.17999268,-0.27496338,0.46875,-0.328125,-0.046875
265,-0.93725586,-0.1819458,-0.27398682,0.484375,-0.171875,0.0
266,-0.93359375,-0.1843872,-0.27178955,0.578125,-0.140625,-0.078125
267,-0.9296875,-0.18560791,-0.2781372,0.640625,-0.203125,0.03125
268,-0.9291992,-0.18585205,-0.27423096,0.640625,-0.1875,-0.171875
269,-0.9328613,-0.18658447,-0.28448486,0.5625,-0.15625,-0.09375
270,-0.9321289,-0.18634033,-0.27471924,0.375,-0.234375,-0.140625
271,-0.92822266,-0.18145752,-0.26837158,0.453125,-0.171875,-0.09375
272,-0.9313965,-0.18267822,-0.2810669,0.421875,-0.109375,0.015625
273,-0.9316406,-0.18048096,-0.28253174,0.28125,-0.28125,-0.21875
274,-0.93066406,-0.18487549,-0.26593018,0.609375,-0.296875,-0.09375
275,-0.9309082,-0.19293213,-0.2913208,-0.421875,-0.09375,0.0625
276,-0.92211914,-0.1921997,-0.27056885,0.125,0.0625,-0.25
277,-0.9387207,-0.18121338,-0.2805786,0.703125,-0.15625,0.0625
278,-0.9399414,-0.18634033,-0.2805786,0.328125,0.140625,-0.09375
279,-0.92993164,-0.17877197,-0.27618408,0.59375,0.109375,-0.15625
280,-0.92871094,-0.18389893,-0.28497314,0.40625,0.015625,0.0
281,-0.93066406,-0.18829346,-0.28155518,0.46875,-0.0625,0.046875
282,-0.93066406,-0.1843872,-0.27642822,0.5,-0.09375,-0.109375
283,-0.92700195,-0.18511963,-0.28424072,0.34375,-0.203125,-0.078125
284,-0.9226074,-0.18585205,-0.27227783,0.671875,0.109375,-0.28125
285,-0.9260254,-0.18682861,-0.2810669,0.5625,-0.15625,-0.140625
286,-0.9250488,-0.18145752,-0.27374268,0.703125,-0.25,-0.15625
287,-0.9291992,-0.18682861,-0.29278564,0.265625,-0.234375,-0.203125
288,-0.92626953,-0.1795044,-0.2744751,0.53125,0.203125,-0.140625
289,-0.92285156,-0.19024658,-0.286438,0.453125,0.171875,-0.328125
290,-0.9279785,-0.18951416,-0.28448486,0.453125,0.1875,-0.078125
291,-0.9279785,-0.19171143,-0.2798462,0.53125,0.015625,-0.15625
292,-0.92749023,-0.18756104,-0.27838135,0.578125,0.078125,-0.109375
293,-0.92822266,-0.1951294,-0.2781372,0.53125,0.15625,-0.078125
294,-0.9255371,-0.18829346,-0.27838135,0.28125,-0.015625,-0.1875
295,-0.92993164,-0.18658447,-0.2822876,0.515625,-0.140625,-0.171875
296,-0.93188477,-0.18927002,-0.28253174,0.453125,0.140625,-0.390625
297,-0.92822266,-0.1897583,-0.27838135,0.484375,0.09375,-0.21875
298,-0.9309082,-0.18536377,-0.2732544,0.28125,0.390625,-0.28125
299,-0.9267578,-0.1897583,-0.26812744,0.53125,0.734375,-0.375
300,-0.9343262,-0.18658447,-0.27545166,-0.09375,1.234375,-0.296875
301,-0.92749023,-0.18756104,-0.28546143,-0.734375,1.140625,-0.609375
302,-0.9309082,-0.17633057,-0.26861572,-0.25,0.84375,-0.53125
303,-0.92871094,-0.19342041,-0.26617432,-0.21875,0.953125,-0.390625
304,-0.9226074,-0.18756104,-0.26153564,0.171875,0.40625,-0.703125
305,-0.9328613,-0.18487549,-0.27667236,0.015625,-0.125,-0.328125
306,-0.9279785,-0.18023682,-0.269104,0.03125,0.375,-0.390625
307,-0.92993164,-0.19024658,-0.2703247,0.15625,0.390625,-0.34375
308,-0.9272461,-0.18414307,-0.26446533,0.171875,0.140625,-0.3125
309,-0.9309082,-0.17779541,-0.25909424,0.4375,0.15625,-0.40625
310,-0.9289551,-0.18585205,-0.27349854,0.015625,-0.296875,-0.40625
311,-0.93188477,-0.18243408,-0.25616455,0.203125,0.203125,-0.28125
312,-0.9343262,-0.1819458,-0.2781372,0.015625,0.046875,-0.46875
313,-0.9338379,-0.17926025,-0.26934814,0.296875,-0.171875,-0.40625
314,-0.9304199,-0.18707275,-0.2769165,0.34375,-0.34375,-0.40625
315,-0.9367676,-0.18634033,-0.26739502,0.296875,0.046875,-0.484375
316,-0.9333496,-0.18243408,-0.26983643,0.0,0.28125,-0.390625
317,-0.93237305,-0.18658447,-0.2720337,0.109375,0.03125,-0.46875
318,-0.92993164,-0.18878174,-0.26519775,0.328125,-0.1875,-0.3125
319,-0.9382324,-0.17974854,-0.26837158,0.40625,-0.1875,-0.375
320,-0.9230957,-0.18951416,-0.27178955,0.125,-0.140625,-0.359375
321,-0.93066406,-0.18585205,-0.26715088,0.203125,-0.15625,-0.453125
322,-0.9370117,-0.18463135,-0.27593994,0.171875,-0.265625,-0.453125
323,-0.9304199,-0.1795044,-0.27056885,0.28125,-0.203125,-0.4375
324,-0.9321289,-0.1795044,-0.27105713,0.328125,-0.328125,-0.140625
325,-0.9309082,-0.18218994,-0.27667236,0.59375,-0.1875,-0.28125
326,-0.93188477,-0.18365479,-0.28155518,0.265625,-0.421875,-0.453125
327,-0.92944336,-0.17315674,-0.25860596,0.578125,-0.265625,-0.25
328,-0.9321289,-0.19024658,-0.28375244,0.015625,-0.203125,-0.015625
329,-0.92871094,-0.18341064,-0.26763916,0.828125,0.0625,-0.40625
330,-0.9440918,-0.18414307,-0.2871704,0.609375,-0.765625,-0.1875
331,-0.9313965,-0.18292236,-0.27252197,0.84375,-0.28125,-0.390625
332,-0.9309082,-0.18365479,-0.2793579,0.671875,0.109375,-0.09375
333,-0.9313965,-0.18023682,-0.27227783,0.953125,-0.0625,-0.15625
334,-0.92822266,-0.18023682,-0.27301025,0.875,-0.078125,0.046875
335,-0.92822266,-0.18341064,-0.28009033,1.171875,-0.109375,-0.046875
336,-0.93774414,-0.18341064,-0.28155518,0.953125,-0.265625,0.140625
337,-0.9291992,-0.18365479,-0.27398682,0.921875,0.109375,-0.015625
338,-0.93066406,-0.1843872,-0.27838135,1.015625,-0.09375,0.015625
339,-0.9328613,-0.18023682,-0.27056885,1.109375,-0.25,-0.078125
340,-0.9321289,-0.18341064,-0.2774048,0.828125,-0.125,-0.125
341,-0.9338379,-0.18218994,-0.27349854,0.875,0.234375,-0.125
342,-0.93188477,-0.18292236,-0.27886963,0.734375,0.234375,0.0625
343,-0.92822266,-0.17828369,-0.27764893,0.84375,0.375,-0.046875
344,-0.9277344,-0.18292236,-0.2732544,0.828125,0.28125,-0.015625
345,-0.9289551,-0.1807251,-0.2769165,0.765625,0.109375,-0.1875
346,-0.9265137,-0.18121338,-0.2703247,0.59375,0.296875,-0.09375
347,-0.9265137,-0.18585205,-0.2720337,0.625,0.21875,-0.234375
348,-0.93237305,-0.18170166,-0.27716064,0.75,0.1875,-0.109375
349,-0.93603516,-0.18121338,-0.27960205,0.65625,0.125,-0.109375
350,-0.92700195,-0.18243408,-0.2810669,0.46875,0.15625,-0.140625
351,-0.93652344,-0.18170166,-0.2793579,0.375,0.296875,-0.109375
352,-0.93066406,-0.18463135,-0.2678833,0.703125,0.46875,-0.046875
353,-0.9343262,-0.18878174,-0.2727661,0.640625,0.53125,-0.03125
354,-0.92822266,-0.18780518,-0.28302002,-0.0625,0.625,-0.09375
355,-0.93188477,-0.18243408,-0.2715454,0.515625,0.0625,0.0
356,-0.9296875,-0.19464111,-0.2774048,0.28125,0.890625,-0.234375
357,-0.9277344,-0.18096924,-0.26568604,0.453125,0.65625,-0.296875
358,-0.93530273,-0.18756104,-0.27056885,0.5,0.015625,0.03125
359,-0.9321289,-0.1807251,-0.26885986,0.65625,0.328125,0.0625
360,-0.9296875,-0.19171143,-0.26885986,0.875,-0.21875,0.109375
361,-0.9284668,-0.18267822,-0.26763916,0.515625,-0.140625,-0.046875
362,-0.93066406,-0.18243408,-0.26812744,0.640625,-0.078125,0.015625
363,-0.9265137,-0.18634033,-0.26934814,0.359375,-0.09375,0.0625
364,-0.93896484,-0.18414307,-0.27374268,0.34375,-0.09375,0.0625
365,-0.9255371,-0.1885376,-0.2744751,0.703125,-0.078125,-0.3125
366,-0.9321289,-0.1885376,-0.2805786,0.484375,-0.359375,-0.28125
367,-0.93066406,-0.18609619,-0.27008057,0.65625,-0.21875,-0.203125
368,-0.93237305,-0.18463135,-0.2756958,0.234375,-0.0625,-0.3125
369,-0.93481445,-0.18707275,-0.270813,0.53125,0.328125,-0.109375
370,-0.92407227,-0.18634033,-0.27398682,0.515625,0.109375,-0.140625
371,-0.9313965,-0.1873169,-0.26934814,0.625,-0.078125,-0.03125
372,-0.9355469,-0.18170166,-0.27252197,0.53125,0.09375,-0.09375
373,-0.92578125,-0.19195557,-0.27008057,0.40625,0.390625,-0.203125
374,-0.93359375,-0.1843872,-0.2720337,0.296875,0.390625,-0.1875
375,-0.92749023,-0.1873169,-0.27008057,0.34375,0.6875,-0.40625
376,-0.93310547,-0.18487549,-0.27252197,0.078125,0.578125,-0.3125
377,-0.93969727,-0.18218994,-0.270813,-0.015625,0.515625,-0.5
378,-0.9284668,-0.18756104,-0.27130127,-0.453125,0.578125,-0.59375
379,-0.9367676,-0.18096924,-0.26641846,-0.65625,0.828125,-0.46875
380,-0.93188477,-0.18634033,-0.27105713,-0.140625,0.671875,-0.59375
381,-0.93115234,-0.18927002,-0.25860596,-0.25,0.40625,-0.59375
382,-0.93652344,-0.18243408,-0.25665283,-0.640625,0.359375,-0.625
383,-0.93481445,-0.19000244,-0.28204346,-0.46875,0.203125,-0.234375
384,-0.93310547,-0.19073486,-0.25836182,0.21875,0.671875,-0.546875
385,-0.9326172,-0.18365479,-0.26739502,-0.078125,-0.09375,-0.546875
386,-0.93725586,-0.1831665,-0.26470947,0.125,-0.078125,-0.46875
387,-0.9321289,-0.18365479,-0.2649536,0.203125,0.09375,-0.515625
388,-0.9289551,-0.18951416,-0.2630005,0.0625,0.015625,-0.296875
389,-0.9370117,-0.18829346,-0.26861572,-0.078125,0.203125,-0.296875
390,-0.93188477,-0.17974854,-0.26202393,0.59375,-0.15625,-0.34375
391,-0.9338379,-0.18145752,-0.26397705,0.046875,-0.390625,-0.265625
392,-0.9406738,-0.18292236,-0.2571411,0.203125,0.203125,-0.296875
393,-0.93237305,-0.1873169,-0.2642212,0.15625,-0.0625,-0.421875
394,-0.92944336,-0.18121338,-0.2539673,0.78125,-0.0625,-0.546875
395,-0.93481445,-0.18243408,-0.27252197,0.265625,-0.53125,-0.328125
396,-0.9333496,-0.17364502,-0.26226807,0.171875,0.390625,-0.453125
397,-0.93530273,-0.18170166,-0.26348877,0.15625,0.03125,-0.28125
398,-0.9370117,-0.18707275,-0.26324463,0.34375,0.078125,-0.3125
399,-0.93188477,-0.17877197,-0.26568604,0.4375,-0.125,-0.125
400,-0.93652344,-0.18536377,-0.26593018,0.5,-0.15625,-0.1875
401,-0.92944336,-0.18121338,-0.2695923,0.40625,-0.28125,-0.21875
402,-0.9296875,-0.18780518,-0.26080322,0.625,-0.40625,-0.34375
403,-0.9362793,-0.18487549,-0.26397705,0.703125,-0.703125,-0.21875
404,-0.9367676,-0.18341064,-0.26837158,0.921875,-0.8125,0.015625
405,-0.9284668,-0.19317627,-0.28131104,0.6875,-0.765625,-0.015625
406,-0.9333496,-0.17242432,-0.2468872,1.3125,-0.140625,-0.015625
407,-0.9355469,-0.18170166,-0.28082275,0.546875,-0.015625,0.078125
408,-0.9272461,-0.18682861,-0.26031494,0.90625,0.546875,-0.15625
409,-0.93725586,-0.17901611,-0.27398682,0.71875,-0.765625,-0.125
410,-0.92700195,-0.18096924,-0.26617432,0.890625,0.359375,-0.375
411,-0.939209,-0.18365479,-0.2678833,0.703125,0.125,0.0
412,-0.92993164,-0.17706299,-0.27545166,0.90625,-0.046875,-0.125
413,-0.92871094,-0.18243408,-0.27398682,1.125,-0.40625,-0.03125
414,-0.9301758,-0.18634033,-0.27374268,1.78125,-0.0625,0.109375
415,-0.9304199,-0.18927002,-0.27130127,1.40625,-0.171875,0.15625
416,-0.9284668,-0.18218994,-0.27105713,1.296875,0.3125,0.03125
417,-0.9338379,-0.18707275,-0.27838135,0.875,-0.140625,0.078125
418,-0.93066406,-0.1819458,-0.2600708,1.484375,0.0625,-0.09375
419,-0.9301758,-0.18267822,-0.27301025,0.9375,-0.25,0.0625
420,-0.9321289,-0.18560791,-0.27349854,0.875,0.203125,0.046875
421,-0.9328613,-0.1807251,-0.27056885,0.796875,0.34375,0.046875
422,-0.9338379,-0.18170166,-0.27593994,0.921875,0.34375,-0.015625
423,-0.9355469,-0.18267822,-0.27105713,0.875,0.40625,-0.046875
424,-0.92407227,-0.18218994,-0.27593994,0.625,0.453125,-0.0625
425,-0.9260254,-0.18536377,-0.27398682,0.625,0.234375,-0.0625
426,-0.92871094,-0.18560791,-0.269104,0.53125,-0.015625,-0.109375
427,-0.9291992,-0.1831665,-0.27227783,0.6875,0.09375,-0.03125
428,-0.9289551,-0.18389893,-0.27252197,0.5625,0.171875,-0.03125
429,-0.92993164,-0.1843872,-0.27227783,0.578125,0.15625,-0.015625
430,-0.9326172,-0.18365479,-0.2810669,0.421875,0.1875,-0.140625
431,-0.9304199,-0.1819458,-0.24810791,0.65625,0.453125,-0.078125
432,-0.9370117,-0.18829346,-0.28277588,-0.3125,0.390625,0.15625
433,-0.92626953,-0.18536377,-0.27008057,0.203125,0.9375,-0.125
434,-0.93969727,-0.18365479,-0.26446533,0.703125,0.25,-0.1875
435,-0.93652344,-0.1843872,-0.26715088,0.390625,0.3125,-0.125
436,-0.9333496,-0.18414307,-0.26593018,0.46875,0.453125,-0.15625
437,-0.9316406,-0.18804932,-0.26397705,0.421875,0.296875,-0.125
438,-0.9375,-0.18682861,-0.26715088,0.46875,0.421875,-0.25
439,-0.93896484,-0.18878174,-0.26641846,0.703125,0.125,-0.1875
440,-0.9338379,-0.18243408,-0.26715088,0.234375,0.078125,0.03125
441,-0.92822266,-0.18780518,-0.25689697,0.46875,0.390625,-0.03125
442,-0.93725586,-0.18365479,-0.26568604,0.515625,-0.3125,-0.21875
443,-0.9304199,-0.18365479,-0.26348877,0.71875,0.09375,-0.234375
444,-0.939209,-0.1831665,-0.2781372,0.359375,-0.40625,-0.140625
445,-0.9248047,-0.18658447,-0.26324463,0.5,0.203125,-0.140625
446,-0.9333496,-0.18707275,-0.26690674,0.546875,0.046875,-0.140625
447,-0.9301758,-0.17828369,-0.26641846,0.328125,0.140625,-0.109375
448,-0.9328613,-0.18560791,-0.26397705,0.5625,0.0625,-0.21875
449,-0.9338379,-0.1807251,-0.26470947,0.53125,-0.078125,-0.28125
450,-0.93188477,-0.18560791,-0.26812744,0.4375,-0.15625,-0.125
451,-0.9313965,-0.18463135,-0.270813,0.453125,-0.078125,-0.265625
452,-0.93652344,-0.18609619,-0.26715088,0.390625,0.140625,-0.171875
453,-0.9284668,-0.18658447,-0.26617432,0.40625,0.265625,-0.296875
454,-0.9301758,-0.18365479,-0.26885986,0.375,0.390625,-0.21875
455,-0.9279785,-0.18658447,-0.26031494,0.5,0.125,-0.375
456,-0.93188477,-0.18951416,-0.2522583,0.09375,0.203125,-0.390625
457,-0.9328613,-0.17926025,-0.270813,-0.515625,0.390625,-0.46875
458,-0.9382324,-0.18463135,-0.27496338,-0.5625,0.296875,-0.34375
459,-0.93310547,-0.18902588,-0.26055908,-0.21875,0.578125,-0.46875
460,-0.92626953,-0.1843872,-0.25958252,-0.125,0.015625,-0.46875
461,-0.9379883,-0.19000244,-0.2612915,0.171875,-0.15625,-0.328125
462,-0.9345703,-0.17706299,-0.26031494,0.25,0.125,-0.390625
463,-0.9350586,-0.18536377,-0.25836182,0.15625,-0.15625,-0.421875
464,-0.9304199,-0.18048096,-0.26690674,-0.015625,-0.1875,-0.359375
465,-0.9291992,-0.18487549,-0.24908447,0.6875,-0.296875,-0.46875
466,-0.9316406,-0.17974854,-0.26617432,0.03125,-0.484375,-0.15625
467,-0.93530273,-0.1873169,-0.25836182,0.28125,-0.109375,-0.34375
468,-0.9387207,-0.18780518,-0.26641846,0.109375,-0.28125,-0.328125
469,-0.9333496,-0.1873169,-0.26226807,0.5625,-0.515625,-0.25
470,-0.9394531,-0.18682861,-0.26593018,0.484375,-0.671875,-0.359375
471,-0.9326172,-0.17803955,-0.26226807,0.1875,0.0,-0.328125
472,-0.9345703,-0.18609619,-0.26324463,0.015625,0.15625,-0.34375
473,-0.92822266,-0.18560791,-0.26104736,0.25,-0.140625,-0.34375
474,-0.93115234,-0.18341064,-0.26324463,0.40625,-0.09375,-0.203125
475,-0.9367676,-0.18170166,-0.26739502,0.4375,-0.1875,-0.125
476,-0.9321289,-0.18585205,-0.26226807,0.125,-0.328125,-0.234375
477,-0.9265137,-0.17974854,-0.27105713,0.125,-0.515625,-0.46875
478,-0.93481445,-0.17828369,-0.26715088,0.140625,-0.53125,-0.375
479,-0.93652344,-0.18243408,-0.27227783,0.25,-0.6875,-0.078125
480,-0.9309082,-0.18756104,-0.27716064,0.234375,-0.9375,-0.4375
481,-0.93530273,-0.16998291,-0.24493408,0.328125,-0.5,-0.265625
482,-0.93847656,-0.17901611,-0.28277588,0.171875,-0.796875,0.03125
483,-0.9309082,-0.18341064,-0.2649536,1.0,0.046875,-0.1875
484,-0.9345703,-0.17706299,-0.2769165,0.703125,-0.625,-0.171875
485,-0.92871094,-0.1795044,-0.270813,0.890625,0.203125,-0.328125
486,-0.9350586,-0.18487549,-0.27667236,0.796875,0.140625,-0.09375
487,-0.9313965,-0.1795044,-0.27227783,0.71875,0.21875,-0.203125
488,-0.9326172,-0.18511963,-0.2715454,0.875,0.03125,-0.09375
489,-0.9313965,-0.18707275,-0.27667236,1.3125,-0.234375,0.046875
490,-0.9304199,-0.1819458,-0.2756958,1.34375,-0.09375,0.140625
491,-0.92944336,-0.18048096,-0.2715454,1.109375,0.328125,-0.140625
492,-0.9328613,-0.18414307,-0.27252197,1.21875,0.15625,-0.1875
493,-0.9333496,-0.17974854,-0.26763916,1.71875,0.140625,-0.046875
494,-0.93530273,-0.17901611,-0.2727661,1.1875,0.09375,0.03125
495,-0.93481445,-0.17926025,-0.270813,0.9375,0.453125,0.0
496,-0.9284668,-0.18365479,-0.27545166,1.09375,0.640625,-0.015625
497,-0.9338379,-0.17901611,-0.27301025,1.015625,0.484375,0.109375
498,-0.92944336,-0.18243408,-0.27838135,0.984375,0.40625,0.03125
499,-0.9321289,-0.18780518,-0.26715088,0.796875,0.453125,-0.078125
500,-0.92993164,-0.17706299,-0.26397705,0.625,0.375,0.0
501,-0.93237305,-0.17730713,-0.2695923,0.78125,0.234375,-0.046875
502,-0.9355469,-0.18121338,-0.27056885,0.828125,0.28125,-0.0625
503,-0.935791,-0.18292236,-0.27178955,0.640625,-0.125,0.0625
504,-0.9333496,-0.18389893,-0.27130127,1.109375,-0.328125,-0.03125
505,-0.9316406,-0.18560791,-0.26885986,0.921875,-0.21875,-0.015625
506,-0.9350586,-0.17779541,-0.2720337,0.28125,-0.046875,-0.171875
507,-0.9316406,-0.18389893,-0.2822876,0.0625,0.21875,-0.125
508,-0.9301758,-0.19024658,-0.26861572,0.109375,0.671875,-0.078125
509,-0.92700195,-0.1843872,-0.25909424,0.734375,0.453125,-0.328125
510,-0.93188477,-0.18096924,-0.26812744,0.4375,0.328125,-0.09375
511,-0.93310547,-0.18121338,-0.2695923,0.515625,0.421875,-0.03125
512,-0.93237305,-0.18609619,-0.26837158,0.421875,0.515625,-0.21875
513,-0.9328613,-0.18658447,-0.2695923,0.453125,0.515625,0.015625
514,-0.9284668,-0.18804932,-0.2630005,0.828125,0.1875,-0.125
515,-0.9304199,-0.17999268,-0.2695923,0.53125,0.203125,-0.015625
516,-0.93896484,-0.18048096,-0.2625122,0.453125,0.3125,-0.21875
517,-0.93847656,-0.18121338,-0.2654419,0.5625,0.03125,-0.15625
518,-0.9316406,-0.1807251,-0.26763916,0.484375,-0.046875,-0.1875
519,-0.9367676,-0.18389893,-0.27252197,0.5625,-0.421875,-0.046875
520,-0.93603516,-0.18804932,-0.26275635,0.375,0.25,-0.28125
521,-0.9350586,-0.18365479,-0.26983643,0.375,0.390625,-0.171875
522,-0.93530273,-0.18634033,-0.2678833,0.328125,0.265625,-0.234375
523,-0.9309082,-0.1885376,-0.26641846,0.578125,0.15625,-0.15625
524,-0.93188477,-0.18463135,-0.26202393,0.4375,0.03125,-0.171875
525,-0.9328613,-0.18023682,-0.26275635,0.3125,0.140625,-0.1875
526,-0.9321289,-0.18463135,-0.26739502,0.296875,0.328125,-0.203125
527,-0.9375,-0.1843872,-0.27252197,0.453125,0.25,-0.359375
528,-0.93408203,-0.18511963,-0.26690674,0.296875,0.109375,-0.1875
529,-0.93310547,-0.18414307,-0.2649536,0.3125,0.21875,-0.28125
530,-0.935791,-0.18170166,-0.26031494,0.21875,0.375,-0.3125
531,-0.9382324,-0.18804932,-0.2600708,0.578125,0.296875,-0.40625
532,-0.9321289,-0.18536377,-0.25054932,0.21875,0.15625,-0.265625
533,-0.9321289,-0.1831665,-0.27227783,-0.484375,0.140625,-0.5
534,-0.9316406,-0.18365479,-0.27423096,0.015625,0.0625,-0.265625
535,-0.92993164,-0.18243408,-0.2617798,-0.015625,0.609375,-0.515625
536,-0.92993164,-0.1873169,-0.26324463,0.0,0.390625,-0.765625
537,-0.9472656,-0.18389893,-0.26641846,0.0625,0.0,-0.546875
538,-0.935791,-0.18121338,-0.26202393,0.109375,0.03125,-0.5
539,-0.93530273,-0.18267822,-0.2637329,0.015625,-0.234375,-0.34375
540,-0.9321289,-0.17999268,-0.2625122,-0.125,-0.25,-0.21875
541,-0.93530273,-0.17828369,-0.2588501,0.5,-0.09375,-0.484375
542,-0.9333496,-0.175354,-0.2695923,-0.140625,-0.375,-0.3125
543,-0.94311523,-0.17974854,-0.26202393,-0.015625,-0.265625,-0.28125
544,-0.92944336,-0.18511963,-0.26690674,0.125,-0.390625,-0.421875
545,-0.93408203,-0.18023682,-0.25909424,0.234375,-0.53125,-0.421875
546,-0.93188477,-0.18536377,-0.2732544,0.265625,-0.796875,-0.390625
547,-0.9338379,-0.18560791,-0.26885986,0.046875,-0.078125,-0.53125
548,-0.9350586,-0.18365479,-0.26348877,0.25,0.015625,-0.265625
549,-0.9343262,-0.18023682,-0.2654419,0.3125,0.0,-0.3125
550,-0.93237305,-0.17730713,-0.26812744,0.578125,-0.34375,-0.1875
551,-0.93603516,-0.17608643,-0.26690674,0.484375,-0.546875,-0.28125
552,-0.935791,-0.17877197,-0.2654419,0.609375,-0.625,-0.09375
553,-0.9338379,-0.17999268,-0.2637329,0.78125,-0.21875,0.015625
554,-0.9338379,-0.17730713,-0.26885986,0.75,-0.421875,-0.109375
555,-0.9333496,-0.18365479,-0.2781372,1.078125,-0.234375,-0.109375
556,-0.9309082,-0.1831665,-0.28009033,0.609375,-0.3125,-0.046875
557,-0.935791,-0.17584229,-0.2432251,0.59375,0.296875,-0.109375
558,-0.9345703,-0.18609619,-0.27886963,0.203125,0.265625,-0.0625
559,-0.93237305,-0.18780518,-0.26568604,0.828125,0.65625,-0.1875
560,-0.93652344,-0.18121338,-0.27886963,0.671875,-0.296875,-0.0625
561,-0.9333496,-0.18048096,-0.2703247,0.78125,0.328125,-0.34375
562,-0.9387207,-0.18023682,-0.2695923,0.65625,0.40625,0.1875
563,-0.9296875,-0.17852783,-0.27374268,0.796875,0.21875,-0.0625
564,-0.93774414,-0.18341064,-0.27227783,0.65625,0.1875,0.015625
565,-0.93310547,-0.18292236,-0.2727661,1.234375,-0.09375,-0.03125
566,-0.93359375,-0.18609619,-0.2654419,1.421875,0.109375,0.140625
567,-0.93408203,-0.1843872,-0.2617798,1.15625,0.265625,-0.03125
568,-0.9355469,-0.1843872,-0.269104,1.125,0.015625,-0.015625
569,-0.9333496,-0.18511963,-0.25909424,1.28125,-0.046875,-0.125
570,-0.94189453,-0.18463135,-0.27301025,0.5625,-0.015625,-0.09375
571,-0.93188477,-0.1795044,-0.26861572,0.671875,0.515625,0.015625
572,-0.9272461,-0.18243408,-0.26568604,0.625,0.4375,-0.046875
573,-0.93359375,-0.18560791,-0.2678833,0.671875,0.5,-0.125
574,-0.9328613,-0.18096924,-0.2727661,0.625,0.359375,-0.015625
575,-0.92626953,-0.18560791,-0.2637329,0.734375,0.15625,-0.09375
576,-0.9326172,-0.18389893,-0.2666626,0.53125,0.203125,0.03125
577,-0.93237305,-0.1795044,-0.26715088,0.59375,-0.078125,-0.046875
578,-0.9370117,-0.18780518,-0.26885986,0.59375,-0.03125,-0.078125
579,-0.9291992,-0.17828369,-0.26885986,0.46875,0.1875,-0.03125
580,-0.9313965,-0.1843872,-0.26519775,0.78125,0.25,0.0
581,-0.9328613,-0.18267822,-0.26617432,0.421875,0.296875,0.03125
582,-0.9277344,-0.18145752,-0.26641846,-0.03125,0.375,-0.25
583,-0.9296875,-0.17974854,-0.255188,0.625,0.203125,-0.171875
584,-0.94189453,-0.18878174,-0.27618408,-0.34375,0.359375,-0.109375
585,-0.92285156,-0.18341064,-0.2654419,0.28125,0.484375,-0.21875
586,-0.939209,-0.18341064,-0.26446533,0.640625,-0.0625,0.078125
587,-0.93408203,-0.18267822,-0.26055908,0.5,0.359375,-0.09375
588,-0.9394531,-0.190979,-0.2666626,0.421875,0.21875,-0.015625
589,-0.9313965,-0.1831665,-0.27105713,0.328125,0.5625,-0.1875
590,-0.92993164,-0.18707275,-0.2649536,0.328125,0.171875,-0.140625
591,-0.93481445,-0.19122314,-0.26348877,0.40625,0.03125,-0.1875
592,-0.93774414,-0.18902588,-0.26983643,0.21875,-0.078125,0.15625
593,-0.9284668,-0.18536377,-0.26983643,0.609375,0.234375,-0.21875
594,-0.9382324,-0.18560791,-0.26324463,0.46875,-0.203125,-0.28125
595,-0.9355469,-0.18170166,-0.25933838,0.796875,-0.109375,-0.328125
596,-0.93408203,-0.1819458,-0.270813,0.125,0.03125,-0.265625
597,-0.93408203,-0.1819458,-0.26275635,0.4375,0.375,-0.109375
598,-0.9316406,-0.18121338,-0.26031494,0.53125,0.296875,-0.265625
599,-0.9382324,-0.19073486,-0.26202393,0.421875,0.078125,-0.265625
600,-0.93774414,-0.18560791,-0.2666626,0.484375,-0.125,-0.296875
601,-0.93359375,-0.18511963,-0.26470947,0.515625,-0.046875,-0.28125
602,-0.93310547,-0.18536377,-0.26593018,0.375,-0.171875,-0.171875
603,-0.94018555,-0.18463135,-0.2654419,0.40625,-0.296875,-0.265625
604,-0.9289551,-0.18463135,-0.27008057,0.453125,-0.140625,-0.234375
605,-0.92993164,-0.18878174,-0.26348877,0.4375,-0.015625,-0.34375
606,-0.9345703,-0.18585205,-0.25836182,0.5,0.078125,-0.109375
607,-0.939209,-0.18121338,-0.26885986,0.578125,0.03125,-0.1875
608,-0.93408203,-0.18560791,-0.27130127,0.328125,0.0625,-0.234375
609,-0.93408203,-0.17755127,-0.24542236,0.453125,0.296875,-0.390625
610,-0.9362793,-0.18292236,-0.2744751,-0.296875,0.890625,0.046875
611,-0.93725586,-0.18804932,-0.25543213,0.40625,1.578125,-0.546875
612,-0.9345703,-0.18121338,-0.2571411,0.734375,1.25,-0.390625
613,-0.9406738,-0.17974854,-0.26031494,0.234375,1.078125,-0.5
614,-0.93847656,-0.18634033,-0.25665283,0.171875,0.78125,-0.4375
615,-0.93359375,-0.17926025,-0.25860596,-0.15625,0.671875,-0.359375
616,-0.9333496,-0.18634033,-0.25616455,-0.140625,0.109375,-0.359375
617,-0.9338379,-0.1843872,-0.25616455,0.234375,-0.328125,-0.3125
618,-0.9343262,-0.18487549,-0.25860596,0.0625,-0.28125,-0.171875
619,-0.9291992,-0.1819458,-0.253479,0.078125,-0.09375,-0.40625
620,-0.93603516,-0.18560791,-0.25738525,0.171875,-0.5,-0.46875
621,-0.9355469,-0.18170166,-0.253479,0.5,-0.625,-0.5
622,-0.94311523,-0.18365479,-0.26153564,0.25,-0.75,-0.28125
623,-0.9345703,-0.18341064,-0.2630005,-0.015625,-0.3125,-0.5
624,-0.9328613,-0.18609619,-0.2576294,0.0625,-0.25,-0.40625
625,-0.93652344,-0.18096924,-0.25543213,0.328125,-0.46875,-0.421875
626,-0.9355469,-0.1831665,-0.2666626,0.21875,-0.546875,-0.296875
627,-0.9350586,-0.18218994,-0.2617798,0.21875,-0.53125,-0.40625
628,-0.93066406,-0.18243408,-0.2642212,0.1875,-0.703125,-0.375
629,-0.9387207,-0.18341064,-0.25860596,0.203125,-0.6875,-0.40625
630,-0.9394531,-0.18585205,-0.26470947,0.15625,-0.765625,-0.296875
631,-0.93725586,-0.17803955,-0.26519775,0.625,-0.703125,-0.203125
632,-0.9279785,-0.19024658,-0.26934814,0.203125,-0.828125,-0.40625
633,-0.9326172,-0.17266846,-0.23883057,0.1875,-0.046875,-0.34375
634,-0.9338379,-0.18414307,-0.26983643,0.015625,-0.578125,-0.1875
635,-0.93603516,-0.18780518,-0.2559204,0.5625,0.0625,-0.34375
636,-0.9394531,-0.1819458,-0.26739502,0.328125,-0.8125,-0.375
637,-0.93481445,-0.18145752,-0.2678833,0.40625,-0.234375,-0.21875
638,-0.93725586,-0.17999268,-0.2695923,0.5,-0.390625,-0.078125
639,-0.939209,-0.18756104,-0.2732544,0.453125,-0.34375,-0.203125
640,-0.93359375,-0.17926025,-0.2666626,0.515625,-0.3125,-0.109375
641,-0.9284668,-0.18267822,-0.2703247,1.1875,-0.578125,0.0
642,-0.93481445,-0.18414307,-0.27227783,1.078125,-0.421875,-0.03125
643,-0.92822266,-0.18218994,-0.2678833,0.9375,-0.09375,0.0
644,-0.93310547,-0.18365479,-0.27178955,0.875,-0.25,-0.171875
645,-0.9309082,-0.18365479,-0.25982666,1.171875,-0.09375,-0.28125
646,-0.93359375,-0.18829346,-0.2720337,0.859375,-0.15625,-0.0625
647,-0.935791,-0.18756104,-0.2769165,0.625,0.109375,-0.015625
648,-0.9375,-0.18267822,-0.26812744,0.96875,0.1875,-0.078125
649,-0.9304199,-0.1819458,-0.26641846,1.015625,0.21875,0.03125
650,-0.93359375,-0.18023682,-0.2703247,1.109375,0.171875,0.078125
651,-0.92871094,-0.17681885,-0.27520752,1.0,0.015625,0.09375
652,-0.9313965,-0.18170166,-0.2720337,0.984375,0.03125,-0.125
653,-0.93188477,-0.1831665,-0.2678833,0.90625,0.1875,-0.09375
654,-0.9309082,-0.18389893,-0.26885986,0.890625,0.015625,0.078125
655,-0.93530273,-0.18878174,-0.27471924,0.640625,-0.03125,-0.03125
656,-0.93310547,-0.18389893,-0.27398682,0.5625,0.265625,-0.265625
657,-0.9301758,-0.17877197,-0.2571411,0.96875,0.28125,-0.140625
658,-0.9370117,-0.1921997,-0.28375244,-0.0625,0.609375,0.09375
659,-0.9238281,-0.18341064,-0.26593018,0.546875,0.78125,-0.21875
660,-0.93847656,-0.18536377,-0.27130127,0.65625,0.21875,0.046875
661,-0.94262695,-0.18096924,-0.27008057,0.484375,0.5,-0.265625
662,-0.9338379,-0.18585205,-0.27130127,0.640625,0.3125,-0.15625
663,-0.92944336,-0.18243408,-0.269104,0.3125,0.53125,-0.03125
664,-0.9267578,-0.17999268,-0.26812744,0.484375,0.234375,-0.140625
665,-0.9382324,-0.18511963,-0.26348877,0.9375,-0.203125,0.0625
666,-0.9326172,-0.18707275,-0.27008057,0.6875,-0.4375,0.125
667,-0.9321289,-0.18341064,-0.2637329,0.84375,-0.390625,-0.328125
668,-0.9284668,-0.18902588,-0.2715454,0.65625,-0.671875,-0.046875
669,-0.9328613,-0.18170166,-0.27008057,1.15625,-0.625,-0.21875
670,-0.93725586,-0.18536377,-0.27642822,0.234375,-0.484375,0.078125
671,-0.92456055,-0.18463135,-0.27056885,0.359375,0.40625,-0.234375
672,-0.92944336,-0.18121338,-0.270813,0.4375,0.609375,-0.0625
673,-0.93359375,-0.17974854,-0.27008057,0.53125,0.46875,-0.0625
674,-0.9355469,-0.1843872,-0.26837158,0.546875,0.15625,-0.078125
675,-0.9309082,-0.18487549,-0.2678833,0.5,0.140625,-0.203125
676,-0.93115234,-0.18902588,-0.27227783,0.296875,0.015625,-0.109375
677,-0.93310547,-0.18145752,-0.26397705,0.59375,-0.046875,-0.140625
678,-0.9328613,-0.18414307,-0.26861572,0.5625,-0.140625,-0.203125
679,-0.9343262,-0.18585205,-0.27423096,0.46875,0.15625,-0.1875
680,-0.93603516,-0.17901611,-0.2703247,0.453125,0.421875,-0.09375
681,-0.93530273,-0.18243408,-0.2642212,0.515625,0.421875,-0.203125
682,-0.93408203,-0.18292236,-0.27130127,0.3125,0.265625,-0.0625
683,-0.9304199,-0.18634033,-0.27374268,0.171875,0.25,-0.359375
684,-0.92993164,-0.18292236,-0.25445557,0.484375,-0.015625,-0.34375
685,-0.9326172,-0.18682861,-0.28009033,-0.3125,0.28125,0.046875
686,-0.92456055,-0.18511963,-0.27178955,0.34375,0.546875,-0.40625
687,-0.94018555,-0.1831665,-0.270813,0.5,-0.171875,0.046875
688,-0.93066406,-0.1819458,-0.26593018,0.34375,0.265625,-0.1875
689,-0.92993164,-0.18365479,-0.26812744,0.578125,0.140625,-0.09375
690,-0.92700195,-0.18145752,-0.26983643,0.359375,0.25,-0.328125
691,-0.93310547,-0.18878174,-0.27056885,0.328125,0.359375,-0.078125
692,-0.9345703,-0.18902588,-0.2630005,0.484375,0.328125,-0.34375
693,-0.9433594,-0.18927002,-0.26861572,0.234375,0.40625,-0.203125
694,-0.93188477,-0.18267822,-0.2630005,0.28125,0.28125,-0.375
695,-0.9355469,-0.18756104,-0.2612915,0.125,0.140625,-0.421875
696,-0.93310547,-0.18609619,-0.25543213,0.296875,0.109375,-0.484375
697,-0.9423828,-0.18682861,-0.2666626,-0.265625,0.296875,-0.59375
698,-0.93969727,-0.18292236,-0.26641846,-0.421875,0.734375,-0.515625
699,-0.9260254,-0.1897583,-0.26080322,-0.015625,0.59375,-0.53125
700,-0.9345703,-0.18414307,-0.26153564,-0.1875,0.234375,-0.515625
701,-0.9296875,-0.18292236,-0.25909424,0.234375,0.015625,-0.390625
702,-0.93115234,-0.18389893,-0.2654419,0.0625,-0.1875,-0.375
703,-0.93896484,-0.18463135,-0.2649536,0.078125,-0.1875,-0.296875
704,-0.93188477,-0.18707275,-0.25982666,0.078125,-0.390625,-0.34375
705,-0.9382324,-0.1807251,-0.2649536,0.265625,-0.515625,-0.578125
706,-0.9367676,-0.17706299,-0.26324463,0.09375,-0.1875,-0.421875
707,-0.9338379,-0.18511963,-0.2654419,0.171875,0.0,-0.1875
708,-0.9343262,-0.1807251,-0.26568604,0.34375,-0.359375,-0.25
709,-0.9255371,-0.18878174,-0.26715088,0.25,-0.53125,-0.375
710,-0.93310547,-0.17462158,-0.2468872,-0.078125,-0.109375,-0.421875
711,-0.9367676,-0.18511963,-0.270813,-0.34375,-0.375,-0.09375
712,-0.9375,-0.18292236,-0.25177002,0.40625,0.234375,-0.484375
713,-0.9362793,-0.18365479,-0.26983643,0.1875,-0.8125,-0.484375
714,-0.93725586,-0.18170166,-0.269104,0.09375,-0.46875,-0.59375
715,-0.92749023,-0.1831665,-0.269104,0.234375,-0.09375,-0.28125
716,-0.9328613,-0.18365479,-0.27642822,-0.03125,-0.546875,-0.171875
717,-0.93066406,-0.18292236,-0.26275635,0.1875,-0.375,-0.171875
718,-0.9367676,-0.18463135,-0.2769165,0.34375,-0.828125,-0.234375
719,-0.9321289,-0.18121338,-0.26934814,0.296875,-0.5625,-0.21875
720,-0.93652344,-0.18341064,-0.25738525,0.0625,-0.046875,-0.421875
721,-0.9291992,-0.18682861,-0.2654419,0.078125,-0.265625,-0.3125
722,-0.9284668,-0.18170166,-0.2630005,0.5,-0.109375,-0.390625
723,-0.9328613,-0.18389893,-0.27496338,0.109375,-0.390625,-0.1875
724,-0.9304199,-0.18023682,-0.26739502,-0.1875,-0.03125,-0.265625
725,-0.9309082,-0.17486572,-0.27374268,0.15625,-0.03125,-0.28125
726,-0.9375,-0.17779541,-0.2654419,0.125,-0.03125,-0.265625
727,-0.93115234,-0.18560791,-0.27520752,0.09375,-0.296875,-0.1875
728,-0.9350586,-0.18096924,-0.27056885,0.25,-0.34375,-0.375
729,-0.9313965,-0.1795044,-0.26470947,0.40625,-0.296875,-0.234375
730,-0.93188477,-0.18267822,-0.27496338,0.671875,-0.34375,-0.453125
731,-0.9321289,-0.17999268,-0.26739502,0.875,-0.765625,-0.046875
732,-0.9277344,-0.18267822,-0.27374268,1.171875,-0.703125,-0.046875
733,-0.92944336,-0.17755127,-0.27789307,-0.09375,-0.078125,-0.25
734,-0.93237305,-0.18145752,-0.28302002,1.015625,-0.328125,0.015625
735,-0.92944336,-0.19049072,-0.27471924,0.78125,0.734375,-0.15625
736,-0.923584,-0.18658447,-0.2774048,0.796875,-0.140625,-0.1875
737,-0.93237305,-0.18341064,-0.2744751,0.859375,0.28125,-0.203125
738,-0.9370117,-0.1807251,-0.27349854,0.84375,0.3125,-0.296875
739,-0.9338379,-0.18023682,-0.27398682,0.9375,0.078125,0.0
740,-0.92626953,-0.18511963,-0.27471924,1.125,0.203125,0.109375
741,-0.9272461,-0.18096924,-0.2703247,2.0625,0.21875,0.171875
742,-0.9260254,-0.18121338,-0.27105713,1.640625,0.078125,0.078125
743,-0.935791,-0.17633057,-0.27178955,1.25,0.359375,0.25
744,-0.93530273,-0.18267822,-0.2798462,1.375,-0.125,0.15625
745,-0.92822266,-0.18414307,-0.26397705,1.578125,0.0625,-0.15625
746,-0.9296875,-0.17852783,-0.28082275,1.078125,-0.078125,-0.0625
747,-0.92993164,-0.17974854,-0.28009033,0.8125,0.5,-0.171875
748,-0.9272461,-0.17364502,-0.2732544,0.859375,0.53125,0.0625
749,-0.9326172,-0.17681885,-0.27471924,0.984375,0.1875,0.015625
750,-0.92578125,-0.17828369,-0.26885986,1.046875,0.234375,-0.078125
751,-0.9350586,-0.17803955,-0.2769165,0.90625,0.40625,-0.09375
752,-0.9277344,-0.18218994,-0.2744751,0.625,0.171875,0.0
753,-0.92871094,-0.1819458,-0.27008057,0.734375,-0.09375,-0.09375
754,-0.93188477,-0.1873169,-0.26861572,0.71875,-0.484375,-0.15625
755,-0.93481445,-0.18243408,-0.27960205,0.734375,-0.34375,-0.109375
756,-0.93310547,-0.1765747,-0.2732544,0.5625,-0.046875,-0.15625
757,-0.9272461,-0.17852783,-0.28155518,0.140625,0.234375,-0.0625
758,-0.9309082,-0.17828369,-0.2703247,0.84375,0.015625,0.109375
759,-0.9379883,-0.1831665,-0.28302002,-0.125,0.46875,0.03125
