sample_no,accel_x,accel_y,accel_z,gyro_x,gyro_y,gyro_z
0,-0.9951172,0.23828125,-0.28027344,-60.3125,2.5625,1.875
1,-1.0683594,0.037109375,-0.01953125,-86.0625,89.1875,-11.03125
2,-1.0292969,0.08691406,0.12597656,-98.09375,5.625,-45.8125
3,-0.9472656,-0.08300781,0.099609375,-133.34375,9.03125,-57.09375
4,-1.015625,-0.4189453,0.09277344,-142.15625,-33.25,-103.0625
5,-1.0322266,-0.13085938,0.38378906,-154.71875,-39.1875,-149.09375
6,-0.6689453,-0.048828125,0.20898438,-41.9375,-47.3125,-120.46875
7,-0.96484375,0.34277344,0.39160156,-40.28125,0.1875,-67.90625
8,-1.3662109,0.055664062,0.2890625,-12.9375,22.21875,-9.6875
9,-1.5244141,-0.4345703,0.4658203,47.78125,5.875,32.8125
10,-1.1181641,-0.16796875,0.45507812,49.0625,15.8125,66.375
11,-0.86816406,0.0859375,0.2783203,91.8125,11.71875,89.09375
12,-0.8359375,0.1328125,0.15429688,85.5625,24.71875,93.21875
13,-0.9091797,0.09082031,0.15527344,96.3125,17.6875,80.40625
14,-0.8623047,0.13378906,0.076171875,94.78125,1.28125,50.75
15,-0.96191406,0.0625,0.16015625,100.03125,13.125,35.125
16,-1.1757812,-0.08886719,0.16113281,69.21875,3.65625,32.5625
17,-1.1982422,0.036132812,-0.2705078,132.28125,-22.9375,48.3125
18,-0.66308594,0.42285156,-0.030273438,199.84375,-35.28125,23.40625
19,-1.0107422,0.23046875,-0.18847656,84.125,-53.90625,18.46875
20,-1.0087891,0.15234375,-0.14453125,-25.03125,5.5625,-16.4375
21,-0.9169922,0.19921875,-0.37890625,0.0,-29.28125,-10.53125
22,-0.8652344,0.2939453,-0.18945312,-64.75,-5.375,-3.03125
23,-0.9199219,0.43847656,-0.13964844,-49.0,3.125,-4.0
24,-0.92871094,0.3720703,-0.13769531,-23.3125,4.625,-11.75
25,-0.98339844,0.17578125,0.19726562,-100.40625,92.46875,-21.40625
26,-1.1064453,0.030273438,0.07128906,-166.375,16.71875,-53.375
27,-0.9160156,-0.22363281,0.15332031,-161.625,-1.65625,-70.84375
28,-1.0634766,-0.2548828,0.3330078,-136.90625,-30.9375,-127.71875
29,-0.9160156,0.16992188,0.44335938,-103.6875,-93.8125,-114.78125
30,-0.8623047,0.34472656,0.3701172,-86.125,-69.9375,-96.03125
31,-1.1757812,-0.091796875,0.2607422,-80.375,-40.40625,-48.0
32,-1.1123047,-0.46679688,0.3544922,-18.625,-5.125,-18.65625
33,-1.0068359,-0.44726562,0.484375,36.0625,31.25,54.0
34,-1.1074219,-0.1484375,0.37695312,64.65625,33.21875,82.0625
35,-1.0400391,0.080078125,0.17871094,101.9375,60.1875,80.0625
36,-0.90234375,0.052734375,0.0703125,86.5,69.40625,88.40625
37,-0.9638672,0.13769531,0.1171875,89.46875,50.34375,96.03125
38,-0.8642578,0.10253906,0.14355469,137.21875,17.03125,69.65625
39,-0.8330078,0.21679688,0.20019531,112.8125,16.40625,52.21875
40,-1.0449219,0.046875,0.12890625,62.8125,1.15625,56.71875
41,-1.1162109,0.23046875,-0.20800781,53.09375,-28.6875,43.96875
42,-0.92089844,0.45898438,-0.040039062,134.59375,-17.15625,13.875
43,-0.92285156,0.27246094,-0.33007812,94.65625,-48.53125,7.53125
44,-0.87109375,0.41308594,-0.15429688,0.125,11.15625,0.28125
45,-0.9765625,0.3154297,-0.15234375,-29.65625,6.15625,2.96875
46,-0.8486328,0.25878906,-0.28027344,-48.15625,-6.09375,1.125
47,-0.8671875,0.33398438,-0.17285156,-81.84375,9.28125,-6.9375
48,-1.0136719,0.2626953,-0.16113281,-18.3125,12.75,-3.75
49,-1.0224609,0.27929688,-0.03125,-36.375,47.4375,-20.21875
50,-0.95703125,0.22363281,0.10449219,-121.34375,45.21875,-31.46875
51,-0.97265625,-0.038085938,0.05078125,-152.21875,21.5625,-40.0625
52,-0.9794922,-0.16992188,0.17871094,-166.8125,18.5625,-72.78125
53,-1.0839844,-0.40039062,0.3701172,-132.625,-35.40625,-149.25
54,-0.9863281,0.12792969,0.23339844,-78.96875,-95.15625,-144.1875
55,-0.5341797,0.42871094,-0.20410156,-51.9375,-20.09375,-103.78125
56,-1.0732422,-0.14648438,-0.0234375,-88.875,47.125,-73.59375
57,-1.7558594,-0.50683594,0.66015625,-64.25,57.375,-18.84375
58,-1.3173828,-0.28320312,0.47558594,66.53125,27.90625,66.25
59,-1.1982422,0.12695312,0.36132812,145.34375,-2.0,91.40625
60,-0.8417969,0.31640625,0.27929688,115.3125,9.53125,100.25
61,-0.9326172,0.33691406,0.14941406,55.65625,21.125,88.84375
62,-0.65527344,0.15527344,0.23828125,49.4375,17.75,89.15625
63,-1.1777344,-0.28320312,-0.14648438,54.5625,9.71875,98.59375
64,-1.0019531,-0.45214844,-0.3779297,166.4375,-26.5,77.1875
65,-1.0625,0.0078125,-0.28125,202.34375,-37.40625,52.09375
66,-0.9658203,0.42089844,0.25097656,103.8125,7.625,18.28125
67,-0.79785156,0.38378906,-0.41992188,55.25,-48.28125,-18.65625
68,-0.8486328,0.48046875,-0.3173828,4.15625,-20.9375,-25.375
69,-1.0244141,0.12109375,-0.5810547,8.4375,-13.375,-6.0625
70,-0.92578125,0.28125,-0.20214844,-33.875,12.28125,-4.4375
71,-0.9238281,0.32421875,-0.07128906,-63.40625,13.0625,-3.5
72,-0.96972656,0.2529297,-0.015625,-62.3125,13.5625,-11.09375
73,-0.9511719,0.25976562,-0.045898438,-58.84375,4.15625,-25.84375
74,-0.95214844,0.26367188,-0.0703125,-82.5,0.5625,-39.875
75,-0.9433594,0.055664062,0.0,-181.5,31.375,-46.53125
76,-0.8613281,-0.13867188,0.3017578,-250.59375,30.6875,-67.53125
77,-1.0947266,-0.0703125,0.35058594,-184.4375,-40.84375,-148.03125
78,-0.8955078,0.025390625,0.09863281,-89.90625,-87.78125,-115.625
79,-0.78515625,0.31152344,0.20605469,-90.875,-24.59375,-85.71875
80,-1.3613281,-0.4375,0.14160156,-79.875,13.0,-20.1875
81,-1.4814453,-0.4111328,0.3955078,-5.71875,20.875,26.40625
82,-1.1464844,-0.1796875,0.3564453,68.84375,15.9375,69.0625
83,-0.90722656,0.111328125,0.23046875,96.1875,18.625,102.09375
84,-0.8984375,0.053710938,0.055664062,87.90625,40.78125,108.6875
85,-0.8330078,-0.11621094,0.026367188,73.84375,52.125,95.4375
86,-0.9189453,-0.043945312,0.08300781,136.96875,13.125,72.65625
87,-1.0419922,-0.18457031,0.0625,137.625,-0.90625,64.0625
88,-1.1181641,-0.11035156,0.045898438,210.875,-52.1875,67.84375
89,-0.94433594,-0.0029296875,-0.48046875,208.8125,-68.0,35.78125
90,-0.7236328,0.3671875,-0.25,67.21875,-53.90625,-39.53125
91,-0.90234375,0.58984375,-0.24414062,0.5,-38.625,-30.96875
92,-0.99902344,0.30078125,-0.5605469,-20.5,-20.09375,-10.84375
93,-0.88378906,0.359375,-0.23046875,-63.78125,4.53125,-1.75
94,-0.890625,0.30664062,-0.12695312,-61.09375,4.21875,2.78125
95,-0.9453125,0.34375,-0.076171875,-20.5,19.28125,-7.78125
96,-1.0009766,0.24316406,0.06347656,-58.84375,38.21875,-14.8125
97,-0.9355469,0.22070312,0.049804688,-110.40625,16.0,-28.78125
98,-0.92578125,0.045898438,-0.018554688,-151.25,34.71875,-34.15625
99,-1.0478516,-0.37890625,0.17285156,-177.25,0.1875,-87.1875
100,-1.0839844,-0.025390625,0.41210938,-236.25,-21.375,-165.75
101,-0.7402344,0.3779297,0.11621094,-65.375,-94.125,-113.75
102,-0.9042969,0.07421875,-0.036132812,-18.5625,-46.03125,-56.625
103,-1.4833984,-0.6308594,0.34472656,-100.9375,6.09375,-25.1875
104,-1.1748047,-0.4658203,0.3515625,5.5,5.25,12.125
105,-1.0078125,-0.3095703,0.265625,58.59375,24.125,70.09375
106,-1.0634766,-0.08496094,0.23632812,104.75,32.71875,89.875
107,-0.859375,0.0146484375,0.049804688,103.46875,52.4375,93.34375
108,-0.8300781,-0.026367188,0.0546875,94.96875,48.34375,83.78125
109,-1.0380859,-0.0087890625,0.05078125,111.875,38.875,71.75
110,-1.0585938,0.15722656,0.15722656,151.0,5.4375,41.84375
111,-1.0634766,0.23339844,0.047851562,167.125,-31.625,47.46875
112,-0.8095703,0.17871094,-0.19433594,240.46875,-74.03125,76.25
113,-0.84375,-0.22851562,-0.18652344,182.1875,-29.21875,52.46875
114,-1.0986328,0.40722656,0.0,-52.84375,20.625,-32.8125
115,-0.90527344,0.13476562,-0.40039062,6.84375,-51.875,-15.0
116,-0.9980469,0.28320312,-0.24609375,-22.21875,-9.40625,-8.8125
117,-0.9609375,0.47070312,-0.23632812,-51.3125,10.6875,-5.40625
118,-0.9169922,0.44726562,-0.09082031,-47.1875,7.3125,-12.375
119,-0.9394531,0.2783203,0.028320312,-26.125,25.9375,-15.21875
120,-0.9375,0.3515625,-0.0009765625,-79.21875,10.1875,-27.875
121,-0.9199219,0.2998047,-0.04296875,-137.8125,0.6875,-33.1875
122,-0.9042969,-0.07324219,-0.043945312,-235.53125,13.3125,-41.09375
123,-1.0302734,-0.35351562,0.45214844,-276.90625,-3.59375,-134.625
124,-1.0341797,0.08984375,0.055664062,-178.78125,-69.59375,-132.28125
125,-0.7753906,-0.3095703,0.064453125,-102.40625,-41.3125,-88.65625
126,-1.2939453,-0.6298828,0.30371094,-63.40625,-11.15625,-39.09375
127,-1.4316406,-0.3984375,0.2998047,56.40625,1.90625,21.34375
128,-1.0371094,-0.13867188,0.28808594,98.5625,39.5,75.65625
129,-1.0683594,-0.055664062,0.2861328,142.71875,53.59375,99.9375
130,-0.9091797,0.26367188,0.22851562,138.5,46.28125,111.59375
131,-0.73339844,0.18457031,0.32714844,115.3125,49.5625,97.5
132,-0.90625,0.26464844,0.18164062,97.0,26.3125,86.875
133,-1.0,0.099609375,0.024414062,91.0,-0.3125,61.90625
134,-0.9824219,-0.01171875,-0.037109375,157.53125,-24.53125,47.6875
135,-1.15625,-0.013671875,0.10449219,130.875,5.5,41.03125
136,-0.9189453,0.35839844,0.01171875,69.9375,-39.3125,-22.8125
137,-0.8955078,0.27539062,-0.4580078,77.59375,-57.75,-13.6875
138,-0.94140625,0.22753906,-0.27246094,38.28125,-15.1875,-12.1875
139,-1.0107422,0.12402344,-0.3955078,8.0625,-4.28125,-4.0
140,-0.93066406,0.25585938,-0.2890625,-21.65625,5.0625,0.34375
141,-0.9033203,0.3515625,-0.07128906,-96.375,6.96875,-10.03125
142,-0.9121094,0.328125,-0.041015625,-86.65625,17.15625,-22.625
143,-0.9550781,0.23046875,-0.07519531,-81.21875,6.09375,-32.0
144,-0.99902344,0.140625,0.005859375,-92.84375,8.59375,-36.53125
145,-0.9658203,-0.119140625,0.17871094,-190.1875,4.875,-51.65625
146,-0.8535156,-0.3046875,0.22753906,-201.28125,-21.71875,-93.15625
147,-1.0585938,-0.059570312,0.32910156,-182.71875,-64.09375,-143.28125
148,-0.6953125,0.12011719,0.02734375,-62.375,-59.4375,-101.09375
149,-0.99902344,-0.28808594,0.18164062,-99.59375,-5.375,-54.84375
150,-1.6425781,-0.34277344,0.36914062,-42.15625,29.71875,-16.8125
151,-1.1894531,-0.296875,0.31054688,39.625,30.28125,34.9375
152,-1.0693359,-0.009765625,0.3798828,79.78125,39.5625,71.0625
153,-1.0908203,-0.021484375,0.265625,92.28125,52.4375,89.4375
154,-0.9404297,0.12109375,0.26171875,79.03125,31.4375,113.90625
155,-0.8388672,0.17089844,0.1015625,105.34375,20.9375,94.625
156,-0.87597656,-0.026367188,-0.095703125,119.5,26.625,95.96875
157,-0.9560547,-0.26660156,0.07324219,177.875,-8.0625,82.4375
158,-1.0800781,0.20019531,-0.17382812,177.0625,-32.90625,55.6875
159,-1.0322266,0.07714844,0.022460938,82.53125,-14.65625,6.4375
160,-0.7783203,0.4970703,-0.18847656,-36.625,-26.5,-50.4375
161,-0.8730469,0.23242188,-0.48339844,6.71875,-41.875,-10.78125
162,-1.0800781,0.09765625,-0.54589844,-43.34375,2.4375,6.625
163,-0.9082031,0.18261719,-0.18554688,-90.28125,5.5,7.0
164,-0.9453125,0.12597656,-0.059570312,-68.84375,4.625,0.8125
165,-0.93652344,0.16601562,-0.056640625,-1.28125,6.59375,-11.375
166,-0.96484375,0.29882812,0.057617188,-20.6875,27.53125,-27.3125
167,-0.9785156,0.24316406,0.111328125,-87.53125,23.0625,-33.96875
168,-1.0576172,-0.064453125,0.14941406,-147.34375,-12.8125,-47.09375
169,-0.9873047,-0.52246094,0.0859375,-156.96875,-17.5625,-95.96875
170,-1.0693359,-0.095703125,0.40234375,-131.28125,-38.8125,-149.3125
171,-0.61621094,0.10546875,0.18359375,-28.25,-79.03125,-92.0
172,-1.0703125,0.2841797,0.22558594,-16.59375,16.0,-33.59375
173,-1.734375,-0.24316406,0.23242188,-12.3125,26.96875,4.78125
174,-1.2763672,-0.055664062,0.41992188,46.9375,33.5,39.46875
175,-0.96777344,0.15625,0.33007812,70.5625,31.4375,80.21875
176,-1.0244141,0.28027344,0.20996094,64.34375,27.15625,92.75
177,-0.84765625,0.19726562,0.1171875,56.59375,16.40625,72.28125
178,-0.76660156,0.17773438,0.078125,65.1875,0.0625,79.125
179,-0.92871094,0.033203125,-0.052734375,74.15625,4.03125,63.125
180,-1.0888672,-0.22167969,0.0703125,107.84375,24.59375,59.96875
181,-1.0507812,0.18261719,0.030273438,127.5625,-31.75,34.15625
182,-0.9355469,0.1796875,-0.0126953125,52.4375,-18.84375,12.3125
183,-0.93066406,0.17285156,-0.3232422,18.0,-24.78125,-4.1875
184,-0.9453125,0.19140625,-0.2890625,-0.125,-16.65625,-1.1875
185,-1.0527344,0.024414062,-0.31933594,-2.0625,-4.625,4.3125
186,-0.9423828,0.15917969,-0.2626953,-14.34375,-8.65625,2.59375
187,-0.8935547,0.21679688,-0.061523438,-55.96875,1.78125,-8.46875
188,-0.9267578,0.34765625,-0.0107421875,-21.90625,11.28125,-13.59375
189,-0.9238281,0.30664062,0.036132812,-37.65625,20.03125,-16.5
190,-1.0253906,0.18554688,0.10449219,-74.46875,24.53125,-27.9375
191,-0.94628906,-0.040039062,0.018554688,-130.5625,15.03125,-61.125
192,-0.8925781,-0.16113281,0.27148438,-138.90625,-29.96875,-114.96875
193,-1.0869141,0.18554688,0.6933594,-111.75,-72.1875,-142.71875
194,-0.76953125,0.39648438,-0.12792969,-84.03125,-49.125,-109.21875
195,-1.1328125,0.08496094,0.16503906,-122.625,5.4375,-64.96875
196,-1.3574219,-0.50878906,0.29785156,-63.78125,28.1875,-15.59375
197,-1.3847656,-0.5439453,0.36523438,-15.8125,34.65625,48.25
198,-1.0644531,-0.06933594,0.2841797,79.71875,11.90625,78.46875
199,-0.8808594,0.17578125,0.21191406,81.59375,12.4375,85.0
200,-0.7705078,0.14257812,0.1171875,70.1875,32.53125,90.78125
201,-0.9580078,0.09863281,0.09765625,40.34375,44.9375,84.25
202,-0.8642578,-0.048828125,0.12695312,58.53125,41.875,68.5625
203,-1.1445312,-0.12792969,0.22363281,60.78125,8.0625,48.84375
204,-1.2431641,-0.07910156,0.041015625,99.375,-19.09375,35.0625
205,-0.8964844,0.1796875,-0.22070312,152.84375,-71.34375,37.09375
206,-0.7441406,0.3623047,-0.24511719,146.0,-39.125,22.4375
207,-1.0664062,0.234375,0.05078125,52.625,7.15625,1.8125
208,-0.97265625,-0.0087890625,-0.39648438,29.53125,-31.375,-4.59375
209,-0.93847656,0.15820312,-0.4345703,5.9375,-18.5,-5.71875
210,-0.89160156,0.31347656,-0.15136719,-66.875,8.0625,-3.28125
211,-0.93066406,0.4580078,-0.103515625,-13.46875,-4.46875,-6.625
212,-0.8876953,0.42382812,0.0009765625,-49.96875,14.65625,-16.375
213,-0.9716797,0.21582031,-0.0009765625,-51.15625,31.8125,-18.71875
214,-1.0263672,0.072265625,0.12011719,-117.71875,10.1875,-38.53125
215,-0.9277344,-0.2109375,0.20996094,-153.75,0.0,-72.40625
216,-1.0712891,-0.25878906,0.20410156,-171.0625,-38.21875,-151.9375
217,-0.8652344,0.057617188,0.171875,-78.0,-119.375,-127.96875
218,-0.6621094,0.140625,0.22460938,-57.0625,-62.1875,-90.78125
219,-1.2597656,-0.07714844,0.31054688,-45.71875,-28.5,-40.1875
220,-1.5380859,-0.4638672,0.29785156,22.34375,-2.125,-8.8125
221,-0.90625,-0.0068359375,0.38671875,58.21875,23.25,43.3125
222,-0.984375,0.01171875,0.40234375,72.21875,66.03125,58.75
223,-1.1855469,0.11035156,0.15917969,47.84375,77.625,93.34375
224,-0.96191406,0.1015625,0.10839844,38.8125,76.25,94.8125
225,-0.8330078,0.018554688,0.115234375,87.90625,32.71875,69.125
226,-0.90722656,0.06542969,0.10644531,89.0,30.875,69.125
227,-1.0810547,0.013671875,0.28320312,93.5625,-0.5625,58.0
228,-0.94921875,0.125,-0.109375,83.5,-17.5,57.03125
229,-0.7949219,0.25097656,-0.25683594,156.1875,-37.34375,59.125
230,-1.1240234,-0.013671875,0.07519531,133.6875,-32.78125,31.59375
231,-0.99902344,0.18261719,-0.44628906,6.78125,-21.84375,-15.0
232,-0.9511719,0.27734375,-0.24414062,-56.34375,-6.59375,-13.59375
233,-0.8808594,0.2705078,-0.26367188,-60.96875,-13.96875,-3.75
234,-0.9169922,0.33007812,-0.2763672,9.84375,-9.59375,-4.0625
235,-0.92089844,0.30566406,-0.05859375,-22.03125,9.09375,-15.15625
236,-0.9296875,0.3173828,0.28027344,-64.15625,69.46875,-25.71875
237,-0.96484375,0.35253906,0.14648438,-96.3125,-24.03125,-36.34375
238,-0.8691406,-0.045898438,-0.24902344,-139.71875,-21.78125,-40.75
239,-0.9550781,-0.1953125,0.6484375,-208.0625,20.09375,-115.4375
240,-1.0634766,-0.17871094,0.1015625,-162.34375,-65.125,-122.40625
241,-0.8535156,-0.13671875,0.18164062,-76.46875,-33.6875,-106.15625
242,-1.0810547,0.11816406,0.30371094,-74.65625,2.8125,-68.6875
243,-1.4345703,-0.22558594,0.3466797,-0.96875,31.3125,9.78125
244,-1.3496094,-0.076171875,0.359375,21.1875,29.0625,49.59375
245,-1.0791016,-0.09375,0.4091797,62.9375,37.34375,76.4375
246,-1.0146484,0.095703125,0.24414062,72.9375,16.65625,97.125
247,-0.75,0.3154297,0.2109375,57.375,19.46875,75.65625
248,-0.86035156,-0.022460938,0.0068359375,62.75,5.0,85.65625
249,-0.92089844,-0.3857422,-0.1875,101.5,10.125,61.6875
250,-1.0820312,-0.06933594,-0.022460938,106.4375,22.875,38.1875
251,-1.0517578,0.82714844,-0.028320312,-62.5625,-20.9375,13.53125
252,-1.1855469,0.03515625,0.24902344,182.5625,-47.84375,64.78125
253,-0.91796875,0.0625,-0.5214844,184.8125,-76.40625,25.0
254,-0.88378906,0.23535156,-0.2890625,-36.125,-6.84375,-25.1875
255,-1.0078125,0.22851562,-0.39257812,-2.5625,-7.6875,-1.3125
256,-0.96875,0.21191406,-0.3232422,-36.625,-12.3125,0.9375
257,-0.8935547,0.21191406,-0.13476562,-74.21875,-8.59375,-0.03125
258,-0.8964844,0.20019531,0.036132812,-17.625,19.53125,-9.625
259,-0.95410156,0.3388672,0.08300781,-14.21875,20.5,-18.9375
260,-0.9511719,0.3671875,0.022460938,-65.65625,8.375,-28.09375
261,-0.91796875,0.072265625,0.19042969,-111.6875,2.03125,-39.65625
262,-0.94628906,-0.31445312,0.30566406,-156.78125,-16.84375,-77.78125
263,-1.2763672,-0.41308594,0.3408203,-191.59375,-48.8125,-185.6875
264,-0.7138672,0.37695312,0.123046875,-77.21875,-78.25,-128.875
265,-0.7421875,0.53125,0.29589844,-8.96875,-29.78125,-51.25
266,-1.8466797,-0.22949219,0.3701172,-38.5625,26.6875,6.1875
267,-1.4873047,-0.40234375,0.35546875,-26.1875,29.78125,31.84375
268,-0.9707031,-0.18847656,0.3125,52.75,32.84375,73.21875
269,-0.82421875,0.0126953125,0.15625,90.28125,53.71875,124.65625
270,-0.98046875,0.1796875,0.04296875,88.5,39.625,100.125
271,-0.6582031,0.11328125,0.16992188,95.71875,26.625,69.71875
272,-0.9638672,0.083984375,0.08105469,92.96875,27.34375,57.84375
273,-1.1347656,0.0068359375,0.00390625,60.90625,8.4375,50.5625
274,-1.1210938,-0.055664062,-0.12988281,158.5625,-45.90625,72.0625
275,-0.82910156,0.2998047,-0.13964844,245.78125,-74.09375,40.0
276,-0.8798828,0.14355469,-0.31933594,-50.96875,-20.9375,-18.90625
277,-0.95214844,0.40234375,-0.12011719,-34.46875,-5.75,-12.25
278,-0.9267578,0.25976562,-0.3173828,-22.15625,-25.625,6.0
279,-0.9482422,0.17675781,-0.21875,-49.125,-3.1875,0.15625
280,-0.96875,0.1875,-0.1015625,-47.1875,7.21875,-14.4375
281,-0.9453125,0.34375,0.26367188,-58.90625,59.15625,-32.8125
282,-0.95214844,0.25683594,0.13085938,-107.71875,9.34375,-35.84375
283,-1.0751953,0.115234375,0.32128906,-114.6875,-16.46875,-66.4375
284,-0.9580078,-0.30566406,0.0234375,-195.125,-24.09375,-126.25
285,-0.65625,-0.09765625,-0.038085938,-150.625,-5.90625,-122.90625
286,-0.7441406,-0.033203125,0.4404297,-4.28125,-24.96875,-109.78125
287,-1.2177734,-0.022460938,0.18847656,-7.25,-27.15625,-71.125
288,-1.5175781,0.13085938,0.45410156,-79.40625,9.40625,-0.03125
289,-1.3808594,-0.27441406,0.47558594,-6.46875,7.5,30.4375
290,-1.1572266,-0.13964844,0.25585938,57.75,11.15625,70.03125
291,-0.8798828,0.115234375,0.21679688,81.90625,30.75,101.84375
292,-0.80859375,0.046875,0.059570312,68.4375,38.5625,108.6875
293,-0.82910156,-0.13378906,0.052734375,58.78125,43.28125,103.0625
294,-0.86328125,-0.12011719,-0.040039062,101.3125,17.34375,73.625
295,-1.0673828,0.04296875,0.10253906,114.25,13.4375,54.71875
296,-1.1845703,0.095703125,-0.01953125,107.625,-10.125,48.625
297,-0.9238281,0.30078125,-0.15527344,127.5625,-35.09375,43.25
298,-0.93066406,0.057617188,-0.17675781,122.5,-61.21875,4.59375
299,-0.8984375,0.359375,-0.3154297,22.78125,-29.96875,-15.71875
300,-1.03125,0.15820312,-0.46777344,-2.3125,-11.71875,-9.0
301,-0.9189453,0.29101562,-0.29492188,-39.65625,7.09375,-0.59375
302,-0.9199219,0.2998047,-0.12792969,-54.75,9.59375,-5.09375
303,-0.9375,0.3251953,0.115234375,-6.34375,38.03125,-14.6875
304,-0.9423828,0.3154297,0.072265625,-41.4375,13.1875,-25.71875
305,-0.97265625,0.23339844,0.016601562,-58.28125,-4.03125,-26.53125
306,-0.9824219,0.087890625,0.04296875,-67.0625,-3.90625,-22.625
307,-0.9550781,-0.19238281,0.23535156,-153.3125,-14.53125,-46.28125
308,-1.2041016,-0.7363281,0.5917969,-209.03125,-71.65625,-169.15625
309,-0.9580078,0.12207031,0.09765625,-105.21875,-115.21875,-122.53125
310,-0.5175781,0.7783203,0.08203125,-22.53125,-49.8125,-86.6875
311,-1.5947266,-0.021484375,0.45898438,-74.46875,10.875,-13.8125
312,-1.5029297,-0.36132812,0.3095703,8.4375,22.53125,4.5
313,-1.2236328,-0.3564453,0.33203125,21.84375,56.34375,63.375
314,-0.9277344,0.14160156,0.25878906,55.5625,76.1875,104.09375
315,-0.89746094,0.37597656,0.20996094,48.78125,69.03125,126.75
316,-0.75390625,0.16992188,0.125,110.71875,22.53125,78.03125
317,-0.7783203,0.21972656,0.0234375,58.125,15.5625,65.65625
318,-1.0009766,-0.0009765625,0.051757812,92.84375,33.15625,57.65625
319,-1.1992188,-0.25097656,0.07910156,43.28125,14.40625,54.21875
320,-1.1416016,-0.1875,-0.19824219,92.71875,-68.78125,53.75
321,-0.8964844,0.22460938,-0.06640625,121.15625,-22.40625,-13.65625
322,-0.9169922,0.5185547,-0.32617188,41.6875,-51.9375,-14.375
323,-1.0263672,0.20898438,-0.34179688,25.03125,-19.59375,4.4375
324,-0.87402344,0.31347656,-0.22851562,-64.03125,-7.1875,-12.125
325,-0.8857422,0.3486328,-0.109375,-31.6875,-6.03125,-10.09375
326,-0.93359375,0.42871094,0.009765625,-11.03125,9.09375,-11.6875
327,-0.9375,0.3876953,0.13867188,-8.28125,39.375,-19.0
328,-0.9238281,0.20703125,-0.021484375,-105.71875,-8.1875,-20.1875
329,-1.1103516,-0.09277344,0.06542969,-114.5625,13.0,-31.28125
330,-0.9472656,-0.3642578,0.23828125,-147.5625,-25.3125,-92.4375
331,-1.2822266,-0.22460938,0.6533203,-187.75,-59.25,-184.65625
332,-0.74902344,0.328125,0.24609375,-110.40625,-73.125,-95.5
333,-0.83984375,0.19726562,0.1171875,-63.71875,-51.625,-69.125
334,-1.4414062,-0.25,0.49902344,-40.21875,0.1875,-21.09375
335,-1.2353516,-0.3310547,0.3701172,25.28125,26.125,15.65625
336,-0.87597656,-0.033203125,0.3359375,51.8125,41.1875,55.8125
337,-1.1855469,-0.060546875,0.23925781,68.78125,68.375,80.0
338,-1.0019531,-0.103515625,0.11425781,59.28125,71.96875,95.1875
339,-0.9609375,0.11425781,0.171875,80.28125,45.0,95.90625
340,-0.76660156,0.28320312,0.14257812,116.75,19.28125,67.0
341,-0.93359375,0.037109375,0.032226562,95.40625,16.78125,58.1875
342,-1.0791016,0.049804688,0.053710938,110.96875,8.4375,57.46875
343,-1.0478516,0.14941406,-0.053710938,130.875,-37.84375,64.1875
344,-1.0410156,0.040039062,-0.10644531,82.34375,-17.40625,20.125
345,-0.7558594,0.3857422,-0.25878906,-7.6875,-30.34375,-27.75
346,-0.94921875,0.31933594,-0.4013672,-11.71875,-24.65625,-7.21875
347,-1.0341797,0.07714844,-0.36523438,-24.96875,4.03125,3.75
348,-0.9433594,0.12695312,-0.21582031,-51.6875,-1.59375,2.09375
349,-0.91015625,0.18164062,-0.034179688,-74.875,12.03125,-1.4375
350,-0.9951172,0.18164062,-0.015625,-33.875,13.625,-7.84375
351,-0.94140625,0.28320312,-0.0107421875,-23.96875,14.65625,-22.375
352,-0.9394531,0.21386719,0.28710938,-96.625,43.28125,-34.625
353,-0.890625,-0.107421875,0.19335938,-118.65625,-23.75,-74.75
354,-1.0673828,-0.3623047,0.328125,-171.875,-53.28125,-168.65625
355,-0.87402344,0.0546875,0.17578125,-98.625,-78.3125,-136.8125
356,-0.87890625,0.23242188,0.3173828,-58.28125,-32.96875,-87.5
357,-1.3945312,0.029296875,0.38085938,-38.6875,-0.4375,-9.96875
358,-1.6728516,-0.328125,0.34765625,-5.96875,18.625,26.9375
359,-1.0703125,-0.16308594,0.25,59.5,27.46875,68.875
360,-0.8623047,0.061523438,0.21289062,82.59375,30.53125,99.21875
361,-0.8486328,0.18457031,0.17578125,77.15625,59.625,107.5625
362,-0.93066406,0.10546875,0.057617188,71.34375,36.4375,92.1875
363,-0.82714844,0.16015625,0.017578125,75.6875,29.71875,59.96875
364,-0.9316406,0.10839844,0.052734375,73.90625,18.8125,41.09375
365,-1.1875,0.19335938,0.23925781,102.25,24.21875,36.28125
366,-1.2275391,0.0078125,0.00390625,131.28125,8.78125,62.65625
367,-0.7324219,0.13085938,-0.19433594,80.15625,-53.78125,36.90625
368,-0.98046875,-0.0048828125,-0.4453125,48.53125,-40.84375,-7.78125
369,-0.85058594,0.6152344,0.07421875,-4.5625,3.84375,-22.125
370,-0.9941406,0.09082031,-0.45898438,9.71875,-23.3125,9.0625
371,-0.9482422,0.10058594,-0.28515625,-40.53125,-11.71875,-5.03125
372,-0.90722656,0.23925781,-0.038085938,-67.5,10.375,-13.46875
373,-0.8847656,0.37597656,-0.016601562,-9.40625,10.6875,-20.1875
374,-0.94140625,0.3466797,-0.043945312,-47.0,3.3125,-21.625
375,-0.96191406,0.32910156,-0.0078125,-79.59375,25.34375,-24.3125
376,-0.98339844,0.029296875,0.20703125,-99.0,-14.21875,-48.84375
377,-1.0078125,-0.5283203,0.34765625,-129.28125,-20.8125,-96.59375
378,-1.1005859,0.17382812,0.41992188,-143.5625,-50.84375,-151.65625
379,-0.7285156,0.5234375,0.0234375,-36.90625,-49.8125,-99.03125
380,-1.0263672,0.09375,0.13183594,-76.46875,-4.40625,-53.9375
381,-1.3623047,-0.44140625,0.3720703,-45.84375,37.40625,-16.28125
382,-1.3818359,-0.49609375,0.4609375,1.53125,35.28125,47.40625
383,-1.0839844,-0.10839844,0.28125,70.5,14.59375,81.21875
384,-0.94433594,0.14941406,0.20117188,109.625,24.28125,95.625
385,-0.8544922,0.2685547,0.034179688,84.0,28.9375,95.125
386,-0.8935547,0.19726562,0.14160156,93.375,24.84375,88.90625
387,-0.89453125,0.0048828125,0.12988281,97.53125,3.0625,59.0625
388,-1.0351562,-0.23925781,0.0,112.125,-8.90625,55.09375
389,-1.1630859,0.013671875,-0.08496094,123.59375,-10.3125,41.15625
390,-0.9472656,0.22460938,0.024414062,149.90625,-22.34375,24.3125
391,-0.859375,0.22949219,-0.3125,74.21875,-42.28125,4.84375
392,-0.9267578,0.32910156,-0.26757812,53.71875,-19.65625,-2.21875
393,-1.0009766,0.2939453,-0.26464844,-10.375,2.4375,-0.65625
394,-0.8613281,0.40625,-0.30859375,-24.34375,-0.5625,-0.09375
395,-0.90722656,0.30371094,-0.11328125,-64.8125,-0.78125,-2.71875
396,-0.9482422,0.3232422,-0.051757812,-51.875,9.40625,-11.5625
397,-0.9941406,0.24609375,-0.05078125,-50.53125,11.84375,-16.5
398,-0.9326172,0.26660156,-0.022460938,-103.03125,13.375,-26.28125
399,-0.9970703,0.045898438,0.0859375,-148.375,32.21875,-30.4375
400,-0.9814453,-0.10449219,0.44726562,-157.46875,-6.59375,-66.5
401,-1.1953125,-0.6455078,-0.033203125,-197.6875,-16.84375,-166.28125
402,-0.68652344,0.30859375,0.4033203,-134.28125,-116.5,-125.8125
403,-0.65722656,0.28710938,0.20410156,-11.53125,-78.90625,-78.34375
404,-1.3310547,-0.034179688,0.2705078,-29.15625,-27.53125,-29.8125
405,-1.5195312,-0.41503906,0.41992188,-16.28125,32.28125,-5.71875
406,-1.1679688,-0.14941406,0.3017578,13.5,55.3125,52.15625
407,-1.0400391,-0.15722656,0.22265625,77.34375,64.625,94.5
408,-1.0449219,0.17382812,0.14746094,79.21875,74.28125,115.03125
409,-0.73535156,0.16601562,0.10449219,114.4375,29.25,79.875
410,-0.67871094,0.140625,0.13183594,113.84375,22.34375,75.96875
411,-1.0771484,0.009765625,0.13476562,96.0,26.1875,46.46875
412,-1.3300781,-0.11230469,0.18945312,73.125,21.0625,48.1875
413,-1.0117188,-0.059570312,-0.20410156,97.46875,-68.40625,62.21875
414,-0.84765625,0.052734375,-0.24316406,204.40625,-33.1875,32.6875
415,-0.7783203,0.6484375,-0.10253906,51.15625,-39.3125,-39.65625
416,-1.0097656,0.3486328,-0.5253906,-11.84375,-21.1875,-26.9375
417,-0.9746094,0.1640625,-0.33496094,-48.59375,-21.59375,-7.0
418,-0.93066406,0.2998047,-0.24023438,-62.96875,4.6875,-2.65625
419,-0.91503906,0.29785156,-0.0048828125,-16.71875,18.96875,-5.15625
420,-0.9628906,0.34179688,0.3623047,5.5625,50.90625,-16.875
421,-0.9453125,0.1484375,-0.016601562,-107.1875,-25.4375,-25.46875
422,-1.0185547,-0.033203125,0.0078125,-156.71875,11.90625,-31.40625
423,-1.0107422,-0.3544922,0.18457031,-180.96875,-20.25,-95.1875
424,-1.0214844,0.021484375,0.49902344,-161.75,-84.21875,-164.65625
425,-0.7216797,0.19238281,0.0703125,-105.40625,-68.0,-95.3125
426,-0.9169922,0.0009765625,0.13476562,-62.4375,-23.1875,-74.5
427,-1.6357422,-0.46875,0.46972656,-44.71875,30.6875,-20.59375
428,-1.1904297,-0.24023438,0.2998047,4.46875,26.90625,27.875
429,-1.0947266,-0.23144531,0.33691406,56.71875,52.75,64.46875
430,-0.9941406,0.01953125,0.25,79.21875,56.8125,87.75
431,-1.0039062,0.16015625,0.18945312,98.6875,40.28125,102.1875
432,-0.8330078,0.17675781,0.19335938,80.625,33.28125,77.65625
433,-0.7626953,0.18066406,0.10644531,71.96875,23.875,80.53125
434,-1.1123047,-0.15136719,0.04296875,97.84375,14.34375,63.25
435,-1.0302734,-0.22851562,0.036132812,136.28125,-13.4375,65.09375
436,-1.7373047,-0.041992188,-0.06542969,-115.53125,-151.84375,-27.1875
437,-1.1494141,0.16699219,-0.17578125,192.21875,-94.25,-1.625
438,-0.6875,0.59375,-0.41210938,27.96875,-42.53125,-34.6875
439,-1.0458984,0.20019531,-0.28125,-14.53125,2.03125,-10.78125
440,-0.94433594,0.28808594,-0.2626953,-20.75,-7.1875,-7.0
441,-0.9033203,0.34277344,-0.15234375,-69.625,4.75,0.625
442,-0.9238281,0.31445312,0.045898438,-45.40625,18.1875,2.21875
443,-0.9707031,0.24609375,0.03125,-52.1875,14.71875,-5.46875
444,-1.0068359,0.060546875,-0.01953125,-73.40625,9.84375,-13.59375
445,-1.0273438,-0.08203125,0.08496094,-109.6875,19.59375,-30.5625
446,-0.9980469,-0.3330078,0.17480469,-151.78125,-9.46875,-70.28125
447,-0.90625,-0.16015625,0.3798828,-186.875,-49.5,-167.9375
448,-0.74902344,0.43359375,0.2734375,-76.71875,-103.625,-124.375
449,-0.7685547,0.18457031,-0.171875,-40.8125,-43.875,-88.28125
450,-1.4472656,-0.4404297,0.375,-99.53125,26.0625,-28.84375
451,-1.5878906,-0.4658203,0.28222656,-12.3125,52.84375,13.65625
452,-1.2089844,-0.21875,0.3857422,72.9375,58.59375,73.34375
453,-1.0546875,0.2529297,0.3828125,111.875,48.21875,107.09375
454,-0.9892578,0.3017578,0.25390625,87.46875,27.65625,107.03125
455,-0.64746094,0.20214844,0.22363281,92.21875,0.96875,81.4375
456,-0.70410156,0.16210938,0.07324219,55.0,6.40625,81.34375
457,-1.1191406,-0.27441406,-0.08984375,84.21875,20.15625,60.15625
458,-0.1953125,0.5341797,-1.2666016,16.53125,-37.09375,43.96875
459,-1.0351562,0.24804688,-0.043945312,205.375,-9.9375,43.78125
460,-0.8564453,0.390625,0.36914062,136.28125,-34.78125,12.96875
461,-0.9892578,0.29101562,-0.45507812,31.125,-40.03125,-21.75
462,-0.9111328,0.14453125,-0.3408203,-50.65625,2.4375,-4.125
463,-0.9892578,0.13085938,-0.32910156,-3.0,-10.0,4.90625
464,-0.96875,0.21972656,-0.1171875,-40.71875,6.03125,3.5625
465,-0.98339844,0.24707031,0.12695312,-17.75,24.15625,-4.375
466,-0.921875,0.23828125,0.022460938,-37.21875,-4.21875,-16.4375
467,-0.97558594,0.3642578,0.080078125,-44.3125,11.53125,-27.875
468,-0.9267578,0.27441406,0.064453125,-91.96875,15.5,-36.09375
469,-0.93652344,-0.05078125,-0.10058594,-124.8125,-23.625,-44.21875
470,-0.98828125,-0.29003906,0.3544922,-182.375,-9.53125,-98.78125
471,-1.0556641,0.21679688,0.40039062,-161.90625,-78.25,-139.0
472,-0.71191406,0.18945312,0.022460938,-86.78125,-60.125,-105.3125
473,-1.046875,-0.14160156,0.21191406,-69.40625,-32.96875,-65.65625
474,-1.5185547,-0.6611328,0.28808594,-47.46875,26.78125,-15.59375
475,-1.1904297,-0.6425781,0.23046875,21.96875,37.34375,55.375
476,-1.0820312,-0.03125,0.21679688,98.15625,53.03125,86.53125
477,-0.93359375,0.037109375,0.11035156,123.46875,61.71875,102.5
478,-1.0234375,0.17773438,0.20703125,130.0,41.9375,106.0625
479,-0.75878906,0.3076172,0.12402344,119.28125,16.65625,75.40625
480,-0.8925781,0.12011719,0.20214844,135.875,-0.4375,65.59375
481,-0.8564453,-0.11816406,-0.020507812,64.6875,-22.8125,44.15625
482,-1.0039062,0.06347656,-0.1796875,127.4375,-23.9375,51.25
483,-0.9580078,0.13769531,-0.01171875,166.6875,-1.71875,32.4375
484,-0.99316406,0.19140625,-0.1953125,159.71875,-56.03125,14.96875
485,-0.93847656,0.24121094,-0.42578125,53.90625,-35.53125,3.15625
486,-0.99609375,0.24609375,-0.28125,4.71875,-0.84375,-4.84375
487,-0.8261719,0.5126953,-0.21484375,-47.78125,-1.28125,-7.78125
488,-0.9121094,0.40820312,-0.103515625,-83.0,1.90625,-3.8125
489,-0.98535156,0.1796875,-0.125,-80.1875,-2.625,-8.21875
490,-0.9658203,0.1953125,-0.06933594,-69.5,13.90625,-19.6875
491,-0.9199219,0.21386719,0.13085938,-111.625,44.375,-23.84375
492,-1.0625,0.032226562,0.17382812,-170.28125,23.0625,-40.3125
493,-0.9169922,-0.1328125,0.16894531,-193.40625,-12.09375,-73.625
494,-1.0976562,-0.43847656,0.390625,-178.65625,-51.5625,-149.875
495,-0.8564453,-0.053710938,0.14355469,-117.5,-83.75,-146.75
496,-0.6191406,0.0029296875,0.2265625,-77.03125,-27.34375,-91.59375
497,-1.3046875,-0.2578125,0.35742188,-47.0,8.71875,-21.46875
498,-1.6748047,-0.42773438,0.28808594,40.53125,29.0625,20.65625
499,-1.1884766,-0.009765625,0.34570312,91.5625,38.5625,59.125
500,-1.0019531,0.064453125,0.2763672,143.5625,31.375,94.21875
501,-0.90234375,0.53027344,0.07128906,97.34375,62.875,125.21875
502,-0.8623047,0.19433594,0.12988281,142.71875,36.5,87.3125
503,-0.77734375,0.15136719,0.20800781,90.65625,2.5625,80.34375
504,-0.8613281,0.21484375,0.052734375,87.21875,8.25,47.8125
505,-0.3779297,0.46289062,-0.030273438,-192.875,-74.21875,-9.75
506,-1.0605469,-0.8955078,-0.06933594,123.90625,-38.34375,100.96875
507,-1.1513672,0.25683594,-0.2548828,254.28125,-39.125,26.09375
508,-0.83203125,0.2919922,-0.43066406,30.40625,-53.34375,1.125
509,-0.9580078,0.38476562,-0.24121094,-65.4375,-12.3125,-2.59375
510,-0.8964844,0.45996094,-0.19140625,-61.8125,-2.5,-5.53125
511,-0.8886719,0.32226562,-0.18164062,-31.0625,-13.3125,-5.71875
512,-0.90625,0.28808594,-0.13671875,-1.53125,-3.78125,-13.09375
513,-0.9482422,0.40527344,-0.018554688,-50.34375,40.59375,-26.75
514,-0.98535156,0.29785156,0.23242188,-98.1875,19.28125,-33.46875
515,-0.95996094,0.01953125,0.02734375,-133.1875,-12.375,-46.40625
516,-0.97558594,-0.29101562,0.15136719,-167.84375,-34.53125,-92.125
517,-0.99902344,-0.15820312,0.3623047,-158.125,-44.25,-153.71875
518,-0.7871094,-0.06933594,0.18847656,-92.28125,-73.3125,-121.5
519,-0.89453125,-0.029296875,0.31054688,-46.5,-51.5,-79.1875
520,-1.3017578,0.034179688,0.46679688,-28.125,0.90625,-23.53125
521,-1.3447266,-0.2685547,0.5605469,9.34375,21.5625,6.25
522,-1.1220703,-0.2548828,0.43359375,35.53125,43.21875,41.59375
523,-1.0517578,0.1015625,0.16503906,49.6875,44.125,66.6875
524,-0.7841797,0.3095703,0.3046875,68.25,59.5,81.21875
525,-1.1132812,-0.03515625,0.041015625,65.4375,39.4375,90.25
526,-0.90625,0.025390625,0.09277344,71.59375,46.875,78.53125
527,-0.83691406,0.06542969,0.009765625,103.40625,24.65625,72.28125
528,-0.9638672,-0.0546875,0.038085938,89.78125,10.125,57.03125
529,-1.0410156,0.20507812,-0.083984375,84.1875,-27.53125,49.40625
530,-0.8779297,0.38085938,0.041992188,114.5,-5.78125,49.21875
531,-1.0644531,-0.12695312,-0.33691406,62.4375,-51.4375,7.0
532,-0.94921875,0.3955078,-0.16992188,18.5,-20.875,-17.0
533,-0.9814453,0.14550781,-0.38085938,-0.46875,-11.84375,3.25
534,-0.9873047,0.11035156,-0.25878906,-14.03125,-4.5625,1.3125
535,-0.93847656,0.2529297,-0.09863281,-79.40625,5.125,-9.4375
536,-0.9609375,0.23730469,-0.06347656,-62.875,9.09375,-17.96875
537,-0.93847656,0.31933594,0.07910156,-30.09375,36.9375,-28.09375
538,-0.9189453,0.30664062,0.10839844,-83.78125,25.875,-38.1875
539,-0.89453125,0.02734375,0.13964844,-149.28125,-2.8125,-53.3125
540,-1.0546875,-0.5439453,0.19726562,-190.375,1.46875,-117.59375
541,-0.9746094,-0.099609375,0.27148438,-146.53125,-42.96875,-139.0625
542,-0.77441406,-0.017578125,0.107421875,-38.4375,-69.625,-87.625
543,-1.3496094,0.19726562,0.2265625,-31.0625,2.75,-50.5
544,-1.2167969,-0.12597656,0.12988281,-15.5625,51.9375,8.03125
545,-1.3769531,-0.26464844,0.35351562,71.78125,63.46875,59.21875
546,-1.2158203,0.1328125,0.375,139.78125,13.90625,85.59375
547,-0.87402344,0.53027344,0.25097656,109.9375,12.34375,93.40625
548,-0.76171875,0.36523438,0.33203125,54.4375,8.78125,72.96875
549,-0.8330078,0.30566406,-0.0390625,19.34375,16.78125,68.4375
550,-1.0839844,-0.22167969,-0.20019531,54.375,-1.21875,49.59375
551,-1.0224609,-0.3798828,-0.087890625,68.84375,8.71875,59.0
552,-1.0820312,-0.0546875,-0.111328125,122.6875,-12.8125,46.0
553,-0.8066406,0.4716797,0.10839844,103.09375,-4.21875,25.40625
554,-1.0986328,0.07910156,-0.4296875,-34.96875,-68.78125,3.3125
555,-0.88964844,0.3857422,-0.08300781,18.3125,5.1875,-22.3125
556,-0.9980469,0.16113281,-0.38183594,-18.375,-37.65625,-1.875
557,-0.83984375,0.3046875,-0.25390625,-41.875,-11.53125,-12.0
558,-0.8769531,0.4296875,-0.078125,-32.71875,4.9375,-13.875
559,-0.97753906,0.33984375,0.026367188,-48.9375,34.78125,-22.25
560,-1.0087891,0.17089844,0.21777344,-50.65625,46.9375,-31.34375
561,-0.9033203,0.016601562,0.028320312,-125.1875,0.0,-42.28125
562,-0.9394531,-0.50878906,0.20800781,-163.375,0.375,-93.15625
563,-0.9951172,0.020507812,0.3798828,-159.46875,-39.0,-180.09375
564,-0.859375,0.06542969,0.29785156,-28.4375,-122.0625,-116.0625
565,-0.96484375,0.28222656,-0.053710938,-21.53125,-43.5625,-87.5
566,-1.5224609,-0.32128906,0.36816406,-66.21875,28.9375,-15.90625
567,-1.3798828,-0.24707031,0.27539062,14.15625,41.5625,32.0
568,-1.2109375,-0.15136719,0.30566406,48.65625,64.46875,74.0625
569,-0.984375,-0.0048828125,0.39453125,61.78125,55.125,96.46875
570,-0.87402344,0.08203125,0.31054688,86.96875,16.3125,95.5
571,-0.75683594,0.18066406,0.06640625,75.09375,14.03125,72.34375
572,-0.81933594,0.08691406,0.0087890625,49.25,22.34375,75.71875
573,-1.0791016,-0.11035156,-0.14453125,70.9375,12.34375,54.71875
574,-1.2421875,-0.07714844,0.14257812,99.3125,50.59375,40.1875
575,-1.0771484,0.14257812,-0.033203125,132.875,-39.5625,50.5
576,-0.69921875,0.4658203,-0.21484375,107.65625,-41.4375,44.65625
577,-0.890625,0.44726562,-0.0234375,-7.0,-20.8125,-33.28125
578,-0.93359375,0.15820312,-0.47851562,-36.625,-32.40625,-16.375
579,-1.1152344,0.0009765625,-0.47753906,-23.875,-8.90625,3.875
580,-0.89746094,0.2548828,-0.23339844,-64.875,1.65625,3.5
581,-0.8535156,0.18359375,-0.109375,-17.5625,5.125,2.21875
582,-1.0400391,0.17578125,0.083984375,-12.5625,32.46875,-7.125
583,-0.9560547,0.2626953,0.02734375,-55.125,16.34375,-27.8125
584,-1.0390625,0.041992188,0.06933594,-97.40625,19.15625,-32.3125
585,-1.0205078,-0.34277344,0.11230469,-112.78125,-11.96875,-51.84375
586,-1.0566406,-0.48046875,0.27148438,-163.09375,-17.6875,-134.84375
587,-1.0009766,-0.0048828125,0.36621094,-105.90625,-86.4375,-165.625
588,-0.75,0.3984375,0.1875,-20.6875,-61.875,-84.125
589,-1.2919922,0.25195312,0.21777344,-28.3125,-27.03125,-51.1875
590,-1.46875,-0.3701172,0.31933594,-17.5,18.8125,-0.46875
591,-1.1523438,-0.24804688,0.34570312,45.46875,33.5,56.0
592,-1.0107422,-0.053710938,0.22851562,73.5,45.34375,78.75
593,-0.9794922,0.12988281,0.33007812,79.71875,55.84375,92.8125
594,-0.98339844,0.21972656,0.1328125,83.3125,31.875,86.625
595,-0.7392578,0.22558594,0.13476562,81.0,25.8125,72.78125
596,-0.88183594,0.06542969,-0.11425781,96.8125,6.78125,63.25
597,-1.0605469,-0.12695312,0.052734375,34.375,33.5,51.96875
598,-1.0800781,-0.26464844,0.18261719,23.5625,26.96875,48.625
599,-0.8857422,0.2919922,-0.2734375,132.875,-59.03125,57.28125
600,-0.90234375,0.20214844,-0.33496094,126.59375,-40.40625,54.15625
601,-0.984375,0.26171875,0.040039062,-65.53125,4.09375,-25.78125
602,-0.9013672,0.3095703,-0.2890625,33.5,-44.5625,-11.875
603,-0.97753906,0.1640625,-0.42773438,4.09375,-24.46875,1.9375
604,-0.9746094,0.1953125,-0.19921875,-75.625,-6.84375,-6.5625
605,-0.99316406,0.20410156,-0.13378906,-87.40625,-9.21875,-12.84375
606,-0.8408203,0.2265625,-0.0048828125,0.5,0.6875,-20.0
607,-0.8378906,0.45214844,0.13085938,28.9375,35.84375,-33.34375
608,-0.9814453,0.35058594,0.1171875,-103.625,-4.75,-44.71875
609,-0.9316406,-0.21582031,0.14160156,-143.3125,-16.125,-65.15625
610,-1.0664062,-0.125,0.375,-235.90625,-52.5625,-155.3125
611,-0.8955078,0.14160156,0.20898438,-102.84375,-99.125,-104.09375
612,-0.78222656,0.032226562,0.12792969,-56.03125,-10.5,-56.25
613,-1.5390625,-0.34570312,0.2265625,-38.375,20.875,-1.0
614,-1.3212891,-0.20800781,0.2841797,13.1875,30.28125,26.59375
615,-0.9873047,-0.033203125,0.2734375,73.125,43.75,68.75
616,-0.8261719,0.056640625,0.28710938,121.40625,45.59375,88.78125
617,-0.9785156,0.17773438,0.20214844,66.46875,62.25,95.25
618,-1.0126953,0.27539062,0.21679688,59.03125,37.90625,62.84375
619,-0.85253906,0.28222656,0.07128906,62.625,8.71875,47.875
620,-0.9375,0.25683594,0.10449219,73.96875,3.34375,21.03125
621,-1.1484375,0.013671875,0.15039062,62.25,-25.875,27.96875
622,-1.0576172,-0.0390625,-0.15820312,51.65625,-12.875,49.21875
623,-0.9785156,0.0859375,-0.23535156,72.8125,-31.5,53.625
624,-0.93066406,0.08886719,0.12402344,218.3125,-4.625,27.4375
625,-0.9580078,0.34765625,-0.35253906,69.21875,-34.90625,-6.0
626,-0.9892578,0.38085938,-0.16992188,-26.78125,-7.375,-14.875
627,-0.89941406,0.30273438,-0.27929688,-47.40625,-8.71875,-5.84375
628,-0.9160156,0.34570312,-0.17480469,-85.5,1.09375,-7.40625
629,-0.9394531,0.27441406,-0.10839844,-68.71875,2.25,-17.3125
630,-0.99316406,0.2578125,0.11328125,-26.59375,46.28125,-13.75
631,-1.0195312,0.09472656,0.2548828,-111.8125,1.28125,-37.03125
632,-0.9453125,0.034179688,-0.041992188,-60.34375,-33.1875,-37.09375
633,-0.8925781,-0.2763672,-0.24902344,-139.8125,-19.46875,-72.34375
634,-1.0214844,0.07421875,0.6464844,-194.875,-58.90625,-182.71875
635,-0.84765625,0.6035156,-0.044921875,-91.90625,-33.375,-87.0
636,-1.1523438,-0.00390625,-0.036132812,-90.8125,19.34375,-56.84375
637,-1.5458984,-0.49609375,0.21777344,-79.34375,39.3125,-3.625
638,-1.1738281,-0.32617188,0.4140625,33.75,19.21875,51.53125
639,-1.0166016,-0.028320312,0.36328125,70.3125,20.3125,82.125
640,-0.9033203,0.021484375,0.14746094,67.09375,12.21875,96.40625
641,-0.82128906,-0.001953125,0.078125,60.625,30.28125,91.46875
642,-0.9316406,0.029296875,-0.083984375,69.71875,25.40625,93.34375
643,-1.0517578,-0.0859375,0.02734375,100.40625,15.125,72.34375
644,-1.0302734,0.0087890625,0.045898438,130.875,-22.21875,47.34375
645,-1.0498047,0.05859375,-0.0078125,139.96875,-40.53125,42.3125
646,-1.0166016,0.27148438,-0.13378906,160.59375,-8.96875,18.78125
647,-0.8964844,0.36621094,-0.10058594,74.71875,-38.625,-14.6875
648,-0.85253906,0.3095703,-0.4091797,9.90625,-35.65625,-19.5
649,-1.0576172,0.0029296875,-0.3486328,-28.3125,5.5,-13.9375
650,-0.9589844,0.12011719,-0.40429688,-9.15625,-1.15625,6.3125
651,-0.9277344,0.18261719,-0.18457031,-24.09375,2.1875,7.65625
652,-0.9560547,0.27539062,-0.08105469,-41.0,4.8125,-2.84375
653,-0.96972656,0.15625,-0.059570312,-41.375,11.40625,-9.625
654,-1.0185547,0.06542969,-0.049804688,-51.8125,6.71875,-22.96875
655,-0.9560547,0.09082031,0.07324219,-77.21875,13.125,-34.40625
656,-0.97558594,-0.033203125,0.13671875,-95.875,0.3125,-42.6875
657,-0.92871094,-0.21777344,0.1015625,-122.84375,-20.03125,-69.90625
658,-0.96972656,0.15429688,0.4638672,-147.15625,-47.375,-132.34375
659,-0.9042969,0.26367188,0.05859375,-46.5,-76.0,-101.71875
660,-0.8183594,0.13671875,-0.19921875,-37.90625,-16.1875,-83.34375
661,-1.3710938,-0.328125,0.10449219,-129.09375,85.6875,-33.21875
662,-1.5820312,-0.63183594,0.2919922,14.03125,60.25,26.46875
663,-1.3066406,-0.19042969,0.33984375,117.0625,21.71875,78.09375
664,-1.0292969,0.16894531,0.4296875,139.46875,5.375,97.6875
665,-0.83203125,0.28125,0.27929688,85.5625,5.5625,108.25
666,-0.67089844,0.2998047,0.14355469,76.40625,5.8125,100.0
667,-0.9746094,-0.14355469,-0.23730469,71.71875,19.46875,94.03125
668,-1.0048828,-0.4296875,-0.05078125,125.625,16.65625,67.84375
669,-1.1357422,0.0029296875,0.036132812,57.75,-13.0625,28.46875
670,-0.9121094,0.44140625,-0.140625,159.71875,-49.375,32.1875
671,-0.8359375,0.3203125,-0.3154297,40.03125,-34.0,2.84375
672,-0.84277344,0.296875,-0.16992188,33.40625,-12.15625,-20.0
673,-0.9003906,0.4267578,-0.44628906,-16.78125,-16.1875,-9.5625
674,-1.0166016,0.234375,-0.38476562,-13.4375,4.9375,2.53125
675,-0.89941406,0.22070312,-0.22363281,-49.625,-11.34375,1.0
676,-0.90625,0.25,-0.115234375,-67.75,0.5625,-4.375
677,-0.93066406,0.25,-0.078125,-43.75,5.8125,-10.34375
678,-0.9892578,0.21289062,-0.0009765625,-44.90625,23.0625,-16.75
679,-0.9638672,0.22265625,-0.013671875,-54.375,8.0625,-18.78125
680,-0.9042969,0.27734375,-0.03125,-118.34375,15.03125,-21.9375
681,-0.88964844,-0.12597656,0.0625,-184.625,-3.53125,-48.125
682,-1.2177734,-0.48828125,0.38671875,-188.71875,-9.21875,-174.15625
683,-0.9013672,-0.04296875,-0.12988281,-85.6875,-48.875,-125.9375
684,-0.64453125,0.34179688,0.20214844,-8.96875,-33.75,-65.15625
685,-1.4101562,-0.21972656,0.19628906,-29.0,21.84375,-17.1875
686,-1.5292969,-0.28320312,0.2841797,20.40625,36.875,12.0
687,-1.1660156,-0.043945312,0.29492188,87.28125,22.15625,52.875
688,-0.96191406,0.109375,0.33691406,115.25,8.1875,73.75
689,-1.0175781,0.328125,0.1875,86.0,12.40625,91.65625
690,-0.9472656,0.34472656,0.15917969,86.25,6.96875,82.78125
691,-0.8701172,0.103515625,-0.045898438,105.84375,-5.1875,76.03125
692,-1.0107422,-0.20410156,-0.203125,134.15625,-12.03125,73.15625
693,-0.82910156,0.038085938,0.053710938,149.1875,51.46875,49.40625
694,-0.9902344,0.2861328,-0.06347656,181.09375,-18.0625,39.65625
695,-0.8857422,0.3486328,-0.16601562,140.15625,-21.375,12.96875
696,-0.9355469,0.17382812,-0.14746094,15.03125,-22.21875,-30.1875
697,-0.8828125,0.4326172,-0.41796875,-16.0,-28.3125,-31.28125
698,-1.0351562,0.12988281,-0.37695312,-2.25,-1.53125,-2.65625
699,-0.98046875,0.13574219,-0.24511719,-36.5,-5.5625,5.65625
700,-0.91308594,0.21875,-0.07421875,-75.1875,-2.75,-0.9375
701,-0.8964844,0.2783203,-0.025390625,-45.40625,6.40625,-12.53125
702,-0.9511719,0.3388672,0.04296875,-48.40625,12.15625,-23.90625
703,-0.97265625,0.21484375,0.045898438,-107.28125,3.40625,-31.9375
704,-1.0214844,-0.057617188,0.034179688,-171.5,14.03125,-43.84375
705,-0.9550781,-0.3623047,0.13183594,-165.59375,-17.40625,-78.71875
706,-0.984375,-0.0068359375,0.42089844,-159.0,-54.375,-133.75
707,-0.8857422,0.18457031,0.14355469,-55.65625,-89.15625,-91.46875
708,-0.91308594,-0.061523438,0.1796875,-67.0,-43.8125,-80.53125
709,-1.1474609,-0.23242188,0.328125,-64.8125,10.0625,-42.8125
710,-1.3017578,-0.5185547,0.41015625,-25.3125,42.59375,-5.71875
711,-1.1660156,-0.38867188,0.29589844,50.84375,48.40625,51.3125
712,-1.1152344,0.0068359375,0.3359375,93.9375,48.59375,78.40625
713,-1.0732422,0.140625,0.2109375,101.03125,55.71875,88.46875
714,-0.95996094,0.15136719,0.24511719,118.90625,24.21875,97.875
715,-0.86621094,0.31152344,0.17480469,94.125,20.25,88.53125
716,-0.85546875,0.32226562,0.087890625,101.125,-6.78125,68.8125
717,-0.95996094,-0.16894531,0.038085938,88.875,1.28125,80.21875
718,-0.96484375,-0.26171875,-0.2548828,170.84375,-15.1875,78.15625
719,-1.1230469,0.095703125,0.16308594,120.375,20.09375,16.75
720,-1.0126953,0.15820312,-0.26464844,29.4375,-40.21875,-19.5
721,-0.89941406,0.4140625,-0.3720703,-17.5625,-31.4375,-18.84375
722,-0.94433594,0.3564453,-0.3203125,-40.15625,6.21875,-4.96875
723,-0.89160156,0.37109375,-0.26367188,-37.78125,5.375,2.34375
724,-0.95410156,0.20410156,-0.09863281,-27.28125,-2.75,5.53125
725,-0.9902344,0.17578125,-0.091796875,-20.4375,3.46875,-6.125
726,-0.97265625,0.20605469,-0.020507812,-37.78125,17.46875,-21.6875
727,-0.9003906,0.32617188,0.029296875,-58.90625,7.21875,-30.65625
728,-0.9199219,0.20117188,0.24511719,-91.0,15.1875,-38.4375
729,-0.8125,-0.16601562,0.123046875,-167.0625,-4.625,-59.125
730,-1.0351562,-0.41796875,0.4873047,-248.21875,-2.125,-170.0
731,-1.1083984,-0.034179688,-0.15136719,-97.96875,-63.34375,-129.96875
732,-0.7919922,0.36816406,0.22460938,-34.25,2.6875,-73.6875
733,-1.4453125,-0.21386719,0.20117188,-0.4375,6.15625,3.9375
734,-1.5390625,-0.08300781,0.28320312,29.53125,35.71875,38.96875
735,-1.0742188,-0.015625,0.33496094,59.03125,40.03125,63.625
736,-0.9199219,0.04296875,0.2705078,57.375,42.53125,102.75
737,-0.9746094,0.19921875,0.115234375,69.09375,6.71875,90.84375
738,-0.7675781,0.3251953,0.15039062,88.4375,5.3125,67.40625
739,-0.9423828,0.0,0.0126953125,99.0625,-12.9375,43.0625
740,-1.0185547,-0.2734375,-0.06640625,82.09375,-7.375,36.84375
741,-1.0595703,-0.047851562,-0.14160156,124.40625,-8.90625,30.90625
742,-1.0371094,0.1796875,-0.12109375,83.75,8.0625,42.875
743,-0.7519531,0.4091797,-0.005859375,65.1875,8.125,38.375
744,-1.0283203,0.40625,-0.09375,45.84375,-15.125,6.25
745,-0.88183594,0.27246094,-0.28515625,27.96875,-31.3125,-6.125
746,-0.9267578,0.15234375,-0.43359375,-25.09375,-13.25,-9.25
747,-1.0058594,0.24804688,-0.36523438,-51.375,-15.0625,-6.0
748,-0.94140625,0.14257812,-0.20898438,-38.625,-10.125,-8.6875
