sample_no,accel_x,accel_y,accel_z,gyro_x,gyro_y,gyro_z
0,-1.3164062,0.25683594,0.06933594,-115.46875,-42.1875,-38.875
1,-1.3164062,0.25683594,0.06933594,-115.46875,-42.1875,-38.875
2,-1.0214844,0.37402344,0.016601562,-139.34375,-34.5,-6.0
3,-1.0214844,0.37402344,0.016601562,-139.34375,-34.5,-6.0
4,-0.8544922,0.12597656,0.034179688,-178.28125,-25.53125,40.9375
5,-0.8544922,0.12597656,0.034179688,-178.28125,-25.53125,40.9375
6,-0.9091797,0.09667969,0.0048828125,-179.8125,-29.5,44.84375
7,-0.9091797,0.09667969,0.0048828125,-179.8125,-29.5,44.84375
8,-1.1757812,-0.07519531,-0.021484375,-182.0,-6.3125,41.3125
9,-1.1757812,-0.07519531,-0.021484375,-182.0,-6.3125,41.3125
10,-1.0146484,-0.4794922,0.1015625,-122.375,-16.6875,24.90625
11,-1.0146484,-0.4794922,0.1015625,-122.375,-16.6875,24.90625
12,-0.8613281,-0.2685547,0.1640625,-108.9375,-20.09375,12.5625
13,-0.8613281,-0.2685547,0.1640625,-108.9375,-20.09375,12.5625
14,-0.9121094,0.020507812,0.25878906,-75.4375,-17.78125,4.5625
15,-0.9121094,0.020507812,0.25878906,-75.4375,-17.78125,4.5625
16,-0.9580078,0.046875,0.27441406,-93.5,-13.5625,-10.9375
17,-0.9580078,0.046875,0.27441406,-93.5,-13.5625,-10.9375
18,-0.89746094,-0.06738281,0.15917969,-88.5625,-31.5625,-14.90625
19,-0.89746094,-0.06738281,0.15917969,-88.5625,-31.5625,-14.90625
20,-0.8466797,0.0234375,0.36914062,-47.25,-20.21875,-1.90625
21,-0.8466797,0.0234375,0.36914062,-47.25,-20.21875,-1.90625
22,-0.90722656,-0.19433594,0.29492188,-25.25,-17.71875,12.75
23,-0.90722656,-0.19433594,0.29492188,-25.25,-17.71875,12.75
24,-0.9716797,-0.03515625,0.4453125,-11.46875,-12.15625,12.25
25,-0.9716797,-0.03515625,0.4453125,-11.46875,-12.15625,12.25
26,-0.9482422,0.18554688,0.5878906,17.8125,-29.125,14.28125
27,-0.9482422,0.18554688,0.5878906,17.8125,-29.125,14.28125
28,-0.8105469,0.12597656,0.4482422,16.96875,-55.625,22.09375
29,-0.8105469,0.12597656,0.4482422,16.96875,-55.625,22.09375
30,-0.7578125,0.059570312,0.4501953,7.5625,-42.6875,27.625
31,-0.7578125,0.059570312,0.4501953,7.5625,-42.6875,27.625
32,-0.7626953,0.1875,0.45996094,28.15625,-19.40625,8.0
33,-0.7626953,0.1875,0.45996094,28.15625,-19.40625,8.0
34,-0.79296875,0.22851562,0.4921875,39.3125,-11.3125,-25.09375
35,-0.79296875,0.22851562,0.4921875,39.3125,-11.3125,-25.09375
36,-1.0439453,0.21484375,1.0146484,51.59375,-60.1875,-52.3125
37,-1.0439453,0.21484375,1.0146484,51.59375,-60.1875,-52.3125
38,-1.4931641,-0.69921875,-0.7949219,-17.875,-167.5625,-137.53125
39,-1.4931641,-0.69921875,-0.7949219,-17.875,-167.5625,-137.53125
40,0.23828125,0.01953125,-0.12109375,-25.625,-52.1875,-65.9375
41,0.23828125,0.01953125,-0.12109375,-25.625,-52.1875,-65.9375
42,-1.6103516,-0.3330078,0.022460938,-87.9375,27.8125,-42.4375
43,-1.6103516,-0.3330078,0.022460938,-87.9375,27.8125,-42.4375
44,-1.2021484,-0.16503906,0.20019531,-46.0625,13.28125,-49.5
45,-1.2021484,-0.16503906,0.20019531,-46.0625,13.28125,-49.5
46,-0.8964844,0.036132812,0.4501953,-51.03125,-20.34375,-35.84375
47,-0.8964844,0.036132812,0.4501953,-51.03125,-20.34375,-35.84375
48,-0.73046875,-0.24121094,0.296875,-47.84375,-53.125,-19.3125
49,-0.73046875,-0.24121094,0.296875,-47.84375,-53.125,-19.3125
50,-0.56347656,-0.4248047,0.35253906,-50.46875,-65.9375,-60.125
51,-0.56347656,-0.4248047,0.35253906,-50.46875,-65.9375,-60.125
52,-0.1796875,-0.6699219,0.36035156,-30.8125,-38.40625,-63.65625
53,-0.1796875,-0.6699219,0.36035156,-30.8125,-38.40625,-63.65625
54,-0.90722656,-0.15625,0.3359375,-13.90625,-91.0,-117.0
55,-0.90722656,-0.15625,0.3359375,-13.90625,-91.0,-117.0
56,-0.041992188,-0.48828125,0.20800781,7.5625,-141.4375,-88.09375
57,-0.041992188,-0.48828125,0.20800781,7.5625,-141.4375,-88.09375
58,-0.6298828,-0.7392578,0.61328125,6.28125,-72.34375,-121.15625
59,-0.6298828,-0.7392578,0.61328125,6.28125,-72.34375,-121.15625
60,-0.78125,-0.28027344,0.6152344,6.34375,-101.40625,-116.21875
61,-0.78125,-0.28027344,0.6152344,6.34375,-101.40625,-116.21875
62,-0.5625,-0.5361328,0.5732422,-37.71875,-96.09375,-131.125
63,-0.5625,-0.5361328,0.5732422,-37.71875,-96.09375,-131.125
64,-0.12597656,-0.62890625,0.6503906,10.75,-128.5,-117.875
65,-0.12597656,-0.62890625,0.6503906,10.75,-128.5,-117.875
66,-0.22167969,-0.68066406,0.8066406,-3.53125,-124.84375,-108.96875
67,-0.22167969,-0.68066406,0.8066406,-3.53125,-124.84375,-108.96875
68,0.14746094,-0.8623047,0.80078125,14.09375,-105.125,-125.625
69,0.14746094,-0.8623047,0.80078125,14.09375,-105.125,-125.625
70,0.24511719,-0.7548828,1.0195312,27.53125,-79.59375,-122.25
71,0.24511719,-0.7548828,1.0195312,27.53125,-79.59375,-122.25
72,0.08886719,-0.86816406,1.4248047,12.53125,-53.34375,-109.75
73,0.08886719,-0.86816406,1.4248047,12.53125,-53.34375,-109.75
74,0.32714844,-1.0644531,1.3330078,-14.40625,-36.875,-79.59375
75,0.32714844,-1.0644531,1.3330078,-14.40625,-36.875,-79.59375
76,0.60839844,-0.90527344,0.9189453,-14.03125,-11.125,-41.875
77,0.60839844,-0.90527344,0.9189453,-14.03125,-11.125,-41.875
78,0.5097656,-0.6591797,0.7167969,-7.9375,6.9375,-12.78125
79,0.5097656,-0.6591797,0.7167969,-7.9375,6.9375,-12.78125
80,0.31054688,-0.56640625,0.609375,-14.59375,10.0625,-2.625
81,0.31054688,-0.56640625,0.609375,-14.59375,10.0625,-2.625
82,0.13574219,-0.46875,0.53808594,13.96875,-15.625,-9.09375
83,0.13574219,-0.46875,0.53808594,13.96875,-15.625,-9.09375
84,0.17382812,-0.73339844,0.7949219,11.46875,-32.53125,-35.71875
85,0.17382812,-0.73339844,0.7949219,11.46875,-32.53125,-35.71875
86,0.1953125,-0.56152344,0.81347656,6.0625,-59.03125,-39.625
87,0.1953125,-0.56152344,0.81347656,6.0625,-59.03125,-39.625
88,0.2685547,-0.54296875,0.8544922,9.65625,-88.4375,-30.96875
89,0.2685547,-0.54296875,0.8544922,9.65625,-88.4375,-30.96875
90,0.38867188,-0.43066406,0.78027344,-7.1875,-103.28125,-13.75
91,0.38867188,-0.43066406,0.78027344,-7.1875,-103.28125,-13.75
92,0.6123047,-0.66796875,0.73046875,6.34375,-106.9375,20.0625
93,0.6123047,-0.66796875,0.73046875,6.34375,-106.9375,20.0625
94,0.6220703,-0.5703125,0.5605469,-11.40625,-101.5625,30.1875
95,0.6220703,-0.5703125,0.5605469,-11.40625,-101.5625,30.1875
96,0.6689453,-0.6816406,0.55566406,-6.84375,-63.3125,14.75
97,0.6689453,-0.6816406,0.55566406,-6.84375,-63.3125,14.75
98,0.6953125,-0.64746094,0.38964844,5.25,-46.28125,0.40625
99,0.6953125,-0.64746094,0.38964844,5.25,-46.28125,0.40625
100,0.62402344,-0.5576172,0.4404297,-3.21875,-12.9375,-21.5625
101,0.62402344,-0.5576172,0.4404297,-3.21875,-12.9375,-21.5625
102,0.6230469,-0.62597656,0.48632812,5.25,4.1875,-26.1875
103,0.6230469,-0.62597656,0.48632812,5.25,4.1875,-26.1875
104,0.625,-0.59277344,0.5488281,12.8125,9.4375,-18.375
105,0.625,-0.59277344,0.5488281,12.8125,9.4375,-18.375
106,0.57128906,-0.58496094,0.59277344,15.6875,14.21875,-13.5
107,0.57128906,-0.58496094,0.59277344,15.6875,14.21875,-13.5
108,0.625,-0.5097656,0.65234375,16.5,7.5,-9.53125
109,0.625,-0.5097656,0.65234375,16.5,7.5,-9.53125
110,0.6064453,-0.42382812,0.6591797,2.9375,5.84375,-1.0625
111,0.6064453,-0.42382812,0.6591797,2.9375,5.84375,-1.0625
112,0.6386719,-0.56933594,0.6503906,0.8125,1.40625,8.40625
113,0.6386719,-0.56933594,0.6503906,0.8125,1.40625,8.40625
114,0.57128906,-0.55371094,0.5800781,2.9375,-0.375,9.5
115,0.57128906,-0.55371094,0.5800781,2.9375,-0.375,9.5
116,0.5810547,-0.55078125,0.59375,0.5625,0.96875,6.9375
117,0.5810547,-0.55078125,0.59375,0.5625,0.96875,6.9375
118,0.5810547,-0.5576172,0.5576172,3.53125,2.75,2.96875
119,0.5810547,-0.5576172,0.5576172,3.53125,2.75,2.96875
120,0.5800781,-0.54003906,0.5908203,7.09375,8.21875,0.84375
121,0.5800781,-0.54003906,0.5908203,7.09375,8.21875,0.84375
122,0.5810547,-0.5566406,0.61035156,9.21875,16.09375,0.28125
123,0.5810547,-0.5566406,0.61035156,9.21875,16.09375,0.28125
124,0.5800781,-0.5263672,0.61621094,7.34375,19.6875,2.96875
125,0.5800781,-0.5263672,0.61621094,7.34375,19.6875,2.96875
126,0.5546875,-0.57421875,0.65625,13.1875,20.625,4.75
127,0.5546875,-0.57421875,0.65625,13.1875,20.625,4.75
128,0.53515625,-0.51953125,0.66308594,9.40625,17.8125,6.46875
129,0.53515625,-0.51953125,0.66308594,9.40625,17.8125,6.46875
130,0.53515625,-0.54003906,0.6738281,8.0,15.0625,4.875
131,0.53515625,-0.54003906,0.6738281,8.0,15.0625,4.875
132,0.51953125,-0.52734375,0.6533203,-0.71875,11.78125,4.03125
133,0.51953125,-0.52734375,0.6533203,-0.71875,11.78125,4.03125
134,0.51953125,-0.578125,0.69628906,1.15625,9.4375,0.125
135,0.51953125,-0.578125,0.69628906,1.15625,9.4375,0.125
136,0.48828125,-0.5253906,0.6982422,-4.09375,7.5625,-1.21875
137,0.48828125,-0.5253906,0.6982422,-4.09375,7.5625,-1.21875
138,0.5449219,-0.5683594,0.68359375,-11.96875,10.5625,-4.46875
139,0.5449219,-0.5683594,0.68359375,-11.96875,10.5625,-4.46875
140,0.5761719,-0.5371094,0.60546875,-2.75,15.96875,-0.4375
141,0.5761719,-0.5371094,0.60546875,-2.75,15.96875,-0.4375
142,0.5517578,-0.58203125,0.6621094,7.34375,16.71875,6.21875
143,0.5517578,-0.58203125,0.6621094,7.34375,16.71875,6.21875
144,0.53515625,-0.5595703,0.6611328,0.6875,23.59375,9.375
145,0.53515625,-0.5595703,0.6611328,0.6875,23.59375,9.375
146,0.46484375,-0.5595703,0.68359375,15.9375,23.84375,15.75
147,0.46484375,-0.5595703,0.68359375,15.9375,23.84375,15.75
148,0.46289062,-0.55078125,0.76660156,11.96875,26.1875,10.71875
149,0.46289062,-0.55078125,0.76660156,11.96875,26.1875,10.71875
150,0.4267578,-0.5078125,0.75878906,3.90625,22.09375,10.3125
151,0.4267578,-0.5078125,0.75878906,3.90625,22.09375,10.3125
152,0.34375,-0.5966797,0.80078125,13.4375,22.75,9.5
153,0.34375,-0.5966797,0.80078125,13.4375,22.75,9.5
154,0.47265625,-0.49804688,0.734375,-0.84375,9.21875,4.5625
155,0.47265625,-0.49804688,0.734375,-0.84375,9.21875,4.5625
156,0.359375,-0.5576172,0.8173828,-0.53125,15.75,11.40625
157,0.359375,-0.5576172,0.8173828,-0.53125,15.75,11.40625
158,0.42773438,-0.53027344,0.6796875,0.4375,7.5,14.21875
159,0.42773438,-0.53027344,0.6796875,0.4375,7.5,14.21875
160,0.42382812,-0.5576172,0.77246094,5.6875,15.96875,11.46875
161,0.42382812,-0.5576172,0.77246094,5.6875,15.96875,11.46875
162,0.43652344,-0.5986328,0.7060547,10.5625,30.8125,15.5625
163,0.43652344,-0.5986328,0.7060547,10.5625,30.8125,15.5625
164,0.46679688,-0.5761719,0.68066406,23.5625,39.125,26.90625
165,0.46679688,-0.5761719,0.68066406,23.5625,39.125,26.90625
166,0.3779297,-0.51953125,0.69628906,26.8125,55.53125,31.71875
167,0.3779297,-0.51953125,0.69628906,26.8125,55.53125,31.71875
168,0.3876953,-0.6230469,0.73046875,20.09375,86.46875,40.28125
169,0.3876953,-0.6230469,0.73046875,20.09375,86.46875,40.28125
170,0.30078125,-0.56152344,1.2128906,20.6875,110.40625,41.125
171,0.30078125,-0.56152344,1.2128906,20.6875,110.40625,41.125
172,0.43066406,-0.28320312,0.8564453,-44.4375,2.0,15.5
173,0.43066406,-0.28320312,0.8564453,-44.4375,2.0,15.5
174,0.2734375,-0.8544922,0.8300781,-25.09375,77.4375,35.6875
175,0.2734375,-0.8544922,0.8300781,-25.09375,77.4375,35.6875
176,0.17089844,-0.64746094,0.99121094,-42.53125,82.1875,19.15625
177,0.17089844,-0.64746094,0.99121094,-42.53125,82.1875,19.15625
178,0.12109375,-0.7470703,0.8769531,-35.21875,102.15625,18.0
179,0.12109375,-0.7470703,0.8769531,-35.21875,102.15625,18.0
180,-0.125,-0.6826172,0.96484375,-24.96875,129.8125,22.21875
181,-0.125,-0.6826172,0.96484375,-24.96875,129.8125,22.21875
182,-0.14453125,-0.65234375,0.8339844,-4.5625,115.40625,43.8125
183,-0.14453125,-0.65234375,0.8339844,-4.5625,115.40625,43.8125
184,-0.24511719,-0.45703125,0.76953125,-7.5,101.96875,72.6875
185,-0.24511719,-0.45703125,0.76953125,-7.5,101.96875,72.6875
186,-0.33691406,-0.60058594,0.6845703,-29.09375,88.1875,86.65625
187,-0.33691406,-0.60058594,0.6845703,-29.09375,88.1875,86.65625
188,-0.40234375,-0.6738281,0.6503906,-31.5625,87.375,90.75
189,-0.40234375,-0.6738281,0.6503906,-31.5625,87.375,90.75
190,-0.4453125,-0.5966797,0.61816406,-20.4375,77.25,95.5
191,-0.4453125,-0.5966797,0.61816406,-20.4375,77.25,95.5
192,-0.53125,-0.48242188,0.65722656,-24.84375,68.90625,103.75
193,-0.53125,-0.48242188,0.65722656,-24.84375,68.90625,103.75
194,-0.77734375,-0.46679688,0.6953125,-24.40625,76.90625,113.875
195,-0.77734375,-0.46679688,0.6953125,-24.40625,76.90625,113.875
196,-1.0351562,-0.43359375,0.44921875,-32.65625,107.96875,112.28125
197,-1.0351562,-0.43359375,0.44921875,-32.65625,107.96875,112.28125
198,-1.2792969,-0.4970703,0.43652344,-49.625,147.5625,79.21875
199,-1.2792969,-0.4970703,0.43652344,-49.625,147.5625,79.21875
200,-1.0771484,-0.52441406,0.40820312,-20.5625,109.0625,62.375
201,-1.0771484,-0.52441406,0.40820312,-20.5625,109.0625,62.375
202,-0.44921875,-0.15234375,0.3251953,5.75,72.6875,53.53125
203,-0.44921875,-0.15234375,0.3251953,5.75,72.6875,53.53125
204,0.10546875,-0.14355469,-0.103515625,4.53125,73.21875,62.71875
205,0.10546875,-0.14355469,-0.103515625,4.53125,73.21875,62.71875
206,-0.08203125,0.07128906,-0.09472656,14.46875,69.15625,77.5625
207,-0.08203125,0.07128906,-0.09472656,14.46875,69.15625,77.5625
208,-0.35351562,0.08300781,0.107421875,-13.4375,57.96875,102.46875
209,-0.35351562,0.08300781,0.107421875,-13.4375,57.96875,102.46875
210,-0.48632812,0.055664062,0.032226562,-36.3125,18.59375,74.28125
211,-0.48632812,0.055664062,0.032226562,-36.3125,18.59375,74.28125
212,-1.7373047,-0.12988281,0.37890625,-120.90625,18.3125,9.28125
213,-1.7373047,-0.12988281,0.37890625,-120.90625,18.3125,9.28125
214,-2.0,-0.69921875,-0.47851562,-198.125,-11.25,-12.71875
215,-2.0,-0.69921875,-0.47851562,-198.125,-11.25,-12.71875
216,-0.8339844,-0.03515625,-0.022460938,75.8125,16.40625,30.03125
217,-0.8339844,-0.03515625,-0.022460938,75.8125,16.40625,30.03125
218,-1.2246094,-0.055664062,-0.125,13.125,69.375,80.1875
219,-1.2246094,-0.055664062,-0.125,13.125,69.375,80.1875
220,-0.9550781,0.19824219,0.047851562,98.46875,26.1875,55.15625
221,-0.9550781,0.19824219,0.047851562,98.46875,26.1875,55.15625
222,-0.59375,0.29296875,0.24121094,-1.21875,25.5,54.75
223,-0.59375,0.29296875,0.24121094,-1.21875,25.5,54.75
224,-0.8984375,-0.18066406,-0.171875,-53.53125,11.34375,40.09375
225,-0.8984375,-0.18066406,-0.171875,-53.53125,11.34375,40.09375
226,-1.0839844,-0.29492188,-0.3828125,-54.4375,-15.34375,8.46875
227,-1.0839844,-0.29492188,-0.3828125,-54.4375,-15.34375,8.46875
228,-1.0751953,-0.20898438,-0.02734375,42.59375,0.34375,3.78125
229,-1.0751953,-0.20898438,-0.02734375,42.59375,0.34375,3.78125
230,-1.1005859,0.041992188,0.029296875,59.46875,-0.4375,9.34375
231,-1.1005859,0.041992188,0.029296875,59.46875,-0.4375,9.34375
232,-1.1357422,0.021484375,-0.022460938,51.9375,-2.75,15.3125
233,-1.1357422,0.021484375,-0.022460938,51.9375,-2.75,15.3125
234,-1.0927734,-0.0546875,0.0009765625,46.15625,-2.15625,9.5625
235,-1.0927734,-0.0546875,0.0009765625,46.15625,-2.15625,9.5625
236,-0.99902344,-0.22460938,-0.19335938,74.09375,-9.90625,1.6875
237,-0.99902344,-0.22460938,-0.19335938,74.09375,-9.90625,1.6875
238,-1.046875,-0.17382812,-0.09667969,131.96875,-11.25,2.3125
239,-1.046875,-0.17382812,-0.09667969,131.96875,-11.25,2.3125
240,-0.96484375,0.11230469,-0.13183594,122.875,-9.40625,13.65625
241,-0.96484375,0.11230469,-0.13183594,122.875,-9.40625,13.65625
242,-1.0537109,0.016601562,-0.123046875,114.5625,-6.71875,29.65625
243,-1.0537109,0.016601562,-0.123046875,114.5625,-6.71875,29.65625
244,-0.9716797,0.0107421875,-0.09082031,93.4375,-0.8125,38.125
245,-0.9716797,0.0107421875,-0.09082031,93.4375,-0.8125,38.125
246,-0.9394531,-0.06542969,-0.13574219,90.09375,-5.9375,40.09375
247,-0.9394531,-0.06542969,-0.13574219,90.09375,-5.9375,40.09375
248,-0.96777344,-0.044921875,-0.1328125,86.84375,-8.75,32.40625
249,-0.96777344,-0.044921875,-0.1328125,86.84375,-8.75,32.40625
250,-0.8330078,0.016601562,-0.10449219,78.125,-15.9375,27.21875
251,-0.8330078,0.016601562,-0.10449219,78.125,-15.9375,27.21875
252,-1.0712891,-0.12792969,-0.046875,69.59375,-26.5,24.96875
253,-1.0712891,-0.12792969,-0.046875,69.59375,-26.5,24.96875
254,-1.1816406,-0.4189453,-0.016601562,57.75,-56.84375,7.625
255,-1.1816406,-0.4189453,-0.016601562,57.75,-56.84375,7.625
256,-1.1591797,-0.41796875,0.18359375,87.15625,-97.125,-33.625
257,-1.1591797,-0.41796875,0.18359375,87.15625,-97.125,-33.625
258,-1.03125,-0.22949219,-0.064453125,98.9375,-133.0625,-91.375
259,-1.03125,-0.22949219,-0.064453125,98.9375,-133.0625,-91.375
260,-1.6455078,0.28027344,0.024414062,63.0,-79.0,-119.75
261,-1.6455078,0.28027344,0.024414062,63.0,-79.0,-119.75
262,-1.3427734,-0.18554688,-0.0625,45.84375,-20.34375,-115.5
263,-1.3427734,-0.18554688,-0.0625,45.84375,-20.34375,-115.5
264,-1.5439453,-0.29101562,-0.046875,208.75,-7.59375,-128.71875
265,-1.5439453,-0.29101562,-0.046875,208.75,-7.59375,-128.71875
266,-1.1035156,0.2919922,-0.19140625,234.6875,-41.28125,-141.84375
267,-1.1035156,0.2919922,-0.19140625,234.6875,-41.28125,-141.84375
268,-0.69140625,0.33398438,-0.11425781,192.75,-25.90625,-133.90625
269,-0.69140625,0.33398438,-0.11425781,192.75,-25.90625,-133.90625
270,-0.32128906,0.17089844,-0.0625,190.875,-23.6875,-95.53125
271,-0.32128906,0.17089844,-0.0625,190.875,-23.6875,-95.53125
272,-0.4951172,0.28027344,-0.07324219,135.4375,12.375,-60.375
273,-0.4951172,0.28027344,-0.07324219,135.4375,12.375,-60.375
274,-0.53125,0.21191406,0.15527344,112.1875,59.25,-33.34375
275,-0.53125,0.21191406,0.15527344,112.1875,59.25,-33.34375
276,-1.0771484,-0.16503906,0.8564453,137.9375,74.5,0.78125
277,-1.0771484,-0.16503906,0.8564453,137.9375,74.5,0.78125
278,-1.859375,-1.1054688,0.9589844,96.5625,-54.8125,-67.75
279,-1.859375,-1.1054688,0.9589844,96.5625,-54.8125,-67.75
280,-0.54589844,-0.44335938,0.31347656,65.96875,-60.625,-97.90625
281,-0.54589844,-0.44335938,0.31347656,65.96875,-60.625,-97.90625
282,-1.6835938,0.03125,0.69921875,-78.0,10.96875,-57.5
283,-1.6835938,0.03125,0.69921875,-78.0,10.96875,-57.5
284,-1.0068359,0.6738281,0.11425781,-49.1875,3.90625,-31.5625
285,-1.0068359,0.6738281,0.11425781,-49.1875,3.90625,-31.5625
286,-0.69628906,0.47558594,-0.796875,-72.375,76.96875,76.03125
287,-0.69628906,0.47558594,-0.796875,-72.375,76.96875,76.03125
288,-1.7626953,-0.20117188,0.12695312,-52.0625,82.03125,61.34375
289,-1.7626953,-0.20117188,0.12695312,-52.0625,82.03125,61.34375
290,-1.0683594,0.5175781,-0.09863281,-64.5625,59.5625,47.09375
291,-1.0683594,0.5175781,-0.09863281,-64.5625,59.5625,47.09375
292,-1.0400391,0.16601562,-0.1796875,-115.71875,42.90625,48.8125
293,-1.0400391,0.16601562,-0.1796875,-115.71875,42.90625,48.8125
294,-1.2226562,-0.055664062,-0.21875,-123.21875,21.59375,34.15625
295,-1.2226562,-0.055664062,-0.21875,-123.21875,21.59375,34.15625
296,-1.0527344,-0.107421875,-0.2578125,-137.8125,-14.71875,29.03125
297,-1.0527344,-0.107421875,-0.2578125,-137.8125,-14.71875,29.03125
298,-0.94921875,-0.10839844,-0.2783203,-169.6875,-23.6875,18.59375
299,-0.94921875,-0.10839844,-0.2783203,-169.6875,-23.6875,18.59375
300,-0.9814453,-0.16210938,-0.13671875,-194.28125,-36.5,1.5625
301,-0.9814453,-0.16210938,-0.13671875,-194.28125,-36.5,1.5625
302,-0.6689453,0.24414062,-0.28515625,-256.71875,-55.6875,-37.65625
303,-0.6689453,0.24414062,-0.28515625,-256.71875,-55.6875,-37.65625
304,-0.50878906,0.20507812,-0.33984375,-310.1875,-105.125,-25.09375
305,-0.50878906,0.20507812,-0.33984375,-310.1875,-105.125,-25.09375
306,-1.5625,0.083984375,-0.4296875,-302.1875,-133.6875,-1.96875
307,-1.5625,0.083984375,-0.4296875,-302.1875,-133.6875,-1.96875
308,-2.0,-0.19238281,-0.09472656,-307.84375,-97.96875,28.75
309,-2.0,-0.19238281,-0.09472656,-307.84375,-97.96875,28.75
310,-1.3886719,-0.45117188,0.04296875,-220.21875,-67.40625,68.46875
311,-1.3886719,-0.45117188,0.04296875,-220.21875,-67.40625,68.46875
312,-0.8339844,-0.2763672,-0.27148438,-241.28125,-54.15625,89.03125
313,-0.8339844,-0.2763672,-0.27148438,-241.28125,-54.15625,89.03125
314,-0.92285156,-0.54589844,-0.15039062,-239.8125,-27.71875,62.78125
315,-0.92285156,-0.54589844,-0.15039062,-239.8125,-27.71875,62.78125
316,-0.6689453,-0.60546875,0.032226562,-188.34375,-29.375,55.15625
317,-0.6689453,-0.60546875,0.032226562,-188.34375,-29.375,55.15625
318,-0.6015625,-0.5048828,0.22949219,-170.84375,-69.71875,45.03125
319,-0.6015625,-0.5048828,0.22949219,-170.84375,-69.71875,45.03125
320,-0.50390625,-0.3466797,0.15332031,-175.15625,-98.40625,29.65625
321,-0.50390625,-0.3466797,0.15332031,-175.15625,-98.40625,29.65625
322,-0.6640625,-0.14355469,0.11328125,-111.625,-118.0625,17.5625
323,-0.6640625,-0.14355469,0.11328125,-111.625,-118.0625,17.5625
324,-0.70996094,-0.31347656,0.25097656,-56.4375,-103.28125,25.3125
325,-0.70996094,-0.31347656,0.25097656,-56.4375,-103.28125,25.3125
326,-0.703125,-0.49804688,0.5234375,-22.40625,-97.71875,17.625
327,-0.703125,-0.49804688,0.5234375,-22.40625,-97.71875,17.625
328,-0.765625,-0.3330078,0.99316406,-12.25,-66.59375,26.65625
329,-0.765625,-0.3330078,0.99316406,-12.25,-66.59375,26.65625
330,-0.6191406,-0.453125,1.1601562,-14.46875,-21.25,56.5
331,-0.6191406,-0.453125,1.1601562,-14.46875,-21.25,56.5
332,-0.7841797,0.14160156,0.81933594,-58.65625,23.25,60.28125
333,-0.7841797,0.14160156,0.81933594,-58.65625,23.25,60.28125
334,-1.7724609,-0.43066406,1.0234375,-33.875,2.5,8.78125
335,-1.7724609,-0.43066406,1.0234375,-33.875,2.5,8.78125
336,0.203125,0.1875,-0.13574219,-173.46875,65.40625,26.65625
337,0.203125,0.1875,-0.13574219,-173.46875,65.40625,26.65625
338,-1.3271484,-0.29003906,0.21386719,-211.96875,85.0625,58.28125
339,-1.3271484,-0.29003906,0.21386719,-211.96875,85.0625,58.28125
340,-1.1181641,-0.27246094,-0.26171875,-167.15625,93.3125,91.1875
341,-1.1181641,-0.27246094,-0.26171875,-167.15625,93.3125,91.1875
342,-1.2617188,-0.4140625,-0.16113281,-138.78125,97.875,59.625
343,-1.2617188,-0.4140625,-0.16113281,-138.78125,97.875,59.625
344,-0.9951172,-0.095703125,0.0146484375,-96.375,85.25,89.53125
345,-0.9951172,-0.095703125,0.0146484375,-96.375,85.25,89.53125
346,-1.1123047,-0.18554688,-0.14257812,-50.09375,95.6875,77.375
347,-1.1123047,-0.18554688,-0.14257812,-50.09375,95.6875,77.375
348,-0.8925781,0.119140625,0.0068359375,-64.8125,74.8125,66.6875
349,-0.8925781,0.119140625,0.0068359375,-64.8125,74.8125,66.6875
350,-0.9355469,-0.11621094,-0.09082031,-75.25,66.9375,73.40625
351,-0.9355469,-0.11621094,-0.09082031,-75.25,66.9375,73.40625
352,-0.8955078,-0.16992188,-0.05859375,-115.09375,51.8125,48.03125
353,-0.8955078,-0.16992188,-0.05859375,-115.09375,51.8125,48.03125
354,-0.8828125,-0.24414062,0.08203125,-90.9375,33.875,47.34375
355,-0.8828125,-0.24414062,0.08203125,-90.9375,33.875,47.34375
356,-1.1025391,-0.4140625,-0.12597656,-21.65625,13.84375,43.03125
357,-1.1025391,-0.4140625,-0.12597656,-21.65625,13.84375,43.03125
358,-1.1914062,-0.11621094,0.18945312,-26.25,11.34375,13.46875
359,-1.1914062,-0.11621094,0.18945312,-26.25,11.34375,13.46875
360,-1.2470703,-0.09863281,0.18945312,-29.40625,-27.1875,-5.125
361,-1.2470703,-0.09863281,0.18945312,-29.40625,-27.1875,-5.125
362,-1.3115234,-0.38378906,-0.14648438,-77.15625,-94.25,-53.65625
363,-1.3115234,-0.38378906,-0.14648438,-77.15625,-94.25,-53.65625
364,-1.1660156,0.29003906,0.16796875,-67.8125,-101.8125,-113.46875
365,-1.1660156,0.29003906,0.16796875,-67.8125,-101.8125,-113.46875
366,-1.8652344,0.47851562,0.0068359375,-41.6875,-75.875,-115.5
367,-1.8652344,0.47851562,0.0068359375,-41.6875,-75.875,-115.5
368,-1.2519531,0.06542969,0.12011719,-19.21875,-54.09375,-119.5625
369,-1.2519531,0.06542969,0.12011719,-19.21875,-54.09375,-119.5625
370,-1.3955078,-0.61035156,0.18164062,9.65625,-15.28125,-147.65625
371,-1.3955078,-0.61035156,0.18164062,9.65625,-15.28125,-147.65625
372,-1.2197266,0.14746094,-0.31152344,159.5,-51.78125,-132.21875
373,-1.2197266,0.14746094,-0.31152344,159.5,-51.78125,-132.21875
374,-0.7529297,0.13574219,-0.15820312,198.375,-57.375,-133.5625
375,-0.7529297,0.13574219,-0.15820312,198.375,-57.375,-133.5625
376,-0.24121094,0.3828125,-0.11328125,145.4375,-21.375,-93.34375
377,-0.24121094,0.3828125,-0.11328125,145.4375,-21.375,-93.34375
378,-0.5048828,0.111328125,0.04296875,147.03125,25.75,-31.25
379,-0.5048828,0.111328125,0.04296875,147.03125,25.75,-31.25
380,-0.29003906,-0.055664062,0.2421875,188.59375,51.5625,-21.6875
381,-0.29003906,-0.055664062,0.2421875,188.59375,51.5625,-21.6875
382,-0.74316406,-0.68847656,0.78027344,154.96875,26.53125,44.53125
383,-0.74316406,-0.68847656,0.78027344,154.96875,26.53125,44.53125
384,-1.6757812,-0.24707031,0.27441406,251.53125,-82.65625,-31.75
385,-1.6757812,-0.24707031,0.27441406,251.53125,-82.65625,-31.75
386,-1.0195312,1.0976562,0.026367188,-86.125,-38.21875,-95.03125
387,-1.0195312,1.0976562,0.026367188,-86.125,-38.21875,-95.03125
388,-1.0166016,-1.5224609,-1.0693359,-75.625,54.96875,-69.65625
389,-1.0166016,-1.5224609,-1.0693359,-75.625,54.96875,-69.65625
390,-0.18164062,-0.35742188,0.22558594,119.03125,18.59375,-30.46875
391,-0.18164062,-0.35742188,0.22558594,119.03125,18.59375,-30.46875
392,-1.6835938,-0.29003906,-0.32421875,222.40625,96.84375,36.5
393,-1.6835938,-0.29003906,-0.32421875,222.40625,96.84375,36.5
394,-0.94433594,-0.25878906,-0.07128906,215.28125,81.15625,6.59375
395,-0.94433594,-0.25878906,-0.07128906,215.28125,81.15625,6.59375
396,-0.9560547,0.0,0.03515625,254.09375,67.125,20.25
397,-0.9560547,0.0,0.03515625,254.09375,67.125,20.25
398,-1.0449219,-0.12988281,0.028320312,223.46875,61.28125,20.75
399,-1.0449219,-0.12988281,0.028320312,223.46875,61.28125,20.75
400,-0.9902344,-0.057617188,-0.06542969,189.59375,35.5625,9.03125
401,-0.9902344,-0.057617188,-0.06542969,189.59375,35.5625,9.03125
402,-0.9277344,-0.20117188,-0.1484375,147.71875,23.0625,-1.59375
403,-0.9277344,-0.20117188,-0.1484375,147.71875,23.0625,-1.59375
404,-0.86816406,-0.064453125,-0.23144531,161.375,18.375,3.59375
405,-0.86816406,-0.064453125,-0.23144531,161.375,18.375,3.59375
406,-0.86328125,0.030273438,-0.15527344,198.6875,15.1875,18.3125
407,-0.86328125,0.030273438,-0.15527344,198.6875,15.1875,18.3125
408,-0.953125,-0.001953125,-0.14550781,196.84375,24.34375,26.1875
409,-0.953125,-0.001953125,-0.14550781,196.84375,24.34375,26.1875
410,-1.0273438,-0.2265625,-0.09472656,163.59375,24.15625,24.03125
411,-1.0273438,-0.2265625,-0.09472656,163.59375,24.15625,24.03125
412,-1.0966797,-0.2734375,-0.095703125,113.53125,4.625,7.0
413,-1.0966797,-0.2734375,-0.095703125,113.53125,4.625,7.0
414,-1.5820312,-0.2578125,-0.0078125,163.75,-58.84375,-36.15625
415,-1.5820312,-0.2578125,-0.0078125,163.75,-58.84375,-36.15625
416,-1.0292969,0.01953125,-0.052734375,180.0625,-118.0625,-46.875
417,-1.0292969,0.01953125,-0.052734375,180.0625,-118.0625,-46.875
418,-1.2802734,0.3486328,0.16015625,116.875,-133.1875,-71.90625
419,-1.2802734,0.3486328,0.16015625,116.875,-133.1875,-71.90625
420,-1.2363281,0.28125,0.123046875,28.875,-64.03125,-88.6875
421,-1.2363281,0.28125,0.123046875,28.875,-64.03125,-88.6875
422,-1.2587891,-0.11035156,-0.0029296875,77.28125,-27.1875,-94.625
423,-1.2587891,-0.11035156,-0.0029296875,77.28125,-27.1875,-94.625
424,-1.3964844,-0.06640625,0.08300781,147.96875,-38.40625,-96.1875
425,-1.3964844,-0.06640625,0.08300781,147.96875,-38.40625,-96.1875
426,-0.9580078,0.25976562,0.051757812,142.71875,-47.25,-109.8125
427,-0.9580078,0.25976562,0.051757812,142.71875,-47.25,-109.8125
428,-0.88183594,0.20800781,0.09472656,91.5625,-17.65625,-92.125
429,-0.88183594,0.20800781,0.09472656,91.5625,-17.65625,-92.125
430,-0.9091797,-0.0068359375,0.061523438,92.71875,-5.0625,-85.65625
431,-0.9091797,-0.0068359375,0.061523438,92.71875,-5.0625,-85.65625
432,-0.64941406,0.08496094,0.001953125,121.84375,-9.21875,-69.21875
433,-0.64941406,0.08496094,0.001953125,121.84375,-9.21875,-69.21875
434,-0.4765625,0.07128906,0.17089844,120.0625,16.46875,-48.15625
435,-0.4765625,0.07128906,0.17089844,120.0625,16.46875,-48.15625
436,-0.55859375,-0.13183594,0.3798828,72.46875,38.4375,-24.0
437,-0.55859375,-0.13183594,0.3798828,72.46875,38.4375,-24.0
438,-0.9033203,-0.58984375,0.41601562,49.5625,32.34375,-12.15625
439,-0.9033203,-0.58984375,0.41601562,49.5625,32.34375,-12.15625
440,-1.0410156,-0.38476562,0.56152344,107.5,-12.65625,-28.8125
441,-1.0410156,-0.38476562,0.56152344,107.5,-12.65625,-28.8125
442,-1.2109375,0.09375,0.93066406,6.0625,-49.875,-89.4375
443,-1.2109375,0.09375,0.93066406,6.0625,-49.875,-89.4375
444,-1.6416016,0.27929688,-0.13671875,-76.65625,-60.125,-134.28125
445,-1.6416016,0.27929688,-0.13671875,-76.65625,-60.125,-134.28125
446,0.005859375,0.2109375,-0.18261719,11.0,-17.84375,44.125
447,0.005859375,0.2109375,-0.18261719,11.0,-17.84375,44.125
448,-1.8261719,-0.22265625,0.14257812,-41.9375,70.84375,36.6875
449,-1.8261719,-0.22265625,0.14257812,-41.9375,70.84375,36.6875
450,-1.1132812,-0.1171875,0.055664062,-19.46875,6.15625,0.28125
451,-1.1132812,-0.1171875,0.055664062,-19.46875,6.15625,0.28125
452,-0.63671875,-0.43359375,0.052734375,-52.25,66.40625,17.75
453,-0.63671875,-0.43359375,0.052734375,-52.25,66.40625,17.75
454,-1.0292969,-0.7841797,-0.2548828,-56.21875,29.34375,-9.40625
455,-1.0292969,-0.7841797,-0.2548828,-56.21875,29.34375,-9.40625
456,-0.8984375,-0.10546875,0.017578125,8.71875,-14.1875,-43.28125
457,-0.8984375,-0.10546875,0.017578125,8.71875,-14.1875,-43.28125
458,-0.7001953,0.21972656,-0.07324219,-25.375,-24.96875,-47.375
459,-0.7001953,0.21972656,-0.07324219,-25.375,-24.96875,-47.375
460,-0.97753906,-0.42285156,-0.08203125,-35.34375,-25.09375,-58.0625
461,-0.97753906,-0.42285156,-0.08203125,-35.34375,-25.09375,-58.0625
462,-0.7421875,-0.20117188,0.048828125,6.34375,-68.375,-88.15625
463,-0.7421875,-0.20117188,0.048828125,6.34375,-68.375,-88.15625
464,-0.3544922,-0.21289062,-0.0068359375,-16.59375,-74.78125,-72.34375
465,-0.3544922,-0.21289062,-0.0068359375,-16.59375,-74.78125,-72.34375
466,-1.2636719,-0.5839844,0.30371094,-117.0625,-73.4375,-90.53125
467,-1.2636719,-0.5839844,0.30371094,-117.0625,-73.4375,-90.53125
468,-0.67871094,-0.8310547,-0.001953125,-22.28125,-119.03125,-144.3125
469,-0.67871094,-0.8310547,-0.001953125,-22.28125,-119.03125,-144.3125
470,-0.50878906,-0.3251953,0.29589844,-47.1875,-165.96875,-82.40625
471,-0.50878906,-0.3251953,0.29589844,-47.1875,-165.96875,-82.40625
472,-0.7861328,-0.71777344,0.057617188,-67.25,-136.5625,-78.75
473,-0.7861328,-0.71777344,0.057617188,-67.25,-136.5625,-78.75
474,-0.56152344,-0.7294922,0.23632812,-75.8125,-147.90625,-69.78125
475,-0.56152344,-0.7294922,0.23632812,-75.8125,-147.90625,-69.78125
476,-0.38476562,-0.99121094,0.18847656,-67.125,-143.625,-63.5625
477,-0.38476562,-0.99121094,0.18847656,-67.125,-143.625,-63.5625
478,0.059570312,-1.7919922,-0.36816406,-78.0,-79.1875,-74.59375
479,0.059570312,-1.7919922,-0.36816406,-78.0,-79.1875,-74.59375
480,-0.2861328,-1.1455078,0.50097656,-6.34375,-114.4375,-74.78125
481,-0.2861328,-1.1455078,0.50097656,-6.34375,-114.4375,-74.78125
482,-0.111328125,-0.8066406,0.8496094,86.8125,-96.375,-27.0625
483,-0.111328125,-0.8066406,0.8496094,86.8125,-96.375,-27.0625
484,-0.14941406,-0.41210938,0.69628906,83.8125,-96.8125,-18.625
485,-0.14941406,-0.41210938,0.69628906,83.8125,-96.8125,-18.625
486,0.06347656,-0.7392578,0.8691406,60.375,-84.3125,-36.75
487,0.06347656,-0.7392578,0.8691406,60.375,-84.3125,-36.75
488,0.234375,-0.9296875,0.9248047,62.1875,-85.09375,-16.0
489,0.234375,-0.9296875,0.9248047,62.1875,-85.09375,-16.0
490,0.23046875,-0.96875,1.0791016,60.78125,-110.375,19.21875
491,0.23046875,-0.96875,1.0791016,60.78125,-110.375,19.21875
492,0.33984375,-0.734375,0.83691406,29.3125,-92.34375,45.21875
493,0.33984375,-0.734375,0.83691406,29.3125,-92.34375,45.21875
494,0.19628906,-0.5732422,0.83203125,33.34375,-27.34375,46.75
495,0.19628906,-0.5732422,0.83203125,33.34375,-27.34375,46.75
496,0.18066406,-0.6875,0.74121094,-8.1875,-5.5625,26.0
497,0.18066406,-0.6875,0.74121094,-8.1875,-5.5625,26.0
498,-0.20605469,-0.6542969,0.43359375,8.5,20.5,8.90625
499,-0.20605469,-0.6542969,0.43359375,8.5,20.5,8.90625
500,-0.6464844,-1.359375,0.5732422,-72.8125,53.8125,-57.75
501,-0.6464844,-1.359375,0.5732422,-72.8125,53.8125,-57.75
502,-0.33496094,-0.44628906,0.6542969,79.03125,-58.0,-86.25
503,-0.33496094,-0.44628906,0.6542969,79.03125,-58.0,-86.25
504,-0.08496094,-0.49023438,1.0976562,52.875,-81.25,-142.84375
505,-0.08496094,-0.49023438,1.0976562,52.875,-81.25,-142.84375
506,-0.024414062,-0.69433594,1.0800781,7.4375,-129.28125,-152.46875
507,-0.024414062,-0.69433594,1.0800781,7.4375,-129.28125,-152.46875
508,0.50097656,-0.6699219,0.6230469,-31.1875,-118.71875,-163.46875
509,0.50097656,-0.6699219,0.6230469,-31.1875,-118.71875,-163.46875
510,0.7763672,-0.5410156,0.44335938,-8.78125,-112.5,-163.53125
511,0.7763672,-0.5410156,0.44335938,-8.78125,-112.5,-163.53125
512,0.9667969,-0.21679688,0.29589844,-23.8125,-63.0,-150.59375
513,0.9667969,-0.21679688,0.29589844,-23.8125,-63.0,-150.59375
514,1.3076172,-0.12109375,0.059570312,-3.40625,-20.75,-142.21875
515,1.3076172,-0.12109375,0.059570312,-3.40625,-20.75,-142.21875
516,1.4365234,-0.14160156,0.32128906,88.9375,-30.40625,-91.1875
517,1.4365234,-0.14160156,0.32128906,88.9375,-30.40625,-91.1875
518,1.0214844,-0.3046875,0.14746094,-15.125,15.625,-63.375
519,1.0214844,-0.3046875,0.14746094,-15.125,15.625,-63.375
520,0.8652344,-0.41992188,0.115234375,46.5625,48.3125,-56.78125
521,0.8652344,-0.41992188,0.115234375,46.5625,48.3125,-56.78125
522,0.55078125,-0.265625,-0.19433594,12.6875,84.65625,-50.78125
523,0.55078125,-0.265625,-0.19433594,12.6875,84.65625,-50.78125
524,0.3017578,-0.5498047,0.07910156,1.34375,151.125,-37.0625
525,0.3017578,-0.5498047,0.07910156,1.34375,151.125,-37.0625
526,0.08300781,0.111328125,0.67285156,122.0,170.65625,3.03125
527,0.08300781,0.111328125,0.67285156,122.0,170.65625,3.03125
528,-0.11621094,-0.16894531,0.7207031,161.6875,64.5,4.9375
529,-0.11621094,-0.16894531,0.7207031,161.6875,64.5,4.9375
530,0.9794922,0.5126953,1.5673828,55.375,105.46875,-17.96875
531,0.9794922,0.5126953,1.5673828,55.375,105.46875,-17.96875
532,0.91308594,0.099609375,1.4628906,-83.84375,60.84375,8.0
533,0.91308594,0.099609375,1.4628906,-83.84375,60.84375,8.0
534,0.5996094,0.20703125,0.95996094,-115.59375,75.5625,14.875
535,0.5996094,0.20703125,0.95996094,-115.59375,75.5625,14.875
536,0.2529297,-0.21484375,1.3085938,-106.4375,102.90625,0.21875
537,0.2529297,-0.21484375,1.3085938,-106.4375,102.90625,0.21875
538,-0.171875,0.15820312,1.3105469,-93.4375,62.78125,36.96875
539,-0.171875,0.15820312,1.3105469,-93.4375,62.78125,36.96875
540,-0.20996094,-0.35351562,0.46679688,-154.28125,41.0625,-2.34375
541,-0.20996094,-0.35351562,0.46679688,-154.28125,41.0625,-2.34375
542,-0.6513672,0.6767578,1.0820312,-70.375,36.5,32.09375
543,-0.6513672,0.6767578,1.0820312,-70.375,36.5,32.09375
544,-0.90722656,-0.32910156,0.78125,-106.5625,-68.375,2.84375
545,-0.90722656,-0.32910156,0.78125,-106.5625,-68.375,2.84375
546,0.27441406,-0.6044922,0.18847656,-117.84375,-62.03125,-33.40625
547,0.27441406,-0.6044922,0.18847656,-117.84375,-62.03125,-33.40625
548,0.78027344,-1.1025391,0.5029297,-58.84375,-17.03125,-36.15625
549,0.78027344,-1.1025391,0.5029297,-58.84375,-17.03125,-36.15625
550,0.49902344,-1.1298828,1.1796875,51.75,62.625,-8.5625
551,0.49902344,-1.1298828,1.1796875,51.75,62.625,-8.5625
552,0.7060547,-0.73535156,0.9785156,27.96875,43.09375,9.15625
553,0.7060547,-0.73535156,0.9785156,27.96875,43.09375,9.15625
554,0.24804688,-0.5732422,0.67871094,37.90625,32.34375,-3.6875
555,0.24804688,-0.5732422,0.67871094,37.90625,32.34375,-3.6875
556,0.23339844,-0.47460938,0.9824219,31.625,5.65625,-14.0
557,0.23339844,-0.47460938,0.9824219,31.625,5.65625,-14.0
558,0.2109375,-0.6748047,0.75097656,17.40625,-9.59375,1.03125
559,0.2109375,-0.6748047,0.75097656,17.40625,-9.59375,1.03125
560,0.13671875,-0.7363281,0.85253906,63.46875,-12.28125,26.40625
561,0.13671875,-0.7363281,0.85253906,63.46875,-12.28125,26.40625
562,0.10839844,-0.3515625,0.8935547,7.625,-8.8125,32.65625
563,0.10839844,-0.3515625,0.8935547,7.625,-8.8125,32.65625
564,0.12597656,-0.375,0.81347656,-9.40625,-6.78125,1.09375
565,0.12597656,-0.375,0.81347656,-9.40625,-6.78125,1.09375
566,0.19335938,-0.3388672,0.7548828,48.15625,-2.9375,4.9375
567,0.19335938,-0.3388672,0.7548828,48.15625,-2.9375,4.9375
568,0.29882812,-0.2734375,0.9609375,45.46875,-6.375,-1.40625
569,0.29882812,-0.2734375,0.9609375,45.46875,-6.375,-1.40625
570,0.27148438,-0.31347656,0.9609375,-3.53125,14.40625,-9.09375
571,0.27148438,-0.31347656,0.9609375,-3.53125,14.40625,-9.09375
572,0.25878906,-0.33691406,0.9658203,8.96875,11.34375,-6.46875
573,0.25878906,-0.33691406,0.9658203,8.96875,11.34375,-6.46875
574,0.123046875,-0.39941406,1.0498047,7.75,6.8125,6.03125
575,0.123046875,-0.39941406,1.0498047,7.75,6.8125,6.03125
576,0.13085938,-0.4658203,0.890625,-27.34375,1.21875,-0.6875
577,0.13085938,-0.4658203,0.890625,-27.34375,1.21875,-0.6875
578,0.21289062,-0.43945312,0.7705078,-10.1875,-10.5,-2.4375
579,0.21289062,-0.43945312,0.7705078,-10.1875,-10.5,-2.4375
580,0.24902344,-0.4638672,0.7861328,12.46875,-7.40625,0.0625
581,0.24902344,-0.4638672,0.7861328,12.46875,-7.40625,0.0625
582,0.24609375,-0.4189453,0.8779297,7.4375,-2.09375,2.75
583,0.24609375,-0.4189453,0.8779297,7.4375,-2.09375,2.75
584,0.24609375,-0.3779297,0.89746094,3.59375,3.96875,4.125
585,0.24609375,-0.3779297,0.89746094,3.59375,3.96875,4.125
586,0.18164062,-0.375,0.93847656,6.0625,3.15625,2.0625
587,0.18164062,-0.375,0.93847656,6.0625,3.15625,2.0625
588,0.1875,-0.41015625,0.9736328,4.21875,1.34375,-0.6875
589,0.1875,-0.41015625,0.9736328,4.21875,1.34375,-0.6875
590,0.20117188,-0.40429688,0.89160156,-3.65625,-0.875,-2.375
591,0.20117188,-0.40429688,0.89160156,-3.65625,-0.875,-2.375
592,0.21386719,-0.3876953,0.85839844,-6.15625,-0.6875,-2.34375
593,0.21386719,-0.3876953,0.85839844,-6.15625,-0.6875,-2.34375
594,0.23730469,-0.36035156,0.828125,-1.53125,-0.5625,-1.40625
595,0.23730469,-0.36035156,0.828125,-1.53125,-0.5625,-1.40625
596,0.22070312,-0.3798828,0.8808594,2.75,1.34375,0.96875
597,0.22070312,-0.3798828,0.8808594,2.75,1.34375,0.96875
598,0.21386719,-0.3935547,0.9042969,-0.0625,0.84375,1.34375
599,0.21386719,-0.3935547,0.9042969,-0.0625,0.84375,1.34375
600,0.20703125,-0.40039062,0.91796875,-2.5,-1.46875,-1.46875
601,0.20703125,-0.40039062,0.91796875,-2.5,-1.46875,-1.46875
602,0.2607422,-0.4033203,0.9140625,-4.5,-1.84375,-4.28125
603,0.2607422,-0.4033203,0.9140625,-4.5,-1.84375,-4.28125
604,0.17382812,-0.55078125,0.9345703,-26.0625,11.34375,-2.8125
605,0.17382812,-0.55078125,0.9345703,-26.0625,11.34375,-2.8125
606,0.19921875,-0.5292969,0.7919922,-81.40625,-5.9375,-14.28125
607,0.19921875,-0.5292969,0.7919922,-81.40625,-5.9375,-14.28125
608,0.14941406,-0.5371094,0.92871094,-51.9375,23.59375,-16.375
609,0.14941406,-0.5371094,0.92871094,-51.9375,23.59375,-16.375
610,-0.16503906,-0.29101562,1.0419922,-63.40625,-20.875,-37.78125
611,-0.16503906,-0.29101562,1.0419922,-63.40625,-20.875,-37.78125
612,0.018554688,-0.30859375,0.74902344,6.46875,-75.5,-13.8125
613,0.018554688,-0.30859375,0.74902344,6.46875,-75.5,-13.8125
614,0.36132812,-0.8222656,0.953125,-20.6875,-97.4375,-32.0625
615,0.36132812,-0.8222656,0.953125,-20.6875,-97.4375,-32.0625
616,0.46679688,-0.5722656,0.90722656,-57.78125,-111.46875,5.65625
617,0.46679688,-0.5722656,0.90722656,-57.78125,-111.46875,5.65625
618,0.7529297,-0.8066406,0.9316406,-9.8125,-135.4375,42.78125
619,0.7529297,-0.8066406,0.9316406,-9.8125,-135.4375,42.78125
620,0.578125,-0.73828125,0.91308594,34.5,-146.0,85.5
621,0.578125,-0.73828125,0.91308594,34.5,-146.0,85.5
622,0.3232422,-0.20800781,0.5410156,-8.90625,-125.6875,89.15625
623,0.3232422,-0.20800781,0.5410156,-8.90625,-125.6875,89.15625
624,0.2705078,-0.14550781,0.28027344,-62.6875,-137.34375,101.96875
625,0.2705078,-0.14550781,0.28027344,-62.6875,-137.34375,101.96875
626,-0.103515625,-0.08691406,0.16015625,-112.375,-151.625,104.96875
627,-0.103515625,-0.08691406,0.16015625,-112.375,-151.625,104.96875
628,-0.13964844,-0.64746094,0.12011719,2.5,-153.34375,114.75
629,-0.13964844,-0.64746094,0.12011719,2.5,-153.34375,114.75
630,0.45703125,-0.40429688,0.059570312,-7.0,-143.03125,101.0625
631,0.45703125,-0.40429688,0.059570312,-7.0,-143.03125,101.0625
632,0.2626953,-0.18164062,-0.0546875,1.15625,-124.84375,37.84375
633,0.2626953,-0.18164062,-0.0546875,1.15625,-124.84375,37.84375
634,0.9013672,-0.5214844,0.48828125,-109.5,-93.875,-15.40625
635,0.9013672,-0.5214844,0.48828125,-109.5,-93.875,-15.40625
636,-0.52246094,-0.8066406,-0.2421875,-268.0625,35.09375,39.25
637,-0.52246094,-0.8066406,-0.2421875,-268.0625,35.09375,39.25
638,1.1367188,-1.8310547,-0.26464844,-146.78125,-38.78125,-17.65625
639,1.1367188,-1.8310547,-0.26464844,-146.78125,-38.78125,-17.65625
640,1.1025391,-2.0,-1.09375,-36.75,-2.34375,-3.5625
641,1.1025391,-2.0,-1.09375,-36.75,-2.34375,-3.5625
642,0.53125,-1.0820312,-0.36328125,61.53125,27.5,14.53125
643,0.53125,-1.0820312,-0.36328125,61.53125,27.5,14.53125
644,0.34765625,-0.85839844,-0.19335938,113.09375,11.40625,-2.5625
645,0.34765625,-0.85839844,-0.19335938,113.09375,11.40625,-2.5625
646,0.5957031,-0.5576172,-0.22558594,161.8125,83.65625,-34.125
647,0.5957031,-0.5576172,-0.22558594,161.8125,83.65625,-34.125
648,0.8847656,-0.8886719,0.12597656,216.3125,146.40625,-35.53125
649,0.8847656,-0.8886719,0.12597656,216.3125,146.40625,-35.53125
650,0.5966797,-1.1494141,0.38964844,105.65625,111.3125,-51.03125
651,0.5966797,-1.1494141,0.38964844,105.65625,111.3125,-51.03125
652,1.2431641,0.2998047,0.765625,62.0625,113.5,-35.46875
653,1.2431641,0.2998047,0.765625,62.0625,113.5,-35.46875
654,0.25,-0.32128906,0.47851562,29.125,74.28125,38.0
655,0.25,-0.32128906,0.47851562,29.125,74.28125,38.0
656,-0.17089844,-0.54785156,0.8232422,27.96875,49.3125,77.0625
657,-0.17089844,-0.54785156,0.8232422,27.96875,49.3125,77.0625
658,0.107421875,-0.8466797,0.77734375,15.8125,27.09375,67.625
659,0.107421875,-0.8466797,0.77734375,15.8125,27.09375,67.625
660,0.1796875,-0.84375,0.7607422,4.15625,7.1875,59.5
661,0.1796875,-0.84375,0.7607422,4.15625,7.1875,59.5
662,-0.15136719,-1.0498047,0.45117188,-31.3125,-18.375,10.84375
663,-0.15136719,-1.0498047,0.45117188,-31.3125,-18.375,10.84375
664,0.35742188,-0.5625,0.765625,-24.15625,-12.71875,-52.5625
665,0.35742188,-0.5625,0.765625,-24.15625,-12.71875,-52.5625
666,0.32714844,-0.5625,0.5810547,-80.0,-22.28125,-27.0
667,0.32714844,-0.5625,0.5810547,-80.0,-22.28125,-27.0
668,0.45117188,-1.2197266,0.27929688,-117.65625,-56.53125,-48.09375
669,0.45117188,-1.2197266,0.27929688,-117.65625,-56.53125,-48.09375
670,0.56347656,-1.1699219,0.14746094,-97.96875,-75.8125,-50.71875
671,0.56347656,-1.1699219,0.14746094,-97.96875,-75.8125,-50.71875
672,0.5292969,-0.90527344,0.2705078,-44.71875,-67.21875,-56.21875
673,0.5292969,-0.90527344,0.2705078,-44.71875,-67.21875,-56.21875
674,0.5449219,-0.76464844,0.20117188,-33.25,-51.28125,-56.03125
675,0.5449219,-0.76464844,0.20117188,-33.25,-51.28125,-56.03125
676,0.6376953,-0.80371094,0.20214844,-18.625,-27.1875,-39.8125
677,0.6376953,-0.80371094,0.20214844,-18.625,-27.1875,-39.8125
678,0.47753906,-0.7763672,0.22167969,14.65625,-16.375,-17.59375
679,0.47753906,-0.7763672,0.22167969,14.65625,-16.375,-17.59375
680,0.37304688,-0.85058594,0.34472656,52.8125,-27.59375,27.34375
681,0.37304688,-0.85058594,0.34472656,52.8125,-27.59375,27.34375
682,0.2841797,-0.72265625,0.140625,83.3125,-72.40625,77.6875
683,0.2841797,-0.72265625,0.140625,83.3125,-72.40625,77.6875
684,0.4501953,-0.7998047,0.31347656,102.0625,-72.71875,113.03125
685,0.4501953,-0.7998047,0.31347656,102.0625,-72.71875,113.03125
686,0.3701172,-0.74609375,0.33496094,94.0625,-90.84375,115.84375
687,0.3701172,-0.74609375,0.33496094,94.0625,-90.84375,115.84375
688,0.4267578,-0.8183594,0.359375,76.84375,-67.9375,96.65625
689,0.4267578,-0.8183594,0.359375,76.84375,-67.9375,96.65625
690,0.5048828,-0.9277344,0.1796875,86.75,-94.90625,103.625
691,0.5048828,-0.9277344,0.1796875,86.75,-94.90625,103.625
692,0.53027344,-1.1337891,0.24121094,105.59375,-50.625,83.4375
693,0.53027344,-1.1337891,0.24121094,105.59375,-50.625,83.4375
694,0.34375,-1.0400391,0.4560547,113.84375,-16.75,75.3125
695,0.34375,-1.0400391,0.4560547,113.84375,-16.75,75.3125
696,0.43652344,-0.8955078,0.50390625,99.96875,16.03125,52.34375
697,0.43652344,-0.8955078,0.50390625,99.96875,16.03125,52.34375
698,0.15820312,-0.8222656,0.6982422,80.3125,14.6875,43.3125
699,0.15820312,-0.8222656,0.6982422,80.3125,14.6875,43.3125
700,0.45410156,-0.5859375,0.56152344,59.5,19.03125,37.28125
701,0.45410156,-0.5859375,0.56152344,59.5,19.03125,37.28125
702,0.24121094,-0.7167969,0.6738281,59.75,16.09375,71.78125
703,0.24121094,-0.7167969,0.6738281,59.75,16.09375,71.78125
704,0.40527344,-0.88183594,0.8046875,39.375,15.1875,82.5
705,0.40527344,-0.88183594,0.8046875,39.375,15.1875,82.5
706,0.1015625,-1.0214844,1.0,22.03125,32.34375,85.375
707,0.1015625,-1.0214844,1.0,22.03125,32.34375,85.375
708,0.19335938,-0.96191406,0.71875,48.96875,37.03125,74.9375
709,0.19335938,-0.96191406,0.71875,48.96875,37.03125,74.9375
710,0.111328125,-0.91796875,0.76953125,67.4375,55.15625,60.84375
711,0.111328125,-0.91796875,0.76953125,67.4375,55.15625,60.84375
712,-0.10449219,-0.71191406,0.83203125,80.6875,81.96875,30.1875
713,-0.10449219,-0.71191406,0.83203125,80.6875,81.96875,30.1875
714,-0.053710938,-0.65234375,0.7919922,65.25,97.46875,17.875
715,-0.053710938,-0.65234375,0.7919922,65.25,97.46875,17.875
716,-0.25585938,-0.60546875,0.81347656,49.4375,114.6875,15.90625
717,-0.25585938,-0.60546875,0.81347656,49.4375,114.6875,15.90625
718,-0.24511719,-0.43164062,0.7324219,31.0625,116.03125,33.1875
719,-0.24511719,-0.43164062,0.7324219,31.0625,116.03125,33.1875
720,-0.3251953,-0.39453125,0.734375,-16.65625,101.5,65.25
721,-0.3251953,-0.39453125,0.734375,-16.65625,101.5,65.25
722,-0.5048828,-0.5810547,0.7011719,-31.90625,94.34375,75.84375
723,-0.5048828,-0.5810547,0.7011719,-31.90625,94.34375,75.84375
724,-0.41601562,-0.4814453,0.71777344,-28.375,98.1875,67.9375
725,-0.41601562,-0.4814453,0.71777344,-28.375,98.1875,67.9375
726,-0.5332031,-0.30859375,0.6308594,-52.3125,83.1875,95.5
727,-0.5332031,-0.30859375,0.6308594,-52.3125,83.1875,95.5
728,-0.58984375,-0.4580078,0.57714844,-66.9375,74.5625,83.1875
729,-0.58984375,-0.4580078,0.57714844,-66.9375,74.5625,83.1875
730,-0.5253906,-0.6230469,0.5908203,-60.65625,63.46875,88.96875
731,-0.5253906,-0.6230469,0.5908203,-60.65625,63.46875,88.96875
732,-0.5722656,-0.35546875,0.34960938,-83.3125,74.15625,86.96875
733,-0.5722656,-0.35546875,0.34960938,-83.3125,74.15625,86.96875
734,-0.5996094,-0.44433594,0.39160156,-93.625,68.03125,74.8125
735,-0.5996094,-0.44433594,0.39160156,-93.625,68.03125,74.8125
736,-0.6669922,-0.3173828,0.33007812,-56.5625,62.25,104.0625
737,-0.6669922,-0.3173828,0.33007812,-56.5625,62.25,104.0625
738,-0.72265625,-0.22753906,0.2861328,-60.1875,73.40625,104.375
739,-0.72265625,-0.22753906,0.2861328,-60.1875,73.40625,104.375
740,-0.8984375,-0.12988281,0.109375,-72.6875,72.6875,113.09375
741,-0.8984375,-0.12988281,0.109375,-72.6875,72.6875,113.09375
742,-0.89453125,-0.14355469,0.16015625,-44.25,73.46875,68.40625
743,-0.89453125,-0.14355469,0.16015625,-44.25,73.46875,68.40625
744,-0.8613281,0.06347656,0.08886719,-1.59375,32.15625,53.46875
745,-0.8613281,0.06347656,0.08886719,-1.59375,32.15625,53.46875
746,-1.0068359,0.21484375,0.17382812,-12.375,0.40625,28.1875
747,-1.0068359,0.21484375,0.17382812,-12.375,0.40625,28.1875
748,-1.1230469,0.20117188,0.24707031,-45.78125,-9.09375,28.96875
749,-1.1230469,0.20117188,0.24707031,-45.78125,-9.09375,28.96875
750,-1.2070312,0.1171875,0.28027344,-56.03125,-20.59375,27.875
751,-1.2070312,0.1171875,0.28027344,-56.03125,-20.59375,27.875
752,-1.2568359,-0.009765625,0.4111328,-75.875,-18.4375,19.21875
753,-1.2568359,-0.009765625,0.4111328,-75.875,-18.4375,19.21875
754,-0.98828125,0.11328125,0.234375,-82.46875,-39.6875,2.0625
755,-0.98828125,0.11328125,0.234375,-82.46875,-39.6875,2.0625
756,-0.9638672,-0.107421875,0.1796875,-82.09375,-49.21875,5.0625
757,-0.9638672,-0.107421875,0.1796875,-82.09375,-49.21875,5.0625
758,-0.80371094,-0.02734375,0.20898438,-97.96875,-57.8125,-1.90625
759,-0.80371094,-0.02734375,0.20898438,-97.96875,-57.8125,-1.90625
