sample_no,accel_x,accel_y,accel_z,gyro_x,gyro_y,gyro_z
0,-0.35302734,-1.0361938,-0.1404419,0.3125,1.4375,3.71875
1,-0.3701172,-0.81817627,-0.13092041,0.828125,8.3125,5.140625
2,-0.2944336,-0.94488525,-0.13238525,4.515625,0.59375,2.90625
3,-0.3190918,-1.1143188,-0.03375244,-0.296875,-5.03125,1.28125
4,-0.42260742,-0.9299927,-0.05987549,-1.78125,-9.890625,2.640625
5,-0.3881836,-0.8753052,-0.112854004,-2.0,-2.59375,-0.953125
6,-0.32641602,-0.8713989,-0.08428955,0.140625,-3.40625,-1.09375
7,-0.3696289,-0.8826294,-0.10406494,1.90625,-4.265625,0.46875
8,-0.4177246,-0.9429321,-0.057434082,-0.296875,0.5,0.0
9,-0.36499023,-0.89630127,-0.07598877,-0.96875,-2.34375,-0.640625
10,-0.45043945,-0.92559814,-0.016174316,-2.109375,-5.484375,-0.5625
11,-0.45043945,-0.89141846,-0.039367676,-3.65625,-4.234375,-0.9375
12,-0.4091797,-0.85406494,-0.028869629,-4.453125,-1.890625,-0.078125
13,-0.5283203,-0.8911743,0.0040893555,-8.078125,-4.828125,-2.65625
14,-0.532959,-0.95806885,0.043151855,-9.609375,5.6875,-4.359375
15,-0.2211914,-1.2871704,-0.06378174,-4.890625,4.09375,-7.125
16,-0.22436523,-1.1672974,0.066833496,-7.140625,6.421875,7.984375
17,-0.09423828,-0.85650635,-0.023498535,-1.40625,-4.359375,7.21875
18,-0.4033203,-1.0044556,0.043395996,-0.203125,-3.03125,6.09375
19,-0.1496582,-0.8291626,-0.117004395,3.15625,2.359375,7.40625
20,-0.19067383,-0.94610596,0.058776855,3.546875,-3.15625,4.90625
21,-0.30932617,-1.0007935,0.07318115,2.359375,1.25,4.5625
22,-0.23779297,-0.93463135,0.014831543,2.375,4.359375,2.65625
23,-0.24780273,-1.0105591,0.08099365,3.671875,2.46875,1.71875
24,-0.3034668,-0.95318604,0.1251831,1.40625,5.4375,1.25
25,-0.2541504,-0.87335205,0.09442139,2.171875,9.078125,0.8125
26,-0.28442383,-0.9890747,0.109313965,3.59375,9.140625,-1.171875
27,-0.26464844,-0.9678345,0.13372803,2.046875,11.828125,0.703125
28,-0.20727539,-0.94244385,0.097839355,1.96875,10.0625,0.921875
29,-0.22607422,-1.1314087,0.07928467,0.09375,5.015625,-1.0
30,-0.35424805,-1.1553345,0.061950684,-4.34375,-0.671875,-2.609375
31,-0.26171875,-0.97662354,-0.10772705,-4.90625,2.828125,-0.359375
32,-0.26782227,-0.942688,0.012390137,-1.296875,0.5625,-0.03125
33,-0.3256836,-0.9011841,-0.09649658,-2.140625,1.484375,-0.390625
34,-0.32470703,-1.0142212,-0.09259033,-0.3125,-5.515625,-3.46875
35,-0.41870117,-0.9612427,-0.0335083,0.5625,-1.640625,-1.21875
36,-0.3720703,-0.87945557,-0.0960083,3.890625,5.078125,-1.125
37,-0.3232422,-0.93341064,-0.09185791,7.0625,3.921875,-0.984375
38,-0.3071289,-0.94366455,-0.058166504,6.359375,4.640625,1.21875
39,-0.3166504,-0.9163208,-0.06890869,4.921875,-2.234375,0.421875
40,-0.39819336,-0.9480591,-0.026428223,2.625,-3.84375,0.03125
41,-0.38085938,-0.88848877,-0.06304932,0.765625,-2.609375,0.140625
42,-0.42626953,-0.8621216,-0.04547119,0.640625,-1.625,-1.21875
43,-0.43408203,-0.897522,-0.038391113,2.078125,2.0625,-0.265625
44,-0.44628906,-0.9417114,-0.04425049,1.859375,0.90625,0.6875
45,-0.4831543,-1.0120239,0.024353027,1.890625,5.625,-0.84375
46,-0.39160156,-0.99664307,-0.03253174,-2.296875,0.03125,-1.90625
47,-0.40356445,-1.053772,-0.02154541,-3.203125,-1.0,-3.40625
48,-0.09765625,-0.89385986,-0.13140869,-0.171875,11.734375,4.328125
49,-0.21875,-0.83917236,0.04144287,4.671875,-1.421875,2.625
50,-0.36083984,-1.1245728,-0.050842285,2.59375,5.359375,-0.171875
51,-0.1027832,-1.0982056,-0.034484863,4.765625,4.140625,4.4375
52,-0.2685547,-0.9805298,0.06512451,0.84375,-1.15625,3.703125
53,-0.24633789,-0.9006958,0.007751465,0.09375,0.625,3.625
54,-0.26538086,-0.93829346,0.09466553,0.09375,1.0,0.5625
55,-0.25683594,-0.9414673,0.05316162,-0.296875,5.15625,1.40625
56,-0.32202148,-0.9312134,0.124694824,-0.109375,5.921875,-0.5625
57,-0.32177734,-1.0310669,0.026062012,-6.234375,6.203125,-3.421875
58,-0.33666992,-0.9944458,0.1071167,-8.1875,4.109375,-1.84375
59,-0.23999023,-1.0127563,-0.24639893,-3.0625,4.5,3.234375
60,-0.43847656,-1.0217896,-0.1716919,3.90625,-1.1875,4.671875
61,-0.25390625,-0.96661377,-0.15045166,-0.4375,5.546875,1.859375
62,-0.36376953,-1.0176392,-0.109680176,-1.96875,-2.25,-0.046875
63,-0.39575195,-0.8689575,-0.1675415,-0.546875,1.75,1.71875
64,-0.29345703,-0.86553955,-0.14556885,2.328125,2.921875,0.96875
65,-0.3232422,-0.92388916,-0.14996338,3.125,1.625,2.84375
66,-0.36035156,-0.8699341,0.12005615,7.109375,13.578125,3.390625
67,-0.33813477,-0.9319458,0.13275146,8.28125,20.1875,1.84375
68,-0.1694336,-1.1045532,0.12030029,8.09375,19.703125,2.015625
69,-0.22802734,-1.0071411,0.14300537,2.625,20.265625,3.09375
70,-0.26733398,-0.87945557,0.1329956,3.234375,22.015625,0.3125
71,-0.114746094,-0.9495239,0.093688965,3.875,19.828125,-1.84375
72,-0.12939453,-1.0508423,0.16009521,-0.59375,12.21875,-3.84375
73,-0.12939453,-0.8386841,0.10638428,-6.671875,3.046875,-6.953125
74,-0.39868164,-0.95098877,-0.093811035,-6.796875,-7.359375,-16.328125
75,-0.36889648,-1.2251587,-0.2522583,1.390625,3.109375,-12.0625
76,-0.26757812,-0.90875244,-0.07940674,4.421875,9.09375,-4.6875
77,-0.23022461,-1.1304321,-0.024719238,3.578125,-5.375,-9.078125
78,-0.47021484,-1.0618286,-0.03741455,-2.53125,-4.3125,-9.71875
79,-0.27075195,-0.84503174,-0.082092285,-1.796875,-5.203125,-11.0625
80,-0.26635742,-0.85650635,-0.062316895,-0.671875,-12.09375,-10.046875
81,-0.30786133,-0.91241455,-0.06427002,0.71875,-15.8125,-6.078125
82,-0.41064453,-0.87579346,-0.07208252,0.546875,-16.40625,-4.390625
83,-0.4404297,-0.927063,-0.050842285,-0.046875,-19.59375,-4.5625
84,-0.5180664,-0.9319458,0.007751465,0.15625,-17.734375,-2.734375
85,-0.5131836,-0.85943604,-0.012756348,1.625,-9.515625,-0.21875
86,-0.49145508,-0.8147583,-0.02935791,4.390625,-5.796875,2.328125
87,-0.5007324,-0.8399048,-0.07940674,4.28125,-2.453125,1.46875
88,-0.5349121,-0.9404907,-0.023742676,4.15625,5.484375,2.140625
89,-0.5883789,-1.0462036,0.06072998,-2.703125,6.609375,-3.046875
90,-0.5407715,-1.0064087,0.05340576,-12.484375,11.84375,-4.40625
91,-0.46044922,-0.9458618,-0.07574463,-10.328125,11.234375,-3.6875
92,-0.18652344,-0.96173096,-0.10064697,-4.640625,16.234375,4.4375
93,0.025390625,-0.8447876,-0.02130127,0.25,-3.21875,7.171875
94,-0.6098633,-1.0813599,0.074401855,-0.671875,-0.21875,3.9375
95,-0.3491211,-1.0501099,-0.07305908,0.25,11.15625,2.625
96,-0.2631836,-0.9871216,0.047302246,4.015625,6.984375,6.328125
97,-0.25756836,-0.9360962,0.07293701,0.109375,7.1875,6.921875
98,-0.22924805,-0.8897095,0.06365967,-0.359375,9.734375,6.078125
99,-0.23217773,-0.85113525,0.019226074,3.265625,4.671875,4.953125
100,-0.33276367,-0.8670044,0.074645996,4.59375,6.578125,2.984375
101,-0.4111328,-0.9380493,0.11175537,1.859375,18.03125,-2.265625
102,-0.20483398,-1.102356,0.089538574,0.21875,12.3125,-5.65625
103,-0.49682617,-1.1692505,0.1749878,-8.28125,4.484375,-6.359375
104,-0.35986328,-0.861145,-0.17340088,-9.234375,3.015625,-2.046875
105,-0.41870117,-0.9204712,-0.14727783,-0.625,3.59375,-1.328125
106,-0.23095703,-0.91656494,-0.058654785,3.265625,-1.84375,1.6875
107,-0.52490234,-1.0264282,-0.028137207,0.25,-1.734375,0.4375
108,-0.4033203,-0.8726196,-0.16583252,3.5625,4.125,1.796875
109,-0.3383789,-0.9143677,-0.10064697,6.578125,1.03125,2.328125
110,-0.35595703,-0.91973877,-0.038635254,4.21875,-0.625,4.0
111,-0.4008789,-0.9092407,-0.051818848,2.203125,-0.640625,3.671875
112,-0.48828125,-0.90802,-0.03277588,1.796875,-0.8125,2.625
113,-0.46606445,-0.90167236,-0.054504395,3.859375,3.875,2.71875
114,-0.35327148,-0.8760376,-0.034973145,4.484375,-0.546875,2.578125
115,-0.3864746,-0.89508057,-0.061584473,1.1875,-4.453125,3.703125
116,-0.43530273,-0.92510986,0.009216309,-3.671875,-3.90625,1.578125
117,-0.34960938,-0.85723877,0.0038452148,-9.515625,-9.046875,0.546875
118,-0.38183594,-1.0654907,-0.0947876,-2.375,-13.75,-1.234375
119,-0.37817383,-1.1948853,-0.051086426,-4.625,-1.09375,1.625
120,-0.20214844,-0.94366455,0.06512451,-0.875,-0.515625,3.328125
121,-0.3942871,-0.9356079,-0.015686035,-0.453125,3.0,3.96875
122,-0.24169922,-0.99053955,-0.045715332,3.0,6.53125,0.34375
123,-0.22241211,-1.0872192,0.06365967,3.46875,8.078125,3.359375
124,-0.23876953,-0.9846802,0.055847168,-0.609375,7.59375,3.84375
125,-0.23291016,-0.86798096,0.027038574,0.34375,8.140625,3.203125
126,-0.23779297,-0.8340454,0.0770874,2.578125,6.703125,2.625
127,-0.29125977,-0.817688,0.08123779,3.671875,11.453125,2.8125
128,-0.20166016,-0.9561157,0.008728027,7.421875,14.765625,1.140625
129,-0.25390625,-1.0635376,0.10882568,2.90625,13.171875,-1.1875
130,-0.41674805,-0.9417114,0.07098389,0.125,11.078125,-4.0
131,-0.24023438,-1.2405396,-0.051330566,2.515625,6.53125,-7.984375
132,-0.3227539,-1.2805786,0.13348389,-3.9375,-0.40625,-3.421875
133,-0.36328125,-0.8694458,-0.003479004,-10.921875,1.34375,-3.859375
134,-0.30395508,-0.75177,-0.21759033,-1.75,-4.859375,-3.328125
135,-0.24487305,-0.92633057,-0.09625244,2.359375,-14.0,-2.453125
136,-0.40185547,-0.92193604,-0.050109863,-1.71875,-16.203125,-1.25
137,-0.4501953,-0.911438,-0.094055176,-3.125,-12.640625,-3.453125
138,-0.3864746,-0.8999634,-0.07476807,-0.5,-9.875,-2.859375
139,-0.34277344,-0.913147,-0.09576416,-0.671875,-11.34375,-0.421875
140,-0.37036133,-0.928772,-0.09942627,-0.6875,-14.890625,1.109375
141,-0.46923828,-0.9614868,-0.0071411133,-2.796875,-11.296875,-0.1875
142,-0.44018555,-0.91534424,-0.038391113,-4.203125,-5.40625,0.265625
143,-0.3671875,-0.9024048,-0.0869751,-2.84375,-8.203125,0.546875
144,-0.48095703,-0.9546509,0.019226074,-7.90625,-12.640625,-1.984375
145,-0.5407715,-0.85528564,0.020690918,-9.234375,-8.78125,-1.765625
146,-0.5439453,-0.8623657,-0.022521973,-3.734375,-4.28125,-1.296875
147,-0.5600586,-0.99053955,-0.031311035,0.140625,2.5,-1.96875
148,-0.3984375,-0.99713135,0.0033569336,-5.4375,5.109375,0.0625
149,-0.46704102,-1.1731567,0.038513184,-2.578125,3.359375,-4.421875
150,-0.18237305,-0.9343872,-0.08355713,-1.078125,16.34375,3.859375
151,-0.17041016,-0.8623657,0.004333496,7.78125,4.609375,4.65625
152,-0.3203125,-0.96954346,-0.08770752,6.96875,3.421875,5.3125
153,-0.05834961,-0.8899536,-0.04449463,8.65625,7.859375,7.53125
154,-0.36987305,-1.194397,0.090270996,3.28125,-3.671875,-2.28125
155,-0.11743164,-0.82647705,-0.1428833,9.515625,-4.046875,12.90625
156,-0.30395508,-1.0493774,-0.04083252,6.0,-11.6875,4.796875
157,-0.40185547,-0.940979,0.12615967,-0.078125,0.6875,5.78125
158,-0.17993164,-0.8110962,0.07733154,-1.375,2.65625,2.3125
159,-0.39379883,-1.0515747,0.2506714,-7.5,1.40625,-3.0
160,-0.22021484,-0.9314575,-0.06768799,-5.109375,3.6875,1.625
161,-0.21704102,-0.95147705,0.018981934,-1.5,-6.390625,1.546875
162,-0.70288086,-1.3740845,0.08538818,-12.53125,5.59375,-6.625
163,-0.22363281,-1.0081177,-0.21881104,-6.171875,7.328125,0.03125
164,-0.4609375,-0.83721924,-0.21783447,-2.796875,3.875,3.515625
165,-0.16430664,-0.9692993,-0.14556885,0.578125,-0.859375,3.125
166,-0.36669922,-0.92315674,-0.053527832,-3.984375,-4.25,4.03125
167,-0.37963867,-0.847229,-0.19293213,-2.953125,-2.90625,1.328125
168,-0.33325195,-0.87213135,-0.07672119,-2.453125,-1.75,-0.28125
169,-0.34765625,-0.86602783,-0.14898682,-2.65625,-5.453125,2.40625
170,-0.47338867,-1.0806274,-0.014221191,-3.5,-3.25,-1.6875
171,-0.47509766,-0.8723755,-0.011291504,-9.34375,-0.578125,-0.453125
172,-0.5214844,-0.77911377,0.02142334,-3.5,6.0,0.640625
173,-0.22387695,-0.82818604,-0.124572754,2.84375,2.265625,3.875
174,-0.5371094,-1.0425415,0.046081543,0.75,-8.671875,1.0625
175,-0.49267578,-1.1746216,-0.05303955,-6.0625,8.28125,-2.15625
176,-0.12402344,-1.1963501,-0.028869629,0.15625,5.984375,0.25
177,0.07519531,-0.9651489,-0.12261963,6.609375,1.4375,11.65625
178,-0.3564453,-0.9360962,0.13250732,3.8125,-5.953125,6.3125
179,-0.33740234,-0.96710205,-0.03692627,0.796875,14.09375,-0.328125
180,-0.203125,-0.9824829,0.093688965,1.125,13.578125,-0.203125
181,-0.19018555,-0.9307251,0.08099365,1.453125,15.78125,0.359375
182,-0.17456055,-0.90826416,0.04071045,2.65625,15.96875,1.171875
183,-0.21850586,-0.89068604,0.13128662,4.5,12.421875,-0.484375
184,-0.22021484,-0.881897,0.13665771,2.5,12.5,-1.65625
185,-0.23901367,-0.8508911,0.08001709,6.609375,11.75,0.171875
186,-0.26708984,-0.96661377,0.16082764,5.734375,11.28125,-1.828125
187,-0.28320312,-0.7444458,0.04437256,4.59375,17.65625,0.421875
188,-0.36523438,-1.3262329,-0.016418457,10.171875,8.171875,-8.484375
189,-0.46118164,-1.2835083,0.09466553,-2.03125,9.96875,-7.9375
190,-0.3918457,-0.9956665,0.1696167,-10.015625,16.40625,-8.90625
191,-0.11743164,-0.7595825,-0.31207275,-0.546875,10.453125,-2.5
192,-0.29174805,-0.8814087,-0.24835205,6.21875,-3.671875,-0.578125
193,-0.39038086,-0.9260864,-0.13946533,4.921875,-0.5625,0.71875
194,-0.30371094,-1.1160278,-0.022521973,3.890625,-2.546875,-1.171875
195,-0.41064453,-0.9536743,-0.077941895,-2.015625,-0.328125,1.515625
196,-0.24731445,-0.8377075,-0.13214111,2.78125,-1.734375,2.0625
197,-0.34570312,-0.86309814,-0.08746338,5.671875,-2.65625,3.90625
198,-0.36743164,-0.95440674,-0.1338501,8.28125,-3.515625,4.25
199,-0.43530273,-0.989563,-0.07208252,5.78125,-2.109375,3.453125
200,-0.33642578,-0.9138794,-0.1104126,4.09375,-1.6875,4.046875
201,-0.34643555,-0.97003174,-0.046936035,0.015625,-12.84375,1.03125
202,-0.44995117,-0.9343872,-0.0068969727,-5.90625,-14.484375,0.46875
203,-0.45214844,-0.8201294,-0.022766113,-8.828125,-11.5625,-1.34375
204,-0.4399414,-0.83184814,-0.04107666,-8.578125,-10.859375,-2.125
205,-0.46484375,-0.9417114,-0.038879395,-4.671875,-8.8125,-2.546875
206,-0.35473633,-1.1663208,-0.09893799,-2.296875,0.515625,0.0625
207,-0.23388672,-1.1802368,0.09613037,-4.203125,-4.46875,0.4375
208,-0.32910156,-0.96099854,-0.097473145,-4.078125,1.375,3.265625
209,-0.3244629,-0.95562744,0.02557373,-0.46875,5.28125,-0.578125
210,-0.28808594,-1.0647583,-0.124816895,-1.640625,11.09375,0.828125
211,-0.15600586,-1.0859985,0.020446777,-0.90625,8.609375,3.890625
212,-0.19384766,-0.83843994,0.03656006,-2.359375,7.078125,4.515625
213,-0.23388672,-0.798645,0.018737793,0.03125,7.515625,4.859375
214,-0.17260742,-0.90216064,0.038269043,5.203125,8.8125,2.375
215,-0.24169922,-1.0352173,0.117370605,5.125,10.71875,1.734375
216,-0.22460938,-0.82818604,0.031188965,3.75,13.046875,3.1875
217,-0.1496582,-1.0422974,-0.0056762695,10.125,10.796875,-0.671875
218,-0.26098633,-1.21344,0.14935303,2.09375,7.3125,-3.8125
219,-0.37573242,-0.9714966,0.11248779,-4.296875,5.90625,-5.703125
220,-0.1706543,-1.0278931,-0.05621338,0.671875,8.203125,-3.515625
221,-0.19433594,-1.2649536,0.013122559,-2.90625,-5.953125,-0.96875
222,-0.43286133,-0.9019165,-0.109680176,-6.46875,1.625,0.15625
223,-0.18603516,-0.647522,-0.29083252,-0.328125,0.546875,0.703125
224,-0.23706055,-0.9614868,-0.19659424,3.78125,-11.21875,-2.0625
225,-0.4038086,-1.11969,-0.09283447,-0.71875,-14.5,-0.703125
226,-0.39086914,-0.89068604,-0.09674072,-3.15625,-7.546875,0.734375
227,-0.32373047,-0.9229126,-0.12945557,1.25,-10.765625,0.859375
228,-0.296875,-0.9133911,-0.10626221,2.0625,-12.359375,4.53125
229,-0.29711914,-0.85235596,-0.09063721,0.828125,-13.046875,5.015625
230,-0.38208008,-0.8833618,-0.08087158,-0.25,-18.1875,1.921875
231,-0.44750977,-0.95806885,-0.039367676,-3.96875,-14.015625,-1.9375
232,-0.39575195,-0.7974243,-0.032287598,-7.46875,-13.59375,-2.640625
233,-0.4104004,-0.8826294,-0.018615723,-6.515625,-15.484375,-4.25
234,-0.39160156,-0.9619751,-0.038146973,-9.09375,-13.953125,-2.703125
235,-0.40112305,-0.8753052,0.07611084,-18.015625,-15.40625,-5.71875
236,-0.5739746,-1.1270142,0.039001465,-16.90625,-16.125,-8.546875
237,-0.58496094,-1.3999634,0.15594482,-17.59375,9.71875,-7.875
238,-0.25439453,-0.815979,-0.11456299,-15.0,5.09375,-3.25
239,-0.0146484375,-0.8518677,0.04168701,-2.609375,-9.5625,-0.25
240,-0.4177246,-1.0061646,0.043395996,-3.8125,-4.1875,1.25
241,-0.18945312,-1.0061646,-0.047180176,3.25,2.234375,2.421875
242,-0.22998047,-0.94244385,0.03363037,4.796875,-0.21875,4.1875
243,-0.21850586,-1.0281372,0.14642334,3.0,-2.015625,1.984375
244,-0.328125,-0.9187622,0.13421631,-1.703125,3.015625,1.4375
245,-0.22436523,-0.8677368,0.0848999,2.546875,4.953125,0.84375
246,-0.24902344,-0.91973877,0.10760498,7.484375,4.703125,0.96875
247,-0.26489258,-0.9763794,0.09857178,9.6875,3.359375,0.515625
248,-0.29541016,-1.005188,0.109313965,6.09375,5.234375,1.65625
249,-0.1821289,-1.0029907,0.09295654,3.59375,-0.234375,2.28125
250,-0.47851562,-1.3352661,-0.030578613,-1.203125,5.21875,-1.84375
251,-0.25073242,-1.0300903,-0.31622314,0.140625,8.15625,2.765625
252,-0.41455078,-0.9043579,-0.11065674,-0.109375,3.046875,1.203125
253,-0.2705078,-1.0498657,-0.08380127,-0.59375,1.125,-1.1875
254,-0.46606445,-0.94537354,0.016296387,-4.6875,3.53125,1.5625
255,-0.33276367,-0.78375244,-0.17144775,-0.59375,7.296875,2.328125
256,-0.27514648,-0.8567505,-0.11871338,4.578125,2.703125,1.9375
257,-0.32543945,-0.8804321,-0.07696533,1.75,2.25,3.078125
258,-0.42138672,-0.86553955,-0.051818848,-2.453125,-0.375,-0.0625
259,-0.43603516,-0.8657837,-0.043762207,-4.265625,-0.890625,-1.84375
260,-0.40063477,-0.89190674,0.070251465,-5.015625,-3.546875,-2.203125
261,-0.45996094,-0.9133911,0.05218506,-9.21875,-9.421875,-4.484375
262,-0.60253906,-0.9404907,0.14178467,-8.328125,-10.71875,-4.40625
263,-0.5136719,-1.0916138,-0.047424316,-7.421875,-6.65625,-10.15625
264,-0.19213867,-1.1047974,-0.058166504,-3.171875,0.828125,-5.671875
265,-0.14404297,-1.0134888,-0.043029785,1.5,-3.5625,-1.03125
266,-0.40649414,-1.0298462,0.070495605,0.78125,4.234375,-0.40625
267,-0.21142578,-0.99957275,-0.1326294,7.296875,10.4375,2.4375
268,-0.24072266,-1.0877075,0.023376465,7.3125,5.765625,3.375
269,-0.17358398,-0.92974854,-0.008605957,7.0625,4.265625,9.609375
270,-0.2541504,-0.8711548,0.010192871,5.4375,0.421875,7.5625
271,-0.30786133,-0.8189087,0.07244873,4.65625,7.28125,5.8125
272,-0.3046875,-0.80059814,0.08050537,5.890625,11.421875,4.84375
273,-0.3322754,-0.87823486,0.14544678,5.578125,17.296875,2.6875
274,-0.21313477,-0.9319458,0.11004639,3.171875,22.375,0.0
275,-0.26953125,-0.93292236,0.1305542,2.9375,18.625,1.046875
276,-0.26538086,-1.0203247,0.007019043,-0.75,9.453125,-2.015625
277,-0.27490234,-1.4741821,-0.08746338,0.25,-4.65625,-3.5625
278,-0.48828125,-1.0169067,0.18231201,-15.65625,-2.3125,0.890625
279,-0.5270996,-0.8220825,-0.05718994,-17.703125,8.796875,-6.15625
280,-0.1953125,-0.9939575,-0.32769775,1.03125,5.9375,-3.296875
281,-0.3310547,-1.065979,-0.058898926,-0.03125,-0.421875,-0.53125
282,-0.40527344,-0.8999634,0.011169434,-0.421875,4.546875,3.265625
283,-0.30786133,-0.91192627,-0.06744385,1.15625,4.953125,0.46875
284,-0.43164062,-0.8562622,-0.06817627,2.234375,5.578125,1.328125
285,-0.21606445,-0.84039307,-0.1272583,6.03125,9.25,2.84375
286,-0.24267578,-0.8796997,-0.089904785,6.828125,3.265625,4.453125
287,-0.27783203,-0.89434814,-0.11773682,6.34375,-5.875,3.890625
288,-0.39990234,-0.9795532,-0.04083252,2.484375,-7.078125,-0.109375
289,-0.38989258,-0.96832275,-0.034729004,-3.546875,-10.0,-0.40625
290,-0.47729492,-0.90582275,-0.009338379,-9.53125,-12.296875,-4.8125
291,-0.47827148,-0.9026489,0.035583496,-7.171875,-5.734375,-4.0625
292,-0.43603516,-0.86798096,0.023620605,-6.71875,-5.5,-2.234375
293,-0.43603516,-0.85528564,0.07147217,-7.703125,-2.859375,-0.625
294,-0.4580078,-0.8401489,0.038269043,-5.0,-1.453125,0.5625
295,-0.43603516,-1.2954712,0.046081543,1.6875,3.125,-3.859375
296,-0.30151367,-1.1104126,0.0067749023,-2.90625,15.3125,6.140625
297,-0.037109375,-0.9417114,0.008483887,3.09375,4.671875,4.265625
298,-0.38549805,-1.0298462,0.066101074,2.4375,2.046875,5.25
299,-0.23413086,-1.0164185,0.024108887,3.78125,5.421875,4.828125
300,-0.123291016,-0.84332275,-0.014709473,2.9375,1.21875,9.203125
301,-0.18676758,-0.913147,0.055358887,1.703125,-0.40625,6.046875
302,-0.22558594,-0.96588135,0.051452637,1.515625,0.25,5.046875
303,-0.20629883,-0.96710205,0.06707764,2.09375,2.53125,4.09375
304,-0.25317383,-0.98321533,0.13543701,3.84375,2.5625,2.25
305,-0.20678711,-0.98272705,0.097839355,3.859375,1.734375,3.09375
306,-0.19458008,-0.9558716,0.15057373,1.265625,2.34375,3.359375
307,-0.14575195,-0.89849854,0.07904053,2.25,-6.203125,3.140625
308,-0.3959961,-0.97320557,0.20379639,-0.09375,-1.671875,0.125
309,-0.33081055,-1.0386353,0.015319824,-0.703125,4.640625,-5.453125
310,-0.46606445,-1.2683716,-0.02154541,-2.09375,11.453125,-8.3125
311,-0.10058594,-0.85528564,-0.34210205,2.1875,12.015625,1.84375
312,-0.3515625,-1.2234497,-0.13946533,6.34375,-1.390625,0.6875
313,-0.25732422,-1.048645,-0.03765869,1.734375,-1.515625,1.109375
314,-0.2475586,-0.8008423,-0.13482666,-1.34375,-2.03125,1.625
315,-0.2866211,-0.850647,-0.105773926,-0.40625,-5.65625,-2.5
316,-0.27441406,-0.87579346,-0.086242676,-0.984375,-3.265625,-1.765625
317,-0.30615234,-0.8882446,-0.09283447,-0.609375,-5.65625,0.234375
318,-0.32836914,-0.9151001,-0.07989502,-1.28125,-6.625,0.953125
319,-0.3190918,-0.9331665,-0.033996582,-4.015625,-10.203125,0.421875
320,-0.44873047,-0.9746704,0.03656006,-9.171875,-10.65625,-1.828125
321,-0.5422363,-0.9072876,0.049987793,-11.8125,-5.6875,-3.40625
322,-0.45239258,-0.8377075,0.06121826,-11.765625,-0.09375,-4.09375
323,-0.32104492,-0.9126587,0.024841309,-7.09375,-1.0,-3.09375
324,-0.14526367,-1.1890259,-0.15362549,3.359375,-11.65625,-1.953125
325,-0.20141602,-1.0310669,0.031433105,-1.296875,-7.125,5.484375
326,-0.2849121,-0.9380493,0.09515381,-3.125,-1.828125,0.734375
327,-0.20581055,-1.15094,-0.08721924,0.0625,1.3125,-1.84375
328,-0.15698242,-1.1101685,0.0848999,0.859375,-1.125,2.609375
329,-0.19311523,-0.8911743,0.07269287,-1.640625,0.28125,4.796875
330,-0.15258789,-0.9116821,0.030456543,1.375,-1.4375,2.453125
331,-0.23950195,-0.8933716,0.10418701,1.328125,-0.421875,2.90625
332,-0.30908203,-0.7859497,0.12030029,1.90625,5.609375,1.640625
333,-0.15234375,-0.8748169,0.028503418,6.40625,6.09375,0.609375
334,-0.3762207,-1.0093384,0.2555542,1.40625,3.625,-3.421875
335,-0.43969727,-0.7984009,0.1762085,-5.375,17.796875,-8.609375
336,-0.19311523,-1.1419067,-0.12554932,3.3125,13.453125,-12.96875
337,-0.42822266,-1.5747681,0.07635498,-4.8125,1.421875,-11.515625
338,-0.54589844,-1.0046997,-0.11602783,-7.71875,15.890625,-7.171875
339,-0.08105469,-0.9170532,-0.1819458,0.8125,9.03125,-5.4375
340,-0.31884766,-0.92144775,0.019470215,-1.15625,-1.703125,-1.515625
341,-0.36401367,-0.8477173,-0.10650635,-1.125,0.234375,-2.0
342,-0.34350586,-0.8279419,-0.06890869,0.859375,1.3125,-2.03125
343,-0.3076172,-0.88067627,-0.028869629,0.0625,2.78125,-1.390625
344,-0.42773438,-0.9019165,-0.08258057,1.359375,4.03125,0.09375
345,-0.36083984,-0.86602783,-0.045715332,4.953125,5.4375,1.96875
346,-0.39013672,-0.8933716,-0.044006348,5.359375,1.59375,3.484375
347,-0.44433594,-0.95391846,0.01776123,2.390625,3.234375,1.8125
348,-0.43652344,-0.86309814,-0.050842285,3.578125,5.546875,4.078125
349,-0.34570312,-0.8994751,-0.065979004,7.921875,-3.53125,6.21875
350,-0.5576172,-1.0169067,0.07659912,0.921875,-8.84375,2.703125
351,-0.46875,-0.8821411,0.047302246,-7.4375,-0.34375,0.171875
352,-0.38842773,-0.8809204,-0.04425049,-8.203125,-2.953125,-2.28125
353,-0.2319336,-1.3284302,-0.054992676,-0.875,-2.734375,-5.1875
354,-0.27539062,-1.0425415,0.0038452148,-4.265625,-1.625,6.984375
355,-0.19506836,-0.83917236,-0.035949707,-0.28125,-7.015625,3.453125
356,-0.4404297,-1.1272583,0.0368042,-1.125,-5.21875,2.015625
357,-0.26879883,-0.97076416,0.0014038086,-1.296875,4.15625,4.90625
358,-0.20239258,-0.92022705,0.04046631,-0.6875,2.625,7.59375
359,-0.15185547,-0.90802,0.038757324,0.84375,0.390625,5.9375
360,-0.26220703,-0.9561157,0.07904053,2.484375,0.828125,6.03125
361,-0.23486328,-0.9089966,0.034606934,1.21875,3.734375,4.984375
362,-0.22192383,-0.9710083,0.0602417,3.359375,2.921875,4.09375
363,-0.29516602,-0.94903564,0.14910889,1.1875,3.96875,4.34375
364,-0.33911133,-0.87335205,0.12664795,-1.8125,6.875,0.421875
365,-0.28466797,-0.9846802,0.11395264,2.890625,13.734375,-1.46875
366,-0.2980957,-1.0039673,0.20135498,-1.859375,16.546875,-2.171875
367,-0.36499023,-0.80059814,0.16595459,-5.265625,17.453125,-3.765625
368,-0.18603516,-0.92071533,-0.024230957,3.4375,14.34375,-5.515625
369,-0.32910156,-1.4812622,0.05706787,2.96875,-4.109375,-7.265625
370,-0.43139648,-1.0195923,0.005065918,-7.515625,4.546875,-1.234375
371,-0.296875,-0.8521118,-0.12750244,-1.109375,6.859375,-4.3125
372,-0.2705078,-1.0183716,-0.1519165,5.734375,2.171875,-0.96875
373,-0.29956055,-1.0286255,-0.0791626,3.5,-0.28125,0.625
374,-0.34204102,-0.8633423,-0.061828613,2.15625,1.515625,1.671875
375,-0.30444336,-0.8320923,-0.08087158,3.421875,2.6875,0.203125
376,-0.31054688,-0.8567505,-0.08868408,4.6875,0.109375,0.03125
377,-0.3503418,-0.9194946,-0.0713501,7.046875,-0.21875,0.671875
378,-0.39941406,-1.0088501,-0.030822754,5.65625,1.84375,0.59375
379,-0.33691406,-0.9360962,-0.057434082,3.34375,3.671875,1.46875
380,-0.31689453,-0.9192505,-0.0005493164,0.375,-4.828125,0.1875
381,-0.4321289,-0.8870239,-0.04864502,-2.046875,-4.078125,-0.4375
382,-0.35766602,-0.8713989,-0.03277588,-0.046875,-3.484375,-0.328125
383,-0.5031738,-0.9678345,0.0028686523,-3.5625,-5.1875,-3.0
384,-0.47338867,-0.9026489,0.001159668,-7.734375,-0.90625,-4.59375
385,-0.39697266,-0.8562622,0.015563965,-8.609375,2.25,-5.09375
386,-0.2705078,-1.2224731,-0.07745361,-2.296875,-2.390625,-5.5625
387,-0.2133789,-1.1358032,-0.054016113,-5.78125,-3.5625,4.09375
388,-0.1940918,-0.9006958,-0.033996582,-3.53125,-13.234375,2.328125
389,-0.37402344,-1.0264282,-0.010314941,-2.21875,-10.75,1.265625
390,-0.23413086,-1.0195923,-0.054260254,0.421875,-8.1875,2.390625
391,-0.23071289,-0.96759033,0.018737793,0.4375,-6.890625,5.53125
392,-0.2097168,-0.9492798,0.03338623,0.21875,-3.84375,4.953125
393,-0.21240234,-0.9143677,0.07879639,1.328125,-5.984375,3.734375
394,-0.25854492,-0.8518677,0.04095459,2.140625,-1.40625,4.984375
395,-0.20263672,-0.89434814,0.0048217773,7.203125,3.09375,5.8125
396,-0.29467773,-1.0857544,0.18817139,4.59375,-0.1875,1.734375
397,-0.3544922,-1.0073853,0.09881592,-2.6875,6.890625,-1.921875
398,-0.30493164,-0.8237915,0.074645996,-3.234375,5.671875,-5.125
399,-0.28930664,-1.0054321,-0.16851807,1.546875,0.625,-5.203125
400,-0.35058594,-1.1560669,-0.10211182,0.75,8.265625,-3.65625
401,-0.2800293,-1.0042114,-0.097229004,-0.9375,11.3125,0.53125
402,-0.21362305,-0.94976807,-0.13970947,1.625,0.125,-1.0
403,-0.34326172,-1.1052856,-0.032287598,0.296875,-8.046875,-2.390625
404,-0.33081055,-0.95318604,-0.057434082,-2.328125,-5.953125,1.203125
405,-0.43041992,-0.82525635,-0.055236816,0.765625,-2.84375,-0.421875
406,-0.36450195,-0.7893677,-0.06768799,3.046875,0.109375,-1.640625
407,-0.32202148,-0.82598877,-0.09674072,7.28125,-1.046875,-0.734375
408,-0.4099121,-0.9031372,-0.058166504,7.203125,-3.328125,-0.953125
409,-0.42236328,-0.9656372,-0.035461426,5.640625,0.46875,1.375
410,-0.33911133,-0.90997314,-0.085510254,3.96875,-3.015625,2.109375
411,-0.31298828,-0.89971924,-0.11138916,0.75,-8.84375,1.96875
412,-0.48046875,-0.9006958,-0.040100098,-8.171875,-13.28125,-1.0
413,-0.49926758,-0.89508057,-0.0178833,-10.4375,-7.96875,-2.15625
414,-0.40161133,-0.9517212,-0.070617676,-6.125,-6.3125,-0.171875
415,-0.46191406,-1.2373657,-0.031066895,-0.6875,3.328125,0.25
416,-0.27514648,-1.0159302,-0.14678955,-4.578125,2.890625,3.859375
417,-0.14355469,-0.960022,-0.020080566,-0.046875,-2.09375,0.9375
418,-0.26953125,-0.9585571,-0.11212158,-0.234375,-5.546875,3.203125
419,-0.3161621,-1.0859985,-0.061340332,1.703125,-1.140625,2.09375
420,-0.2211914,-1.0188599,-0.051330566,0.765625,1.921875,5.296875
421,-0.21264648,-0.9602661,0.009216309,-2.03125,2.671875,4.796875
422,-0.17871094,-0.9014282,0.04144287,-2.171875,2.765625,3.671875
423,-0.203125,-0.8086548,0.06976318,-0.71875,6.03125,4.390625
424,-0.21240234,-0.9158325,-0.047180176,3.671875,13.40625,4.828125
425,-0.1262207,-1.1038208,0.03729248,3.75,9.3125,-0.328125
426,-0.31152344,-1.0418091,0.105651855,-1.359375,7.40625,0.421875
427,-0.3190918,-1.0462036,0.004333496,-2.234375,8.71875,-1.078125
428,-0.2290039,-1.3240356,-0.04449463,-3.390625,6.703125,-3.890625
429,-0.29223633,-0.9378052,-0.03277588,-6.671875,3.171875,0.90625
430,-0.34375,-0.6411743,-0.17730713,-5.625,6.75,-3.5625
431,-0.3684082,-0.9595337,-0.035705566,-0.234375,0.6875,-6.5625
432,-0.39086914,-1.0576782,-0.08477783,-1.34375,5.0625,-1.296875
433,-0.39257812,-0.8245239,-0.097717285,3.0625,4.15625,-0.546875
434,-0.35913086,-0.8501587,-0.13531494,6.9375,5.015625,-0.53125
435,-0.30004883,-0.79815674,-0.085754395,7.65625,3.0625,-0.484375
436,-0.3647461,-0.8862915,-0.09918213,5.453125,-2.71875,-1.484375
437,-0.45263672,-0.94537354,-0.049621582,1.359375,-6.015625,-3.6875
438,-0.3857422,-0.86138916,-0.038146973,-1.640625,-2.078125,-1.65625
439,-0.37158203,-0.87213135,-0.050842285,-2.859375,-14.4375,-4.96875
440,-0.5300293,-0.94781494,0.08538818,-4.859375,-12.890625,-4.453125
441,-0.5383301,-0.83966064,0.018249512,-10.046875,-6.96875,-4.40625
442,-0.4716797,-1.1072388,-0.08477783,-5.140625,-4.8125,-10.015625
443,-0.19433594,-1.2632446,-0.11456299,-4.84375,-5.421875,-5.140625
444,-0.20239258,-1.0339966,-0.14923096,-2.421875,-8.625,2.625
445,-0.30566406,-1.0481567,-0.04156494,-3.4375,-12.234375,4.21875
446,-0.15258789,-1.0020142,-0.053771973,-0.921875,-7.578125,3.28125
447,-0.29345703,-1.0767212,-0.06695557,-1.46875,-5.65625,6.265625
448,-0.21069336,-0.92388916,-0.11895752,4.609375,-2.53125,11.5625
449,-0.2944336,-1.0779419,-0.028381348,4.546875,2.390625,6.140625
450,-0.29614258,-0.9019165,-0.00079345703,1.859375,8.1875,7.5625
451,-0.2434082,-0.6865845,-0.0095825195,3.203125,15.296875,5.3125
452,-0.24023438,-0.8308716,0.01361084,11.21875,14.25,1.234375
453,-0.27319336,-0.9714966,0.026062012,14.015625,14.078125,1.828125
454,-0.25512695,-1.0088501,0.081970215,3.9375,12.96875,-4.03125
455,-0.38354492,-0.8604126,0.045837402,-3.109375,17.03125,-5.9375
456,-0.14086914,-0.8994751,-0.124572754,2.671875,12.109375,-6.15625
457,-0.3395996,-1.505188,-0.09234619,-2.546875,-2.25,-12.578125
458,-0.52197266,-0.81695557,-0.032043457,-5.953125,5.609375,3.5
459,-0.20458984,-0.79034424,-0.33551025,2.90625,9.375,1.359375
460,-0.15649414,-1.1841431,-0.061584473,5.359375,-3.46875,0.96875
461,-0.45751953,-0.97735596,-0.16680908,4.90625,-4.4375,8.234375
462,-0.39916992,-0.7962036,-0.18341064,3.765625,-5.46875,-0.1875
463,-0.28051758,-0.8526001,-0.16339111,3.609375,-8.734375,-2.265625
464,-0.34155273,-0.8308716,-0.17242432,4.671875,-12.578125,1.328125
465,-0.39111328,-0.927063,-0.20831299,3.625,-9.53125,0.9375
466,-0.4013672,-0.8862915,-0.09918213,3.25,-6.59375,2.25
467,-0.32739258,-0.8110962,-0.13092041,2.296875,-4.734375,3.71875
468,-0.52563477,-0.9817505,-0.061340332,-1.890625,-6.71875,-2.8125
469,-0.5222168,-1.0845337,-0.008605957,-4.796875,2.3125,1.09375
470,-0.42285156,-0.87457275,-0.00030517578,-8.03125,4.96875,2.625
471,-0.23217773,-0.8909302,-0.17437744,-5.546875,-2.921875,3.0625
472,-0.033935547,-1.0222778,-0.30889893,-0.796875,-20.828125,5.9375
473,-0.2121582,-1.1050415,-0.1885376,-3.875,-28.328125,-1.265625
474,-0.55566406,-1.0440063,-0.15704346,-3.75,-23.21875,0.828125
475,-0.548584,-1.1463013,-0.12652588,-2.5,-1.28125,-4.328125
476,-0.25195312,-0.9194946,-0.2456665,0.015625,10.09375,-0.546875
477,-0.025146484,-1.0784302,-0.024230957,-11.34375,-2.390625,-3.671875
478,-0.19628906,-0.94732666,-0.06085205,-14.015625,6.109375,0.046875
479,-0.29614258,-0.6795044,-0.06500244,-1.265625,8.328125,5.78125
480,-0.14501953,-0.7005005,-0.11651611,-0.390625,10.171875,-0.09375
481,-0.06933594,-0.986145,-0.11993408,6.046875,-4.015625,-1.015625
482,-0.29882812,-1.2710571,0.14984131,-1.90625,-6.953125,-2.046875
483,-0.39575195,-0.9639282,0.09075928,-11.21875,0.96875,2.140625
484,-0.35766602,-0.6536255,0.018737793,-6.828125,2.890625,-0.40625
485,-0.2548828,-1.1680298,-0.15435791,4.28125,1.96875,-6.96875
486,-0.37402344,-1.388977,-0.08428955,-5.9375,-5.765625,-6.078125
487,-0.42895508,-0.8106079,-0.13580322,-6.53125,8.0,5.25
488,-0.15649414,-0.80841064,-0.25250244,4.421875,4.84375,-0.1875
489,-0.31152344,-1.1541138,-0.08380127,3.8125,-3.046875,-1.328125
490,-0.44189453,-0.94415283,-0.15411377,0.5,2.640625,2.953125
491,-0.27075195,-0.84259033,-0.13824463,2.59375,4.046875,-0.140625
492,-0.18017578,-0.8936157,-0.13043213,1.84375,-7.703125,2.578125
493,-0.44458008,-0.82525635,-0.04888916,-0.578125,-8.5,0.0
494,-0.36889648,-0.91778564,-0.1194458,2.453125,-1.671875,0.734375
495,-0.3869629,-0.8916626,-0.09161377,-0.796875,-0.796875,-0.484375
496,-0.3828125,-0.92559814,-0.08892822,-4.328125,-0.390625,-0.6875
497,-0.47387695,-0.8723755,-0.070373535,-6.671875,-2.734375,-1.453125
498,-0.46264648,-0.9871216,-0.00079345703,-8.03125,0.515625,-2.921875
499,-0.46972656,-0.91485596,0.07513428,-11.890625,2.078125,-5.3125
500,-0.32177734,-0.88116455,-0.059143066,-11.0625,-0.15625,-4.078125
501,-0.33520508,-1.2671509,-0.11431885,-0.6875,-10.140625,-6.46875
502,-0.29736328,-1.1155396,-0.10284424,-4.671875,0.515625,2.1875
503,-0.11743164,-0.91900635,-0.13043213,-2.484375,-11.34375,-0.640625
504,-0.3720703,-1.0337524,-0.008361816,-1.671875,-3.890625,-2.25
505,-0.3166504,-1.0383911,-0.11895752,0.84375,2.0625,1.0
506,-0.056884766,-0.93951416,-0.070617676,-0.0625,-5.5625,5.3125
507,-0.23608398,-0.91851807,0.081726074,-4.078125,-10.859375,3.234375
508,-0.25708008,-0.81988525,-0.02130127,-4.59375,-6.953125,3.90625
509,-0.2055664,-0.8648071,-0.019592285,0.15625,-5.546875,1.3125
510,-0.24145508,-1.0298462,0.053649902,1.390625,-7.453125,-0.40625
511,-0.3725586,-0.8569946,0.07366943,2.109375,-0.015625,4.640625
512,-0.24365234,-1.0322876,0.09539795,3.078125,2.0,-0.59375
513,-0.19433594,-1.1282349,0.11932373,-4.90625,9.140625,-1.84375
514,-0.29736328,-0.80133057,-0.116760254,-9.15625,0.484375,-0.71875
515,-0.39526367,-1.0042114,-0.5100708,2.90625,1.625,-3.046875
516,-0.5324707,-1.211731,-0.093566895,7.84375,-4.5,-2.59375
517,-0.41601562,-1.1792603,-0.023010254,-3.515625,10.203125,-6.3125
518,-0.35986328,-0.8567505,-0.10772705,1.40625,9.6875,3.65625
519,-0.31518555,-0.6506958,-0.15484619,7.734375,9.0,4.375
520,-0.32836914,-0.75372314,-0.16363525,12.328125,5.421875,4.703125
521,-0.35864258,-0.91729736,-0.13360596,10.734375,7.109375,2.984375
522,-0.23950195,-0.9854126,-0.13653564,5.265625,5.234375,4.265625
523,-0.43041992,-0.94317627,-0.02545166,3.03125,-0.34375,2.4375
524,-0.43798828,-0.9483032,-0.026428223,-0.75,5.40625,1.859375
525,-0.3630371,-0.8970337,-0.11456299,-0.6875,4.234375,2.984375
526,-0.38012695,-0.8484497,-0.10333252,-2.703125,-2.265625,0.25
527,-0.39086914,-0.95025635,-0.20147705,-6.65625,-4.671875,-3.203125
528,-0.5070801,-1.0842896,0.0021362305,-2.03125,-5.5625,3.421875
529,-0.42993164,-0.9290161,-0.11260986,-14.3125,-5.46875,-0.15625
530,-0.18188477,-1.0269165,-0.17877197,-0.125,-1.953125,-3.09375
531,-0.33984375,-1.0317993,-0.054016113,0.9375,5.140625,2.453125
532,-0.2746582,-0.9260864,-0.08380127,-0.71875,9.90625,2.21875
533,-0.24023438,-1.1104126,-0.12261963,4.1875,9.296875,1.703125
534,-0.14575195,-1.0422974,-0.10845947,2.78125,3.0,4.9375
535,-0.27514648,-0.99786377,-0.050842285,0.5625,7.390625,7.328125
536,-0.2043457,-0.9463501,0.019470215,-0.90625,14.59375,9.984375
537,-0.084228516,-0.81085205,-0.04449463,-2.84375,8.046875,6.5625
538,-0.14526367,-0.92071533,-0.0068969727,3.671875,0.453125,2.9375
539,-0.20507812,-0.9817505,0.051696777,3.453125,3.578125,3.84375
540,-0.20776367,-0.90875244,0.015563965,0.46875,1.984375,2.765625
541,-0.21923828,-1.1282349,0.13323975,-2.9375,2.109375,-2.859375
542,-0.28173828,-1.0188599,0.10858154,-9.734375,-3.15625,-4.671875
543,-0.4453125,-1.076477,-0.10479736,-7.609375,-7.75,-5.609375
544,-0.4296875,-0.88067627,-0.32647705,0.40625,11.875,1.890625
545,-0.15673828,-1.0237427,-0.19342041,6.015625,6.53125,-0.328125
546,-0.3996582,-1.0630493,-0.03741455,3.578125,1.046875,1.9375
547,-0.49243164,-0.9522095,-0.15289307,2.5625,11.421875,-0.453125
548,-0.2121582,-0.93634033,-0.22930908,4.359375,13.875,-0.015625
549,-0.28198242,-0.83673096,-0.12945557,4.3125,7.203125,2.703125
550,-0.24169922,-0.8369751,-0.121154785,4.921875,7.0625,3.046875
551,-0.21069336,-0.8374634,-0.17462158,3.90625,2.59375,2.640625
552,-0.33911133,-0.9246216,-0.028137207,2.03125,-2.5625,2.921875
553,-0.36157227,-1.015686,-0.012268066,-10.625,0.71875,0.96875
554,-0.22045898,-0.7954712,-0.15875244,-5.1875,-17.25,2.484375
555,-0.57421875,-1.1065063,0.093933105,0.984375,-22.21875,-4.0625
556,-0.5461426,-1.1106567,-0.0569458,-10.625,-7.015625,-0.53125
557,-0.22753906,-1.0496216,0.009460449,-10.40625,-5.609375,-9.34375
558,-0.056640625,-0.89312744,-0.14385986,-4.8125,-0.75,4.796875
559,-0.16601562,-0.9138794,-0.090148926,-2.03125,-3.890625,2.515625
560,-0.35083008,-1.144104,-0.13043213,1.765625,0.65625,-1.625
561,-0.19067383,-1.1021118,-0.054260254,0.578125,7.625,0.375
562,-0.17822266,-0.89971924,0.0036010742,-1.546875,8.328125,4.28125
563,-0.13427734,-0.9417114,-0.0413208,1.515625,8.484375,4.296875
564,-0.17749023,-0.9031372,-0.04058838,2.5625,3.890625,0.40625
565,-0.23828125,-0.84576416,0.09881592,1.171875,8.09375,1.140625
566,-0.14331055,-0.9573364,0.04437256,3.15625,9.109375,0.640625
567,-0.21142578,-0.95318604,0.17132568,-0.75,-2.140625,-4.203125
568,-0.47998047,-0.8284302,0.17352295,-13.625,10.46875,-6.828125
569,-0.09423828,-0.64508057,-0.012268066,-11.25,16.078125,-6.796875
570,-0.22241211,-1.3440552,-0.07989502,-0.125,-7.3125,-17.265625
571,-0.48901367,-1.4006958,-0.3057251,-7.0,-19.375,-13.0625
572,-0.4802246,-0.9963989,0.010437012,-5.015625,2.671875,-5.390625
573,-0.24438477,-1.0462036,-0.07281494,-1.265625,5.078125,-6.6875
574,-0.35205078,-0.9819946,-0.06500244,-0.75,-2.796875,-5.96875
575,-0.3864746,-0.81573486,-0.11968994,5.90625,-3.640625,-1.90625
576,-0.16552734,-0.75982666,-0.14801025,18.734375,-6.71875,4.65625
577,-0.34545898,-0.8779907,-0.036193848,10.546875,-12.78125,0.203125
578,-0.30004883,-0.9212036,-0.14581299,8.0625,-11.09375,-0.53125
579,-0.4814453,-0.9612427,-0.15533447,8.015625,-10.234375,0.65625
580,-0.51220703,-1.0615845,-0.08770752,6.515625,-0.6875,0.90625
581,-0.3330078,-0.7805786,-0.13555908,4.734375,5.8125,5.140625
582,-0.33276367,-0.8389282,-0.11431885,4.21875,-4.578125,1.203125
583,-0.41992188,-0.83477783,-0.113098145,0.421875,-5.609375,1.296875
584,-0.42944336,-0.8110962,-0.059143066,-3.265625,-6.65625,-0.109375
585,-0.4572754,-0.894104,-0.18878174,-5.203125,-8.421875,-1.859375
586,-0.58740234,-1.0361938,-0.023986816,-10.765625,6.53125,-3.921875
587,-0.2770996,-1.2068481,-0.031311035,-8.5625,12.6875,-1.25
588,-0.20776367,-1.2622681,-0.06964111,-10.96875,2.4375,1.71875
589,-0.3762207,-0.89630127,-0.18243408,-6.78125,-5.1875,3.3125
590,-0.24633789,-1.0576782,-0.022033691,-2.953125,-5.4375,0.15625
591,-0.3383789,-0.99835205,-0.097473145,-1.78125,-4.5,4.828125
592,-0.21948242,-0.85162354,-0.09967041,0.265625,-4.34375,7.359375
593,-0.22436523,-0.8616333,-0.017150879,-2.6875,-5.46875,7.109375
594,-0.19921875,-0.8892212,-0.0256958,0.421875,-2.78125,6.515625
595,-0.21289062,-1.0098267,-0.011779785,2.4375,-5.0,4.53125
596,-0.3310547,-0.9927368,0.085876465,3.59375,-6.453125,3.875
597,-0.17138672,-0.8911743,-0.03643799,4.015625,-2.640625,7.9375
598,-0.2668457,-0.9636841,0.055847168,2.625,-12.0625,-1.15625
599,-0.39135742,-0.9434204,0.08514404,-4.4375,7.5625,-0.5
600,-0.14575195,-0.8213501,0.07220459,-4.875,11.046875,-6.234375
601,-0.21142578,-0.89727783,-0.008117676,-3.84375,6.71875,-7.84375
602,-0.16577148,-1.3606567,-0.3086548,2.078125,-9.609375,-11.390625
603,-0.54711914,-1.2293091,-0.11383057,-3.671875,-10.375,-7.0625
604,-0.52905273,-0.8831177,-0.20123291,-2.46875,11.78125,-0.875
605,-0.18261719,-0.8887329,-0.1819458,1.046875,4.1875,-5.03125
606,-0.22265625,-0.98516846,-0.15093994,1.328125,-5.0625,-0.328125
607,-0.3972168,-0.80914307,-0.11846924,4.90625,-3.796875,2.90625
608,-0.38720703,-0.8201294,-0.11065674,5.0,2.921875,2.796875
609,-0.3515625,-0.8320923,-0.11065674,6.546875,4.03125,1.234375
610,-0.38232422,-0.9290161,-0.16412354,7.984375,6.015625,2.875
611,-0.42529297,-0.9714966,-0.10699463,7.71875,11.875,3.578125
612,-0.2619629,-0.9258423,-0.12530518,2.703125,3.703125,4.0
613,-0.35913086,-0.93292236,-0.090148926,-4.359375,-4.328125,-1.40625
614,-0.4946289,-0.9092407,-0.120910645,-5.140625,-3.421875,-1.15625
615,-0.48242188,-0.8562622,-0.11016846,-5.8125,4.796875,-2.21875
616,-0.4416504,-0.86602783,-0.058410645,-4.140625,6.609375,-0.046875
617,-0.41088867,-0.87701416,-0.11773682,-2.484375,13.953125,1.484375
618,-0.2241211,-1.1338501,-0.16705322,-1.328125,-1.90625,-2.046875
619,-0.22314453,-1.1531372,-0.08380127,-0.96875,2.75,3.09375
620,-0.29833984,-0.9668579,-0.066711426,0.328125,-1.65625,4.328125
621,-0.41674805,-1.0806274,-0.10601807,0.015625,7.109375,3.390625
622,-0.21044922,-0.991272,-0.089416504,-0.0625,9.171875,3.46875
623,-0.22705078,-0.97662354,0.035827637,-3.984375,6.109375,9.09375
624,-0.24682617,-0.84576416,-0.0134887695,-2.65625,6.375,1.375
625,-0.2175293,-0.88604736,0.026062012,2.65625,9.078125,3.5
626,-0.103271484,-0.8381958,-0.069885254,5.390625,4.40625,4.65625
627,-0.11352539,-1.1255493,0.007019043,5.421875,-2.625,3.609375
628,-0.28295898,-1.0195923,0.029968262,-0.90625,-3.953125,3.015625
629,-0.34423828,-0.9180298,0.039489746,-4.21875,-2.265625,1.65625
630,-0.20483398,-1.1895142,-0.14483643,-1.265625,-5.296875,-3.109375
631,-0.203125,-1.2903442,-0.13580322,-1.40625,-11.453125,-1.171875
632,-0.41748047,-0.89508057,-0.14654541,-3.140625,-4.953125,4.078125
633,-0.36157227,-0.6223755,-0.22564697,-0.125,2.203125,1.484375
634,-0.31958008,-0.9805298,-0.19854736,3.109375,-2.890625,-5.53125
635,-0.31103516,-1.0713501,-0.15875244,1.40625,-2.703125,-2.96875
636,-0.3635254,-0.89801025,-0.14263916,1.78125,0.96875,2.984375
637,-0.33032227,-0.78448486,-0.16729736,4.296875,5.1875,3.875
638,-0.33447266,-0.79937744,-0.1987915,4.6875,0.875,-0.109375
639,-0.3881836,-0.9373169,-0.15411377,3.578125,2.515625,-2.265625
640,-0.34545898,-0.88897705,-0.07550049,-0.296875,3.859375,0.671875
641,-0.3864746,-0.9194946,-0.12188721,-0.0625,0.015625,0.3125
642,-0.42626953,-1.0471802,-0.047424316,-4.4375,2.5,-1.578125
643,-0.3605957,-0.93414307,-0.042053223,-10.875,4.546875,0.140625
644,-0.2919922,-0.7276001,-0.2029419,-10.5,-3.84375,0.53125
645,0.034423828,-1.138977,-0.2962036,4.0,-13.71875,-4.125
646,-0.3852539,-1.2090454,-0.081848145,-0.1875,-9.90625,4.4375
647,-0.41259766,-1.022522,-0.15557861,-2.078125,9.421875,0.328125
648,-0.19116211,-1.0696411,-0.11138916,-1.578125,8.125,-1.109375
649,-0.15209961,-0.9619751,-0.13726807,-2.734375,4.5,3.71875
650,-0.20922852,-1.1079712,0.003112793,-1.9375,4.140625,2.953125
651,-0.23217773,-0.8699341,-0.042297363,-4.328125,5.90625,2.921875
652,-0.21655273,-0.6524048,-0.023742676,-5.078125,8.65625,2.78125
653,-0.05102539,-0.897522,-0.08062744,3.28125,3.171875,0.484375
654,-0.18847656,-1.0620728,0.008483887,1.78125,0.46875,3.4375
655,-0.2097168,-0.6748657,0.027526855,-5.3125,-2.78125,8.25
656,-0.103759766,-1.109436,-0.04083252,1.703125,-5.3125,-2.21875
657,-0.44604492,-1.4780884,-0.0010375977,-4.71875,-7.234375,-8.390625
658,-0.56933594,-0.96710205,-0.059631348,-16.203125,6.109375,-6.40625
659,-0.1928711,-0.659729,-0.27301025,-4.078125,10.578125,0.921875
660,-0.18603516,-1.109436,-0.12335205,2.46875,-8.140625,-5.546875
661,-0.44995117,-1.1113892,-0.0012817383,-3.0,-4.90625,0.515625
662,-0.34570312,-0.8777466,-0.13043213,-0.703125,6.875,3.9375
663,-0.32250977,-0.82940674,-0.12237549,1.9375,3.671875,-0.578125
664,-0.28295898,-0.89727783,-0.10797119,3.4375,4.15625,-0.625
665,-0.34887695,-0.92266846,-0.10357666,3.5,4.1875,0.9375
666,-0.3371582,-0.94854736,-0.12554932,2.9375,3.765625,2.28125
667,-0.40307617,-0.96466064,-0.07501221,-0.234375,2.65625,0.40625
668,-0.38208008,-0.9085083,-0.036193848,-2.015625,5.578125,0.328125
669,-0.35839844,-0.84869385,-0.074279785,-4.90625,1.5625,-0.71875
670,-0.3815918,-0.9067993,-0.029846191,-6.828125,-3.0625,-2.515625
671,-0.39013672,-0.93829346,-0.0032348633,-9.859375,-3.84375,-2.359375
672,-0.40893555,-0.8147583,0.08294678,-12.390625,-3.828125,-0.9375
673,-0.43945312,-1.1148071,-0.16461182,-6.53125,-9.8125,-4.8125
674,-0.4501953,-1.5498657,0.16937256,-5.5625,9.53125,-8.59375
675,-0.17041016,-1.0479126,-0.066223145,-12.15625,12.015625,7.609375
676,-0.09008789,-0.63116455,-0.058166504,-4.578125,-3.125,5.859375
677,-0.34155273,-0.97247314,0.010437012,0.03125,-5.96875,2.5
678,-0.13623047,-1.0200806,-0.10821533,1.40625,0.59375,4.4375
679,-0.17163086,-0.9221802,0.035827637,2.140625,-3.09375,6.625
680,-0.18530273,-0.9702759,0.053649902,1.484375,-4.578125,5.984375
681,-0.16723633,-0.9180298,0.008728027,2.984375,-4.84375,7.140625
682,-0.17944336,-0.9651489,0.03387451,4.4375,-6.734375,5.953125
683,-0.22949219,-1.048645,0.11077881,3.65625,-2.0,4.0625
684,-0.28393555,-0.8804321,0.035339355,4.75,-1.609375,4.1875
685,-0.27783203,-0.84698486,0.10394287,4.609375,5.125,1.765625
686,-0.18164062,-1.0322876,0.11077881,5.15625,6.765625,-1.015625
687,-0.21777344,-1.0073853,0.11639404,-2.046875,9.875,-2.3125
688,-0.14111328,-0.89385986,0.113220215,-3.765625,6.84375,-3.453125
689,-0.13891602,-1.0418091,0.082458496,-2.984375,2.671875,-4.421875
690,-0.27441406,-1.2932739,-0.02911377,-5.953125,-11.046875,-7.296875
691,-0.33789062,-1.180481,-0.2276001,-6.734375,-8.625,-2.09375
692,-0.37695312,-0.8308716,-0.05987549,-4.15625,1.921875,2.859375
693,-0.32617188,-0.88116455,-0.159729,-0.03125,3.03125,1.75
694,-0.2783203,-1.0806274,-0.13946533,0.046875,-1.046875,-3.140625
695,-0.32348633,-0.9692993,-0.04473877,-0.484375,2.765625,-1.1875
696,-0.32226562,-0.86138916,-0.0869751,1.21875,5.421875,-0.03125
697,-0.28222656,-0.8460083,-0.06915283,5.140625,5.765625,-0.671875
698,-0.31347656,-0.86676025,-0.046691895,7.359375,4.0625,0.125
699,-0.3383789,-0.9026489,-0.069885254,6.546875,2.046875,0.65625
700,-0.38500977,-1.0061646,-0.049865723,5.96875,0.78125,0.703125
701,-0.35351562,-0.97198486,0.007019043,2.5625,2.75,1.203125
702,-0.23388672,-0.913147,-0.10430908,-0.34375,-3.4375,2.328125
703,-0.26733398,-0.84747314,-0.0803833,-2.390625,-7.90625,3.9375
704,-0.41992188,-0.98809814,0.06439209,-6.265625,-12.625,-1.8125
705,-0.5209961,-0.95513916,0.011169434,-10.6875,-5.859375,-1.640625
706,-0.3544922,-1.1294556,-0.06549072,-5.109375,-0.359375,-4.96875
707,-0.23852539,-1.0459595,-0.1519165,-0.953125,9.0,1.875
708,-0.022949219,-0.8616333,-0.1585083,4.125,1.375,3.671875
709,-0.2919922,-0.9585571,0.0053100586,3.703125,-0.890625,0.828125
710,-0.26831055,-1.1138306,-0.120666504,4.53125,3.953125,-0.046875
711,-0.17163086,-1.180481,-0.016418457,3.1875,7.21875,3.109375
712,-0.23852539,-0.9146118,-0.023010254,1.59375,3.4375,5.9375
713,-0.2607422,-0.7359009,-0.049621582,3.328125,7.3125,5.671875
714,-0.19628906,-1.0462036,0.0692749,6.203125,3.484375,-0.5
715,-0.31567383,-0.95513916,0.12225342,-0.15625,7.734375,2.8125
716,-0.27001953,-0.7901001,-0.024230957,3.359375,9.375,2.75
717,-0.21313477,-0.9524536,-0.008605957,8.8125,7.9375,1.296875
718,-0.2709961,-1.171936,0.01727295,3.484375,10.390625,-1.03125
719,-0.37768555,-1.0681763,-0.026428223,-0.828125,9.65625,-1.203125
720,-0.22436523,-1.321106,-0.09259033,0.0625,11.125,-3.390625
721,-0.3474121,-0.9871216,-0.028137207,-3.796875,14.078125,3.984375
722,-0.2607422,-0.68341064,-0.2876587,-0.140625,18.3125,2.953125
723,-0.2619629,-1.0015259,-0.08135986,3.328125,1.53125,-4.875
724,-0.46289062,-1.0735474,-0.08795166,-1.375,8.875,-1.640625
725,-0.36157227,-0.8464966,-0.11529541,1.1875,15.71875,3.328125
726,-0.32885742,-0.82037354,-0.13824463,5.484375,16.46875,2.203125
727,-0.30786133,-0.7901001,-0.09088135,4.171875,10.703125,-0.8125
728,-0.3635254,-0.7192993,-0.09307861,3.9375,10.671875,-3.734375
729,-0.3178711,-0.7971802,-0.13165283,5.015625,5.84375,-7.40625
730,-0.5402832,-1.0952759,-0.10650635,-2.609375,1.421875,-9.890625
731,-0.6867676,-1.0967407,0.03363037,-8.546875,8.578125,-12.6875
732,-0.4086914,-1.1484985,0.0033569336,-12.96875,19.734375,-10.8125
733,0.014160156,-1.331604,-0.04425049,-3.90625,-5.46875,-14.25
734,-0.09350586,-0.97906494,-0.2871704,0.671875,-4.96875,12.578125
735,-0.0075683594,-0.8257446,0.02557373,-2.921875,-22.125,4.09375
736,-0.5966797,-0.86309814,-0.08868408,-1.40625,-11.953125,5.484375
737,-0.11254883,-1.0061646,-0.10284424,3.921875,-2.671875,-1.421875
738,-0.1665039,-1.1047974,0.04925537,-0.734375,-1.546875,4.828125
739,-0.24633789,-0.81744385,-0.044006348,-0.484375,-2.359375,6.34375
740,-0.24902344,-0.767395,-0.04937744,3.328125,1.421875,3.71875
741,-0.20092773,-1.0105591,-0.0022583008,8.390625,0.515625,0.703125
742,-0.27612305,-0.95758057,0.10443115,2.3125,3.59375,1.796875
743,-0.2849121,-0.79644775,0.00970459,3.34375,10.21875,0.921875
744,-0.23901367,-1.1533813,0.13201904,1.921875,7.734375,-8.515625
745,-0.3503418,-1.0440063,0.22235107,-10.625,10.15625,-8.90625
746,-0.28466797,-0.62994385,0.00091552734,-10.421875,7.71875,-6.953125
747,-0.29638672,-1.1052856,-0.2468872,2.625,4.109375,-9.5625
748,-0.39990234,-1.3567505,-0.082336426,-4.3125,1.609375,-3.859375
749,-0.45214844,-0.89971924,-0.093322754,-12.265625,5.71875,5.625
