sample_no,accel_x,accel_y,accel_z,gyro_x,gyro_y,gyro_z
0,0.10424805,-0.8911743,-0.34527588,-4.875,-5.25,11.921875
1,0.08300781,-0.9031372,-0.3477173,-8.78125,-9.15625,15.625
2,0.08300781,-0.9031372,-0.3477173,-8.78125,-9.15625,15.625
3,0.20507812,-0.8809204,-0.3587036,-11.21875,-15.671875,18.96875
4,0.20507812,-0.8809204,-0.3587036,-11.21875,-15.671875,18.96875
5,0.19067383,-0.83843994,-0.3201294,-12.234375,-24.390625,24.0625
6,0.19067383,-0.83843994,-0.3201294,-12.234375,-24.390625,24.0625
7,0.12988281,-0.819397,-0.3867798,-7.46875,-28.046875,22.890625
8,0.12988281,-0.819397,-0.3867798,-7.46875,-28.046875,22.890625
9,0.38110352,-0.90216064,-0.2119751,-2.796875,-9.125,14.609375
10,0.38110352,-0.90216064,-0.2119751,-2.796875,-9.125,14.609375
11,0.1616211,-0.8933716,-0.23028564,-4.015625,-3.09375,16.421875
12,0.1616211,-0.8933716,-0.23028564,-4.015625,-3.09375,16.421875
13,0.29370117,-0.8076782,-0.28961182,1.625,-1.40625,-3.0625
14,0.29370117,-0.8076782,-0.28961182,1.625,-1.40625,-3.0625
15,0.4050293,-0.7402954,-0.28179932,4.421875,0.40625,-2.140625
16,0.4050293,-0.7402954,-0.28179932,4.421875,0.40625,-2.140625
17,0.29125977,-0.9656372,-0.18511963,5.96875,6.828125,-9.203125
18,0.29125977,-0.9656372,-0.18511963,5.96875,6.828125,-9.203125
19,0.41479492,-0.769104,-0.21392822,10.546875,11.46875,-11.328125
20,0.41479492,-0.769104,-0.21392822,10.546875,11.46875,-11.328125
21,0.26733398,-0.81085205,-0.21124268,11.71875,13.46875,-15.625
22,0.26733398,-0.81085205,-0.21124268,11.71875,13.46875,-15.625
23,0.32885742,-0.7893677,-0.25177002,9.1875,11.875,-21.359375
24,0.32885742,-0.7893677,-0.25177002,9.1875,11.875,-21.359375
25,0.19433594,-0.8130493,-0.15386963,14.515625,23.609375,-18.515625
26,0.19433594,-0.8130493,-0.15386963,14.515625,23.609375,-18.515625
27,0.1977539,-0.8401489,-0.3418579,2.390625,22.34375,-24.4375
28,0.1977539,-0.8401489,-0.3418579,2.390625,22.34375,-24.4375
29,0.29760742,-0.90093994,-0.51397705,6.84375,5.84375,-26.03125
30,0.29760742,-0.90093994,-0.51397705,6.84375,5.84375,-26.03125
31,0.15161133,-0.9956665,-0.5420532,14.890625,4.65625,-2.203125
32,0.15161133,-0.9956665,-0.5420532,14.890625,4.65625,-2.203125
33,0.07421875,-1.008606,-0.411438,6.515625,7.15625,-2.34375
34,0.07421875,-1.008606,-0.411438,6.515625,7.15625,-2.34375
35,0.064453125,-0.9800415,-0.54351807,5.578125,6.671875,6.234375
36,0.064453125,-0.9800415,-0.54351807,5.578125,6.671875,6.234375
37,0.021972656,-0.881897,-0.39898682,1.1875,-1.734375,8.0
38,0.021972656,-0.881897,-0.39898682,1.1875,-1.734375,8.0
39,0.03540039,-0.9229126,-0.41241455,-2.265625,-0.5,8.515625
40,0.03540039,-0.9229126,-0.41241455,-2.265625,-0.5,8.515625
41,0.056396484,-0.815979,-0.41705322,-6.46875,-7.34375,10.9375
42,0.056396484,-0.815979,-0.41705322,-6.46875,-7.34375,10.9375
43,0.0871582,-0.8723755,-0.38287354,-13.46875,-12.484375,10.625
44,0.0871582,-0.8723755,-0.38287354,-13.46875,-12.484375,10.625
45,0.07299805,-0.84625244,-0.3555298,-12.5,-12.15625,16.125
46,0.07299805,-0.84625244,-0.3555298,-12.5,-12.15625,16.125
47,0.10253906,-0.8428345,-0.42193604,-15.703125,-18.84375,16.171875
48,0.10253906,-0.8428345,-0.42193604,-15.703125,-18.84375,16.171875
49,0.26367188,-0.89971924,-0.29327393,-18.515625,-22.734375,16.328125
50,0.26367188,-0.89971924,-0.29327393,-18.515625,-22.734375,16.328125
51,0.09326172,-0.8623657,-0.23712158,-15.203125,-17.921875,17.71875
52,0.09326172,-0.8623657,-0.23712158,-15.203125,-17.921875,17.71875
53,0.40112305,-0.7815552,-0.31573486,3.15625,-9.65625,14.390625
54,0.40112305,-0.7815552,-0.31573486,3.15625,-9.65625,14.390625
55,0.22607422,-0.9168091,-0.23834229,-0.703125,1.125,10.171875
56,0.22607422,-0.9168091,-0.23834229,-0.703125,1.125,10.171875
57,0.39282227,-0.90338135,-0.36431885,6.234375,3.125,2.875
58,0.39282227,-0.90338135,-0.36431885,6.234375,3.125,2.875
59,0.41992188,-0.7974243,-0.25250244,11.828125,5.375,2.109375
60,0.41992188,-0.7974243,-0.25250244,11.828125,5.375,2.109375
61,0.30297852,-0.89312744,-0.22857666,13.0625,11.203125,-1.828125
62,0.30297852,-0.89312744,-0.22857666,13.0625,11.203125,-1.828125
63,0.32592773,-0.7439575,-0.17926025,15.34375,15.671875,-9.40625
64,0.32592773,-0.7439575,-0.17926025,15.34375,15.671875,-9.40625
65,0.19824219,-0.77301025,-0.21417236,8.578125,23.171875,-15.140625
66,0.19824219,-0.77301025,-0.21417236,8.578125,23.171875,-15.140625
67,0.115234375,-0.8237915,-0.2642212,0.1875,31.921875,-27.875
68,0.115234375,-0.8237915,-0.2642212,0.1875,31.921875,-27.875
69,0.23291016,-0.8423462,-0.600647,-2.90625,31.765625,-25.765625
70,0.23291016,-0.8423462,-0.600647,-2.90625,31.765625,-25.765625
71,0.60595703,-1.0198364,-0.5039673,8.578125,8.453125,-15.484375
72,0.60595703,-1.0198364,-0.5039673,8.578125,8.453125,-15.484375
73,-0.14892578,-1.0615845,-0.3892212,-0.5,2.21875,0.421875
74,-0.14892578,-1.0615845,-0.3892212,-0.5,2.21875,0.421875
75,0.22973633,-0.91656494,-0.473938,-1.484375,-2.234375,-0.75
76,0.22973633,-0.91656494,-0.473938,-1.484375,-2.234375,-0.75
77,0.071777344,-0.9612427,-0.4163208,2.75,-10.953125,5.578125
78,0.071777344,-0.9612427,-0.4163208,2.75,-10.953125,5.578125
79,0.055419922,-0.94122314,-0.47198486,-0.890625,-13.796875,8.921875
80,0.055419922,-0.94122314,-0.47198486,-0.890625,-13.796875,8.921875
81,0.09106445,-0.81817627,-0.38336182,-2.0,-22.28125,12.46875
82,0.09106445,-0.81817627,-0.38336182,-2.0,-22.28125,12.46875
83,0.016357422,-0.89630127,-0.28277588,-9.125,-14.9375,12.234375
84,0.016357422,-0.89630127,-0.28277588,-9.125,-14.9375,12.234375
85,0.057861328,-0.87286377,-0.3587036,-15.734375,-15.9375,14.46875
86,0.057861328,-0.87286377,-0.3587036,-15.734375,-15.9375,14.46875
87,0.18383789,-0.880188,-0.27642822,-19.515625,-15.21875,13.421875
88,0.18383789,-0.880188,-0.27642822,-19.515625,-15.21875,13.421875
89,0.06738281,-0.85943604,-0.38824463,-19.578125,-19.34375,12.71875
90,0.06738281,-0.85943604,-0.38824463,-19.578125,-19.34375,12.71875
91,0.18188477,-0.7974243,-0.33013916,-10.390625,-21.109375,11.71875
92,0.18188477,-0.7974243,-0.33013916,-10.390625,-21.109375,11.71875
93,0.35766602,-0.79571533,-0.1663208,6.203125,-3.75,14.40625
94,0.35766602,-0.79571533,-0.1663208,6.203125,-3.75,14.40625
95,0.24316406,-0.93463135,-0.29351807,-6.1875,-14.765625,7.1875
96,0.24316406,-0.93463135,-0.29351807,-6.1875,-14.765625,7.1875
97,0.46240234,-0.9126587,-0.21881104,2.3125,-6.484375,3.71875
98,0.46240234,-0.9126587,-0.21881104,2.3125,-6.484375,3.71875
99,0.3852539,-0.8977661,-0.18902588,4.96875,-4.15625,-4.328125
100,0.3852539,-0.8977661,-0.18902588,4.96875,-4.15625,-4.328125
101,0.44311523,-0.89971924,-0.2131958,7.921875,5.0,-1.53125
102,0.44311523,-0.89971924,-0.2131958,7.921875,5.0,-1.53125
103,0.36694336,-0.8106079,-0.19659424,8.4375,5.0,-5.40625
104,0.36694336,-0.8106079,-0.19659424,8.4375,5.0,-5.40625
105,0.3215332,-0.80303955,-0.16607666,5.03125,11.40625,-12.140625
106,0.3215332,-0.80303955,-0.16607666,5.03125,11.40625,-12.140625
107,0.19970703,-0.76226807,-0.13897705,5.40625,21.546875,-18.234375
108,0.19970703,-0.76226807,-0.13897705,5.40625,21.546875,-18.234375
109,0.12451172,-0.75567627,-0.27764893,6.765625,34.546875,-19.9375
110,0.12451172,-0.75567627,-0.27764893,6.765625,34.546875,-19.9375
111,0.20019531,-0.80596924,-0.21002197,5.078125,35.75,-25.21875
112,0.20019531,-0.80596924,-0.21002197,5.078125,35.75,-25.21875
113,0.29077148,-0.9221802,-0.50982666,-7.375,13.171875,-21.078125
114,0.29077148,-0.9221802,-0.50982666,-7.375,13.171875,-21.078125
115,0.34448242,-0.96343994,-0.41778564,11.03125,17.296875,-1.84375
116,0.34448242,-0.96343994,-0.41778564,11.03125,17.296875,-1.84375
117,0.023925781,-1.0696411,-0.3772583,5.390625,12.0625,-0.09375
118,0.023925781,-1.0696411,-0.3772583,5.390625,12.0625,-0.09375
119,0.12182617,-1.0691528,-0.40533447,-1.5625,6.46875,2.390625
120,0.12182617,-1.0691528,-0.40533447,-1.5625,6.46875,2.390625
121,0.060791016,-0.923645,-0.39752197,2.296875,4.421875,9.640625
122,0.060791016,-0.923645,-0.39752197,2.296875,4.421875,9.640625
123,0.0063476562,-0.9685669,-0.40264893,-2.3125,2.375,10.171875
124,0.0063476562,-0.9685669,-0.40264893,-2.3125,2.375,10.171875
125,0.13696289,-0.8623657,-0.3538208,-3.625,-5.484375,15.15625
126,0.13696289,-0.8623657,-0.3538208,-3.625,-5.484375,15.15625
127,0.04248047,-0.8743286,-0.3604126,-3.4375,-7.421875,17.1875
128,0.04248047,-0.8743286,-0.3604126,-3.4375,-7.421875,17.1875
129,0.16552734,-0.9209595,-0.3460083,-8.5625,-18.421875,17.53125
130,0.16552734,-0.9209595,-0.3460083,-8.5625,-18.421875,17.53125
131,0.0625,-0.89923096,-0.29888916,-5.15625,-11.15625,23.5625
132,0.0625,-0.89923096,-0.29888916,-5.15625,-11.15625,23.5625
133,0.14282227,-0.862854,-0.44073486,-13.5,-29.9375,15.421875
134,0.14282227,-0.862854,-0.44073486,-13.5,-29.9375,15.421875
135,0.29296875,-0.8452759,-0.21954346,-1.875,-14.34375,17.265625
136,0.29296875,-0.8452759,-0.21954346,-1.875,-14.34375,17.265625
137,0.30664062,-0.81451416,-0.3123169,-0.75,-14.40625,14.265625
138,0.30664062,-0.81451416,-0.3123169,-0.75,-14.40625,14.265625
139,0.23364258,-0.8179321,-0.2456665,3.875,-0.140625,2.359375
140,0.23364258,-0.8179321,-0.2456665,3.875,-0.140625,2.359375
141,0.34277344,-0.82281494,-0.32232666,6.890625,-1.921875,-3.859375
142,0.34277344,-0.82281494,-0.32232666,6.890625,-1.921875,-3.859375
143,0.41088867,-0.8862915,-0.26275635,10.140625,-2.859375,-5.265625
144,0.41088867,-0.8862915,-0.26275635,10.140625,-2.859375,-5.265625
145,0.3408203,-0.88165283,-0.19708252,14.609375,3.78125,-6.796875
146,0.3408203,-0.88165283,-0.19708252,14.609375,3.78125,-6.796875
147,0.24316406,-0.80133057,-0.24884033,11.0625,4.15625,-12.515625
148,0.24316406,-0.80133057,-0.24884033,11.0625,4.15625,-12.515625
149,0.31567383,-0.8723755,-0.23394775,7.859375,10.15625,-17.796875
150,0.31567383,-0.8723755,-0.23394775,7.859375,10.15625,-17.796875
151,0.2109375,-0.82940674,-0.20172119,12.578125,17.71875,-17.796875
152,0.2109375,-0.82940674,-0.20172119,12.578125,17.71875,-17.796875
153,0.063964844,-0.7324829,-0.26715088,15.671875,42.15625,-23.015625
154,0.063964844,-0.7324829,-0.26715088,15.671875,42.15625,-23.015625
155,0.40600586,-0.74786377,-0.6218872,10.921875,8.890625,-10.796875
156,0.40600586,-0.74786377,-0.6218872,10.921875,8.890625,-10.796875
157,0.20410156,-0.89727783,-0.3328247,13.453125,6.796875,-1.75
158,0.20410156,-0.89727783,-0.3328247,13.453125,6.796875,-1.75
159,0.060546875,-1.0025024,-0.5598755,2.78125,0.453125,1.65625
160,0.060546875,-1.0025024,-0.5598755,2.78125,0.453125,1.65625
161,0.20581055,-0.9673462,-0.503479,-2.765625,-5.515625,7.40625
162,0.20581055,-0.9673462,-0.503479,-2.765625,-5.515625,7.40625
163,0.09765625,-1.0371704,-0.52349854,-4.203125,-5.203125,12.375
164,0.09765625,-1.0371704,-0.52349854,-4.203125,-5.203125,12.375
165,0.15039062,-1.0256958,-0.5264282,-4.90625,-10.0,14.0
166,0.15039062,-1.0256958,-0.5264282,-4.90625,-10.0,14.0
167,0.09082031,-0.9368286,-0.43951416,-8.40625,0.0625,17.96875
168,0.09082031,-0.9368286,-0.43951416,-8.40625,0.0625,17.96875
169,0.15161133,-0.8364868,-0.32183838,-0.78125,-0.609375,19.203125
170,0.15161133,-0.8364868,-0.32183838,-0.78125,-0.609375,19.203125
171,0.016113281,-0.7888794,-0.35308838,-7.109375,-1.609375,24.96875
172,0.016113281,-0.7888794,-0.35308838,-7.109375,-1.609375,24.96875
173,0.17602539,-0.7034302,-0.42608643,-9.46875,-15.40625,15.859375
174,0.17602539,-0.7034302,-0.42608643,-9.46875,-15.40625,15.859375
175,0.21459961,-0.7515259,-0.32110596,-12.859375,-21.546875,19.390625
176,0.21459961,-0.7515259,-0.32110596,-12.859375,-21.546875,19.390625
177,0.22949219,-0.7202759,-0.35723877,-0.421875,-6.546875,10.703125
178,0.22949219,-0.7202759,-0.35723877,-0.421875,-6.546875,10.703125
179,0.33374023,-0.8189087,-0.3045044,-2.703125,-6.5,8.78125
180,0.33374023,-0.8189087,-0.3045044,-2.703125,-6.5,8.78125
181,0.3762207,-0.8982544,-0.37652588,-3.765625,-0.359375,-5.15625
182,0.3762207,-0.8982544,-0.37652588,-3.765625,-0.359375,-5.15625
183,0.35961914,-0.881897,-0.3118286,3.015625,4.703125,-9.765625
184,0.35961914,-0.881897,-0.3118286,3.015625,4.703125,-9.765625
185,0.3708496,-0.9104614,-0.30645752,3.4375,2.328125,-13.015625
186,0.3708496,-0.9104614,-0.30645752,3.4375,2.328125,-13.015625
187,0.37524414,-0.88946533,-0.22857666,9.265625,8.796875,-12.53125
188,0.37524414,-0.88946533,-0.22857666,9.265625,8.796875,-12.53125
189,0.30566406,-0.83477783,-0.24591064,9.53125,9.046875,-18.765625
190,0.30566406,-0.83477783,-0.24591064,9.53125,9.046875,-18.765625
191,0.28271484,-0.81915283,-0.28570557,23.9375,13.0625,-15.390625
192,0.28271484,-0.81915283,-0.28570557,23.9375,13.0625,-15.390625
193,0.20336914,-0.75250244,-0.3184204,20.671875,17.25,-15.1875
194,0.20336914,-0.75250244,-0.3184204,20.671875,17.25,-15.1875
195,0.26782227,-0.7901001,-0.32598877,11.359375,10.765625,-16.4375
196,0.26782227,-0.7901001,-0.32598877,11.359375,10.765625,-16.4375
197,0.21606445,-0.79473877,-0.37335205,10.53125,9.296875,-12.40625
198,0.21606445,-0.79473877,-0.37335205,10.53125,9.296875,-12.40625
199,0.26391602,-0.8809204,-0.6189575,6.796875,-3.109375,-7.578125
200,0.26391602,-0.8809204,-0.6189575,6.796875,-3.109375,-7.578125
201,0.17114258,-0.9209595,-0.46929932,7.625,-4.46875,7.1875
202,0.17114258,-0.9209595,-0.46929932,7.625,-4.46875,7.1875
203,0.09423828,-0.9146118,-0.5298462,-4.78125,-6.015625,6.28125
204,0.09423828,-0.9146118,-0.5298462,-4.78125,-6.015625,6.28125
205,0.122802734,-0.9133911,-0.50494385,-7.984375,-7.421875,9.90625
206,0.122802734,-0.9133911,-0.50494385,-7.984375,-7.421875,9.90625
207,0.09667969,-0.8479614,-0.48077393,-7.671875,-3.84375,16.140625
208,0.09667969,-0.8479614,-0.48077393,-7.671875,-3.84375,16.140625
209,0.16552734,-0.8779907,-0.42633057,-6.96875,-7.578125,19.78125
210,0.16552734,-0.8779907,-0.42633057,-6.96875,-7.578125,19.78125
211,0.068115234,-0.8694458,-0.46832275,-12.703125,-2.328125,21.3125
212,0.068115234,-0.8694458,-0.46832275,-12.703125,-2.328125,21.3125
213,0.18261719,-0.786438,-0.4824829,-13.0,-7.890625,18.90625
214,0.18261719,-0.786438,-0.4824829,-13.0,-7.890625,18.90625
215,0.16113281,-0.75250244,-0.4727173,-15.84375,-10.265625,23.015625
216,0.16113281,-0.75250244,-0.4727173,-15.84375,-10.265625,23.015625
217,0.2109375,-0.70635986,-0.3665161,-5.375,-22.125,17.484375
218,0.2109375,-0.70635986,-0.3665161,-5.375,-22.125,17.484375
219,0.24536133,-0.7974243,-0.41314697,2.203125,-0.78125,3.671875
220,0.24536133,-0.7974243,-0.41314697,2.203125,-0.78125,3.671875
221,0.34814453,-0.8154907,-0.32281494,2.09375,-2.140625,11.0
222,0.34814453,-0.8154907,-0.32281494,2.09375,-2.140625,11.0
223,0.45117188,-0.83062744,-0.40582275,-3.21875,0.546875,-6.5625
224,0.45117188,-0.83062744,-0.40582275,-3.21875,0.546875,-6.5625
225,0.48901367,-0.72735596,-0.45977783,7.40625,-3.34375,-5.8125
226,0.48901367,-0.72735596,-0.45977783,7.40625,-3.34375,-5.8125
227,0.42260742,-0.93096924,-0.2822876,9.546875,-0.375,-5.234375
228,0.42260742,-0.93096924,-0.2822876,9.546875,-0.375,-5.234375
229,0.35595703,-0.7744751,-0.35162354,8.5625,0.828125,-8.109375
230,0.35595703,-0.7744751,-0.35162354,8.5625,0.828125,-8.109375
231,0.39111328,-0.77789307,-0.302063,5.578125,4.203125,-13.34375
232,0.39111328,-0.77789307,-0.302063,5.578125,4.203125,-13.34375
233,0.32788086,-0.7854614,-0.32061768,5.6875,5.546875,-16.6875
234,0.32788086,-0.7854614,-0.32061768,5.6875,5.546875,-16.6875
235,0.34155273,-0.7810669,-0.2715454,6.4375,5.6875,-17.734375
236,0.34155273,-0.7810669,-0.2715454,6.4375,5.6875,-17.734375
237,0.20678711,-0.80303955,-0.22174072,6.96875,15.78125,-20.171875
238,0.20678711,-0.80303955,-0.22174072,6.96875,15.78125,-20.171875
239,0.24584961,-0.7686157,-0.51031494,3.140625,7.609375,-17.796875
240,0.24584961,-0.7686157,-0.51031494,3.140625,7.609375,-17.796875
241,0.34204102,-0.8633423,-0.5940552,9.34375,0.390625,-11.953125
242,0.34204102,-0.8633423,-0.5940552,9.34375,0.390625,-11.953125
243,0.15112305,-0.95684814,-0.41363525,0.0,-2.84375,2.0
244,0.15112305,-0.95684814,-0.41363525,0.0,-2.84375,2.0
245,0.15185547,-0.9168091,-0.4385376,-5.171875,2.734375,2.8125
246,0.15185547,-0.9168091,-0.4385376,-5.171875,2.734375,2.8125
247,0.109375,-0.87628174,-0.5166626,-0.03125,-0.125,8.40625
248,0.109375,-0.87628174,-0.5166626,-0.03125,-0.125,8.40625
249,0.13061523,-0.9558716,-0.38409424,-1.40625,0.203125,12.390625
250,0.13061523,-0.9558716,-0.38409424,-1.40625,0.203125,12.390625
251,0.030761719,-0.84576416,-0.46295166,-0.953125,1.78125,15.84375
252,0.030761719,-0.84576416,-0.46295166,-0.953125,1.78125,15.84375
253,0.24902344,-0.7913208,-0.440979,-1.0625,-8.75,15.1875
254,0.24902344,-0.7913208,-0.440979,-1.0625,-8.75,15.1875
255,0.14697266,-0.881897,-0.38116455,-5.03125,-4.734375,19.40625
256,0.14697266,-0.881897,-0.38116455,-5.03125,-4.734375,19.40625
257,0.18774414,-0.7114868,-0.4734497,-8.671875,-20.421875,16.46875
258,0.18774414,-0.7114868,-0.4734497,-8.671875,-20.421875,16.46875
259,0.20288086,-0.70098877,-0.41778564,-6.546875,-21.34375,15.203125
260,0.20288086,-0.70098877,-0.41778564,-6.546875,-21.34375,15.203125
261,0.36401367,-0.704895,-0.51031494,10.546875,-14.296875,7.9375
262,0.36401367,-0.704895,-0.51031494,10.546875,-14.296875,7.9375
263,0.40551758,-0.86260986,-0.3320923,1.8125,-4.046875,5.640625
264,0.40551758,-0.86260986,-0.3320923,1.8125,-4.046875,5.640625
265,0.2866211,-0.8569946,-0.41656494,3.65625,4.390625,-6.484375
266,0.2866211,-0.8569946,-0.41656494,3.65625,4.390625,-6.484375
267,0.4975586,-0.7839966,-0.3670044,6.734375,2.0,-12.109375
268,0.4975586,-0.7839966,-0.3670044,6.734375,2.0,-12.109375
269,0.36523438,-0.8545532,-0.30108643,6.8125,0.34375,-12.15625
270,0.36523438,-0.8545532,-0.30108643,6.8125,0.34375,-12.15625
271,0.38378906,-0.800354,-0.32598877,3.921875,5.21875,-14.84375
272,0.38378906,-0.800354,-0.32598877,3.921875,5.21875,-14.84375
273,0.35498047,-0.7788696,-0.29083252,1.265625,4.734375,-18.328125
274,0.35498047,-0.7788696,-0.29083252,1.265625,4.734375,-18.328125
275,0.28320312,-0.82037354,-0.29815674,-0.03125,8.640625,-18.953125
276,0.28320312,-0.82037354,-0.29815674,-0.03125,8.640625,-18.953125
277,0.24682617,-0.8049927,-0.29180908,-2.265625,14.765625,-18.75
278,0.24682617,-0.8049927,-0.29180908,-2.265625,14.765625,-18.75
279,0.19335938,-0.8010864,-0.33966064,-4.0625,15.546875,-19.921875
280,0.19335938,-0.8010864,-0.33966064,-4.0625,15.546875,-19.921875
281,0.39379883,-0.7925415,-0.6057739,0.90625,2.65625,-9.9375
282,0.39379883,-0.7925415,-0.6057739,0.90625,2.65625,-9.9375
283,0.17456055,-0.8128052,-0.37457275,4.0625,5.3125,6.28125
284,0.17456055,-0.8128052,-0.37457275,4.0625,5.3125,6.28125
285,0.1430664,-1.060852,-0.44073486,-14.140625,-3.125,0.796875
286,0.1430664,-1.060852,-0.44073486,-14.140625,-3.125,0.796875
287,0.068603516,-0.925354,-0.51763916,-4.5625,-1.78125,9.171875
288,0.068603516,-0.925354,-0.51763916,-4.5625,-1.78125,9.171875
289,0.12036133,-0.91241455,-0.44903564,-0.109375,-3.96875,11.421875
290,0.12036133,-0.91241455,-0.44903564,-0.109375,-3.96875,11.421875
291,0.16040039,-0.9102173,-0.3526001,-1.625,0.15625,18.03125
292,0.16040039,-0.9102173,-0.3526001,-1.625,0.15625,18.03125
293,0.076171875,-0.83184814,-0.44952393,-1.71875,-0.484375,19.71875
294,0.076171875,-0.83184814,-0.44952393,-1.71875,-0.484375,19.71875
295,0.21972656,-0.78009033,-0.36358643,-3.140625,-6.078125,20.546875
296,0.21972656,-0.78009033,-0.36358643,-3.140625,-6.078125,20.546875
297,-0.020263672,-0.8440552,-0.37750244,-3.75,-1.9375,18.859375
298,-0.020263672,-0.8440552,-0.37750244,-3.75,-1.9375,18.859375
299,0.20532227,-0.73223877,-0.4981079,-4.5625,-9.96875,13.015625
300,0.20532227,-0.73223877,-0.4981079,-4.5625,-9.96875,13.015625
301,0.22387695,-0.79571533,-0.409729,-0.875,-14.0,13.4375
302,0.22387695,-0.79571533,-0.409729,-0.875,-14.0,13.4375
303,0.26611328,-0.82525635,-0.5081177,-1.234375,-18.328125,6.359375
304,0.26611328,-0.82525635,-0.5081177,-1.234375,-18.328125,6.359375
305,0.53027344,-0.73321533,-0.35943604,7.1875,-12.296875,11.3125
306,0.53027344,-0.73321533,-0.35943604,7.1875,-12.296875,11.3125
307,0.24194336,-0.8977661,-0.3118286,-2.484375,-7.40625,-5.265625
308,0.24194336,-0.8977661,-0.3118286,-2.484375,-7.40625,-5.265625
309,0.47045898,-0.8545532,-0.4024048,-0.375,-4.125,-4.96875
310,0.47045898,-0.8545532,-0.4024048,-0.375,-4.125,-4.96875
311,0.39575195,-0.83380127,-0.30474854,5.265625,-1.0625,-6.421875
312,0.39575195,-0.83380127,-0.30474854,5.265625,-1.0625,-6.421875
313,0.4416504,-0.85821533,-0.3027954,7.65625,0.546875,-5.8125
314,0.4416504,-0.85821533,-0.3027954,7.65625,0.546875,-5.8125
315,0.40966797,-0.7398071,-0.28985596,8.046875,0.171875,-7.0
316,0.40966797,-0.7398071,-0.28985596,8.046875,0.171875,-7.0
317,0.33325195,-0.772522,-0.29571533,3.5,3.78125,-9.078125
318,0.33325195,-0.772522,-0.29571533,3.5,3.78125,-9.078125
319,0.33984375,-0.77838135,-0.27911377,3.265625,7.046875,-7.9375
320,0.33984375,-0.77838135,-0.27911377,3.265625,7.046875,-7.9375
321,0.29638672,-0.7647095,-0.2937622,2.34375,12.234375,-11.296875
322,0.29638672,-0.7647095,-0.2937622,2.34375,12.234375,-11.296875
323,0.31274414,-0.81036377,-0.34088135,4.125,14.828125,-10.78125
324,0.31274414,-0.81036377,-0.34088135,4.125,14.828125,-10.78125
325,0.2841797,-0.83477783,-0.45758057,7.953125,7.765625,-10.078125
326,0.2841797,-0.83477783,-0.45758057,7.953125,7.765625,-10.078125
327,0.21386719,-0.82476807,-0.4109497,9.875,16.1875,-5.875
328,0.21386719,-0.82476807,-0.4109497,9.875,16.1875,-5.875
329,0.16992188,-0.9126587,-0.56915283,0.328125,7.78125,-2.84375
330,0.16992188,-0.9126587,-0.56915283,0.328125,7.78125,-2.84375
331,0.2565918,-0.86138916,-0.53448486,-1.09375,3.515625,5.4375
332,0.2565918,-0.86138916,-0.53448486,-1.09375,3.515625,5.4375
333,0.1303711,-0.89630127,-0.49273682,0.984375,2.375,7.703125
334,0.1303711,-0.89630127,-0.49273682,0.984375,2.375,7.703125
335,0.11328125,-0.8880005,-0.4944458,0.84375,2.46875,12.640625
336,0.11328125,-0.8880005,-0.4944458,0.84375,2.46875,12.640625
337,0.13183594,-0.81500244,-0.44683838,-2.265625,3.796875,15.859375
338,0.13183594,-0.81500244,-0.44683838,-2.265625,3.796875,15.859375
339,0.14379883,-0.77056885,-0.5132446,-1.78125,-3.859375,16.765625
340,0.14379883,-0.77056885,-0.5132446,-1.78125,-3.859375,16.765625
341,0.17114258,-0.7481079,-0.40509033,-2.078125,-6.84375,17.0
342,0.17114258,-0.7481079,-0.40509033,-2.078125,-6.84375,17.0
343,0.19702148,-0.7432251,-0.49957275,-0.53125,-16.296875,17.46875
344,0.19702148,-0.7432251,-0.49957275,-0.53125,-16.296875,17.46875
345,0.30493164,-0.76763916,-0.48077393,-1.890625,-22.71875,15.0
346,0.30493164,-0.76763916,-0.48077393,-1.890625,-22.71875,15.0
347,0.42749023,-0.7727661,-0.517395,5.9375,-11.015625,10.765625
348,0.42749023,-0.7727661,-0.517395,5.9375,-11.015625,10.765625
349,0.33569336,-0.89971924,-0.29180908,-1.78125,-7.296875,10.890625
350,0.33569336,-0.89971924,-0.29180908,-1.78125,-7.296875,10.890625
351,0.4050293,-0.7942505,-0.45806885,-2.796875,-6.046875,-0.0625
352,0.4050293,-0.7942505,-0.45806885,-2.796875,-6.046875,-0.0625
353,0.5361328,-0.7107544,-0.34747314,5.015625,-4.46875,-0.921875
354,0.5361328,-0.7107544,-0.34747314,5.015625,-4.46875,-0.921875
355,0.49536133,-0.8843384,-0.364563,-0.3125,-2.09375,-1.515625
356,0.49536133,-0.8843384,-0.364563,-0.3125,-2.09375,-1.515625
357,0.4519043,-0.6760864,-0.34527588,4.9375,-0.109375,-4.921875
358,0.4519043,-0.6760864,-0.34527588,4.9375,-0.109375,-4.921875
359,0.37524414,-0.73565674,-0.34796143,1.84375,-0.6875,-8.828125
360,0.37524414,-0.73565674,-0.34796143,1.84375,-0.6875,-8.828125
361,0.3894043,-0.7151489,-0.32061768,2.421875,6.921875,-11.421875
362,0.3894043,-0.7151489,-0.32061768,2.421875,6.921875,-11.421875
363,0.36083984,-0.690979,-0.3550415,3.75,4.84375,-12.265625
364,0.36083984,-0.690979,-0.3550415,3.75,4.84375,-12.265625
365,0.34033203,-0.78985596,-0.26837158,0.4375,13.015625,-16.578125
366,0.34033203,-0.78985596,-0.26837158,0.4375,13.015625,-16.578125
367,0.24707031,-0.84381104,-0.41363525,-2.953125,11.40625,-17.75
368,0.24707031,-0.84381104,-0.41363525,-2.953125,11.40625,-17.75
369,0.3881836,-0.8284302,-0.4746704,4.359375,7.859375,-16.578125
370,0.3881836,-0.8284302,-0.4746704,4.359375,7.859375,-16.578125
371,0.12426758,-0.87994385,-0.4944458,-2.546875,6.703125,-5.953125
372,0.12426758,-0.87994385,-0.4944458,-2.546875,6.703125,-5.953125
373,0.27905273,-0.85235596,-0.5093384,-5.625,4.203125,-6.4375
374,0.27905273,-0.85235596,-0.5093384,-5.625,4.203125,-6.4375
375,0.17919922,-0.84820557,-0.5894165,-0.40625,3.296875,2.3125
376,0.17919922,-0.84820557,-0.5894165,-0.40625,3.296875,2.3125
377,0.122558594,-0.88116455,-0.51446533,3.78125,4.21875,6.71875
378,0.122558594,-0.88116455,-0.51446533,3.78125,4.21875,6.71875
379,0.12792969,-0.83135986,-0.4668579,1.234375,5.640625,9.640625
380,0.12792969,-0.83135986,-0.4668579,1.234375,5.640625,9.640625
381,0.21313477,-0.7776489,-0.49420166,-1.6875,-1.890625,11.75
382,0.21313477,-0.7776489,-0.49420166,-1.6875,-1.890625,11.75
383,0.20776367,-0.8128052,-0.40020752,-4.265625,-5.078125,13.296875
384,0.20776367,-0.8128052,-0.40020752,-4.265625,-5.078125,13.296875
385,0.14379883,-0.74884033,-0.49102783,-5.84375,-15.578125,15.15625
386,0.14379883,-0.74884033,-0.49102783,-5.84375,-15.578125,15.15625
387,0.3017578,-0.7112427,-0.42486572,-8.1875,-33.203125,13.609375
388,0.3017578,-0.7112427,-0.42486572,-8.1875,-33.203125,13.609375
389,0.20800781,-0.7888794,-0.4883423,-6.203125,-21.21875,5.671875
390,0.20800781,-0.7888794,-0.4883423,-6.203125,-21.21875,5.671875
391,0.5949707,-0.8098755,-0.42144775,-6.859375,-23.703125,10.796875
392,0.5949707,-0.8098755,-0.42144775,-6.859375,-23.703125,10.796875
393,0.17236328,-1.0276489,-0.30792236,-9.125,-11.515625,-3.53125
394,0.17236328,-1.0276489,-0.30792236,-9.125,-11.515625,-3.53125
395,0.4230957,-0.8010864,-0.38360596,0.734375,-2.671875,-0.4375
396,0.4230957,-0.8010864,-0.38360596,0.734375,-2.671875,-0.4375
397,0.4284668,-0.8804321,-0.22857666,5.5,2.234375,-4.78125
398,0.4284668,-0.8804321,-0.22857666,5.5,2.234375,-4.78125
399,0.41235352,-0.8320923,-0.29107666,8.03125,4.84375,-4.578125
400,0.41235352,-0.8320923,-0.29107666,8.03125,4.84375,-4.578125
401,0.3972168,-0.7451782,-0.23956299,8.6875,5.953125,-8.234375
402,0.3972168,-0.7451782,-0.23956299,8.6875,5.953125,-8.234375
403,0.24829102,-0.7854614,-0.2390747,4.03125,10.59375,-15.59375
404,0.24829102,-0.7854614,-0.2390747,4.03125,10.59375,-15.59375
405,0.25634766,-0.80255127,-0.269104,5.0,13.390625,-18.703125
406,0.25634766,-0.80255127,-0.269104,5.0,13.390625,-18.703125
407,0.2734375,-0.7854614,-0.16705322,7.828125,17.90625,-17.625
408,0.2734375,-0.7854614,-0.16705322,7.828125,17.90625,-17.625
409,0.18603516,-0.8106079,-0.34552002,3.890625,23.90625,-19.109375
410,0.18603516,-0.8106079,-0.34552002,3.890625,23.90625,-19.109375
411,0.41625977,-0.8882446,-0.6995239,-1.109375,-11.953125,-12.140625
412,0.41625977,-0.8882446,-0.6995239,-1.109375,-11.953125,-12.140625
413,0.27978516,-0.9673462,-0.315979,7.65625,3.640625,9.40625
414,0.27978516,-0.9673462,-0.315979,7.65625,3.640625,9.40625
415,-0.025390625,-0.9158325,-0.42681885,-9.390625,15.34375,-0.34375
416,-0.025390625,-0.9158325,-0.42681885,-9.390625,15.34375,-0.34375
417,0.16235352,-0.83184814,-0.5496216,-5.515625,5.78125,7.984375
418,0.16235352,-0.83184814,-0.5496216,-5.515625,5.78125,7.984375
419,0.088378906,-0.9170532,-0.46295166,-4.40625,6.546875,6.171875
420,0.088378906,-0.9170532,-0.46295166,-4.40625,6.546875,6.171875
421,0.07763672,-0.8882446,-0.48272705,-3.953125,2.953125,13.796875
422,0.07763672,-0.8882446,-0.48272705,-3.953125,2.953125,13.796875
423,0.22021484,-0.8374634,-0.4439087,-1.546875,-5.09375,14.1875
424,0.22021484,-0.8374634,-0.4439087,-1.546875,-5.09375,14.1875
425,0.16870117,-0.862854,-0.3357544,-1.71875,-6.109375,17.90625
426,0.16870117,-0.862854,-0.3357544,-1.71875,-6.109375,17.90625
427,0.19946289,-0.82281494,-0.4451294,-3.25,-16.03125,18.390625
428,0.19946289,-0.82281494,-0.4451294,-3.25,-16.03125,18.390625
429,0.29711914,-0.7703247,-0.39996338,-1.8125,-26.15625,22.25
430,0.29711914,-0.7703247,-0.39996338,-1.8125,-26.15625,22.25
431,0.25195312,-0.7214966,-0.40997314,-4.6875,-30.6875,20.8125
432,0.25195312,-0.7214966,-0.40997314,-4.6875,-30.6875,20.8125
433,0.2602539,-0.6865845,-0.3093872,0.71875,1.375,1.359375
434,0.2602539,-0.6865845,-0.3093872,0.71875,1.375,1.359375
435,0.31176758,-0.88116455,-0.38970947,-8.4375,-8.6875,3.71875
436,0.31176758,-0.88116455,-0.38970947,-8.4375,-8.6875,3.71875
437,0.36743164,-0.95758057,-0.36505127,0.328125,9.46875,-7.640625
438,0.36743164,-0.95758057,-0.36505127,0.328125,9.46875,-7.640625
439,0.517334,-0.706604,-0.3604126,10.078125,-4.671875,-4.265625
440,0.517334,-0.706604,-0.3604126,10.078125,-4.671875,-4.265625
441,0.484375,-1.017395,-0.22174072,5.265625,0.171875,-6.296875
442,0.484375,-1.017395,-0.22174072,5.265625,0.171875,-6.296875
443,0.39282227,-0.7642212,-0.27496338,6.859375,4.3125,-8.84375
444,0.39282227,-0.7642212,-0.27496338,6.859375,4.3125,-8.84375
445,0.36889648,-0.7630005,-0.29034424,2.96875,7.71875,-12.75
446,0.36889648,-0.7630005,-0.29034424,2.96875,7.71875,-12.75
447,0.2536621,-0.76812744,-0.24835205,-0.34375,12.28125,-19.84375
448,0.2536621,-0.76812744,-0.24835205,-0.34375,12.28125,-19.84375
449,0.26489258,-0.75323486,-0.2793579,2.234375,15.390625,-19.703125
450,0.26489258,-0.75323486,-0.2793579,2.234375,15.390625,-19.703125
451,0.23706055,-0.72076416,-0.21539307,4.015625,20.03125,-16.875
452,0.23706055,-0.72076416,-0.21539307,4.015625,20.03125,-16.875
453,0.2631836,-0.8440552,-0.5730591,-0.5,10.234375,-12.390625
454,0.2631836,-0.8440552,-0.5730591,-0.5,10.234375,-12.390625
455,0.47924805,-0.9194946,-0.57159424,11.625,7.9375,-4.125
456,0.47924805,-0.9194946,-0.57159424,11.625,7.9375,-4.125
457,0.18579102,-1.097229,-0.44122314,-12.671875,-7.1875,8.109375
458,0.18579102,-1.097229,-0.44122314,-12.671875,-7.1875,8.109375
459,0.09716797,-1.0325317,-0.4043579,-9.0625,1.21875,6.53125
460,0.09716797,-1.0325317,-0.4043579,-9.0625,1.21875,6.53125
461,0.08203125,-0.8574829,-0.5149536,-3.5,4.21875,11.25
462,0.08203125,-0.8574829,-0.5149536,-3.5,4.21875,11.25
463,0.1394043,-0.86383057,-0.32965088,-7.671875,-2.15625,16.84375
464,0.1394043,-0.86383057,-0.32965088,-7.671875,-2.15625,16.84375
465,0.03149414,-0.78985596,-0.4229126,-7.671875,4.625,16.484375
466,0.03149414,-0.78985596,-0.4229126,-7.671875,4.625,16.484375
467,0.21728516,-0.7608032,-0.40509033,-10.09375,-7.90625,17.578125
468,0.21728516,-0.7608032,-0.40509033,-10.09375,-7.90625,17.578125
469,0.15649414,-0.7383423,-0.3430786,-5.34375,-4.8125,18.859375
470,0.15649414,-0.7383423,-0.3430786,-5.34375,-4.8125,18.859375
471,0.2175293,-0.75177,-0.519104,-2.421875,-15.078125,17.5625
472,0.2175293,-0.75177,-0.519104,-2.421875,-15.078125,17.5625
473,0.4099121,-0.737854,-0.40679932,11.21875,-6.453125,17.84375
474,0.4099121,-0.737854,-0.40679932,11.21875,-6.453125,17.84375
475,0.3642578,-0.9234009,-0.30841064,3.296875,-4.796875,9.921875
476,0.3642578,-0.9234009,-0.30841064,3.296875,-4.796875,9.921875
477,0.35107422,-0.83428955,-0.4060669,9.046875,1.984375,4.125
478,0.35107422,-0.83428955,-0.4060669,9.046875,1.984375,4.125
479,0.51171875,-0.8479614,-0.4180298,9.34375,-1.5,0.9375
480,0.51171875,-0.8479614,-0.4180298,9.34375,-1.5,0.9375
481,0.5515137,-0.9151001,-0.26934814,13.28125,7.390625,2.515625
482,0.5515137,-0.9151001,-0.26934814,13.28125,7.390625,2.515625
483,0.43652344,-0.7505493,-0.33062744,10.265625,6.703125,-1.453125
484,0.43652344,-0.7505493,-0.33062744,10.265625,6.703125,-1.453125
485,0.36889648,-0.7703247,-0.3147583,0.015625,4.765625,-6.296875
486,0.36889648,-0.7703247,-0.3147583,0.015625,4.765625,-6.296875
487,0.36865234,-0.737854,-0.3098755,-4.40625,2.078125,-9.3125
488,0.36865234,-0.737854,-0.3098755,-4.40625,2.078125,-9.3125
489,0.41430664,-0.72198486,-0.347229,-6.171875,0.859375,-11.578125
490,0.41430664,-0.72198486,-0.347229,-6.171875,0.859375,-11.578125
491,0.29370117,-0.75177,-0.23883057,-2.015625,5.71875,-12.34375
492,0.29370117,-0.75177,-0.23883057,-2.015625,5.71875,-12.34375
493,0.32080078,-0.7041626,-0.24395752,-0.96875,14.09375,-16.859375
494,0.32080078,-0.7041626,-0.24395752,-0.96875,14.09375,-16.859375
495,0.23535156,-0.7246704,-0.5147095,-2.515625,9.765625,-16.921875
496,0.23535156,-0.7246704,-0.5147095,-2.515625,9.765625,-16.921875
497,0.27905273,-0.72491455,-0.3538208,10.09375,13.140625,-15.640625
498,0.27905273,-0.72491455,-0.3538208,10.09375,13.140625,-15.640625
499,0.1418457,-1.0762329,-0.5523071,-11.203125,-1.09375,-6.484375
500,0.1418457,-1.0762329,-0.5523071,-11.203125,-1.09375,-6.484375
501,0.2434082,-1.0557251,-0.49639893,-2.4375,3.9375,-3.8125
502,0.2434082,-1.0557251,-0.49639893,-2.4375,3.9375,-3.8125
503,0.1171875,-0.96099854,-0.44781494,1.578125,-0.078125,3.8125
504,0.1171875,-0.96099854,-0.44781494,1.578125,-0.078125,3.8125
505,0.114990234,-0.98394775,-0.3945923,-1.78125,-2.453125,8.46875
506,0.114990234,-0.98394775,-0.3945923,-1.78125,-2.453125,8.46875
507,0.14868164,-0.864563,-0.39801025,0.03125,-3.5625,9.8125
508,0.14868164,-0.864563,-0.39801025,0.03125,-3.5625,9.8125
509,0.1809082,-0.8345337,-0.35577393,-0.484375,-5.03125,9.71875
510,0.1809082,-0.8345337,-0.35577393,-0.484375,-5.03125,9.71875
511,0.17407227,-0.7632446,-0.30963135,0.03125,-13.4375,15.125
512,0.17407227,-0.7632446,-0.30963135,0.03125,-13.4375,15.125
513,0.26660156,-0.7085571,-0.42364502,-0.28125,-28.25,18.046875
514,0.26660156,-0.7085571,-0.42364502,-0.28125,-28.25,18.046875
515,0.24487305,-0.6253052,-0.36505127,-0.296875,-30.71875,18.40625
516,0.24487305,-0.6253052,-0.36505127,-0.296875,-30.71875,18.40625
517,0.42358398,-0.71710205,-0.45220947,11.3125,-12.25,13.71875
518,0.42358398,-0.71710205,-0.45220947,11.3125,-12.25,13.71875
519,0.45776367,-0.9937134,-0.17315674,-1.34375,-9.96875,15.609375
520,0.45776367,-0.9937134,-0.17315674,-1.34375,-9.96875,15.609375
521,0.25805664,-0.9595337,-0.36016846,3.046875,4.65625,0.046875
522,0.25805664,-0.9595337,-0.36016846,3.046875,4.65625,0.046875
523,0.55908203,-0.72247314,-0.41046143,6.5625,2.703125,-1.53125
524,0.55908203,-0.72247314,-0.41046143,6.5625,2.703125,-1.53125
525,0.47045898,-0.975647,-0.2341919,6.09375,3.484375,-4.296875
526,0.47045898,-0.975647,-0.2341919,6.09375,3.484375,-4.296875
527,0.5119629,-0.7854614,-0.23931885,2.609375,7.84375,-11.375
528,0.5119629,-0.7854614,-0.23931885,2.609375,7.84375,-11.375
529,0.2824707,-0.7781372,-0.3069458,-2.390625,9.796875,-17.328125
530,0.2824707,-0.7781372,-0.3069458,-2.390625,9.796875,-17.328125
531,0.38964844,-0.7371216,-0.32037354,6.375,9.390625,-17.125
532,0.38964844,-0.7371216,-0.32037354,6.375,9.390625,-17.125
533,0.23535156,-0.6795044,-0.23175049,8.25,16.109375,-16.21875
534,0.23535156,-0.6795044,-0.23175049,8.25,16.109375,-16.21875
535,0.110839844,-0.6951294,-0.13848877,5.890625,24.5625,-17.921875
536,0.110839844,-0.6951294,-0.13848877,5.890625,24.5625,-17.921875
537,0.32177734,-0.66241455,-0.7842407,1.265625,-3.296875,-12.75
538,0.32177734,-0.66241455,-0.7842407,1.265625,-3.296875,-12.75
539,0.53637695,-0.91851807,-0.3508911,5.953125,16.296875,-3.9375
540,0.53637695,-0.91851807,-0.3508911,5.953125,16.296875,-3.9375
541,-0.0053710938,-1.0838013,-0.5432739,-7.0625,7.421875,-5.171875
542,-0.0053710938,-1.0838013,-0.5432739,-7.0625,7.421875,-5.171875
543,0.30786133,-0.9151001,-0.5305786,-0.34375,-4.234375,5.953125
544,0.30786133,-0.9151001,-0.5305786,-0.34375,-4.234375,5.953125
545,0.099121094,-0.9336548,-0.51519775,-0.875,-5.109375,3.9375
546,0.099121094,-0.9336548,-0.51519775,-0.875,-5.109375,3.9375
547,0.12207031,-0.95269775,-0.50982666,-2.71875,4.65625,5.4375
548,0.12207031,-0.95269775,-0.50982666,-2.71875,4.65625,5.4375
549,0.115234375,-0.79571533,-0.4336548,-3.109375,-0.75,8.0
550,0.115234375,-0.79571533,-0.4336548,-3.109375,-0.75,8.0
551,0.07055664,-0.78375244,-0.5154419,-1.390625,-8.8125,9.625
552,0.07055664,-0.78375244,-0.5154419,-1.390625,-8.8125,9.625
553,0.21044922,-0.7710571,-0.4006958,-5.796875,-7.890625,7.890625
554,0.21044922,-0.7710571,-0.4006958,-5.796875,-7.890625,7.890625
555,0.1694336,-0.80181885,-0.3640747,-0.5,-6.203125,9.65625
556,0.1694336,-0.80181885,-0.3640747,-0.5,-6.203125,9.65625
557,0.12402344,-0.8086548,-0.26275635,-6.109375,-9.46875,9.046875
558,0.12402344,-0.8086548,-0.26275635,-6.109375,-9.46875,9.046875
559,0.12548828,-0.65631104,-0.63238525,-6.5,-9.421875,8.359375
560,0.12548828,-0.65631104,-0.63238525,-6.5,-9.421875,8.359375
561,0.7597656,-0.8257446,-0.4668579,-3.984375,-14.03125,7.96875
562,0.7597656,-0.8257446,-0.4668579,-3.984375,-14.03125,7.96875
563,0.09033203,-1.0986938,-0.28277588,-4.765625,-11.15625,4.359375
564,0.09033203,-1.0986938,-0.28277588,-4.765625,-11.15625,4.359375
565,0.49023438,-0.83551025,-0.39849854,-3.921875,-17.28125,6.71875
566,0.49023438,-0.83551025,-0.39849854,-3.921875,-17.28125,6.71875
567,0.37475586,-0.8682251,-0.22442627,2.765625,-2.53125,2.109375
568,0.37475586,-0.8682251,-0.22442627,2.765625,-2.53125,2.109375
569,0.5407715,-0.89508057,-0.22906494,6.546875,9.234375,2.0625
570,0.5407715,-0.89508057,-0.22906494,6.546875,9.234375,2.0625
571,0.34179688,-0.73931885,-0.32696533,2.0625,13.140625,-2.453125
572,0.34179688,-0.73931885,-0.32696533,2.0625,13.140625,-2.453125
573,0.25732422,-0.7962036,-0.29449463,1.5625,9.140625,-7.015625
574,0.25732422,-0.7962036,-0.29449463,1.5625,9.140625,-7.015625
575,0.38134766,-0.677063,-0.3250122,3.53125,-2.03125,-4.46875
576,0.38134766,-0.677063,-0.3250122,3.53125,-2.03125,-4.46875
577,0.21948242,-0.723938,-0.1362915,5.578125,13.8125,-8.5625
578,0.21948242,-0.723938,-0.1362915,5.578125,13.8125,-8.5625
579,0.1184082,-0.7293091,-0.13482666,4.1875,37.328125,-17.390625
580,0.1184082,-0.7293091,-0.13482666,4.1875,37.328125,-17.390625
581,0.30078125,-0.72125244,-0.80352783,-3.375,5.265625,-10.890625
582,0.30078125,-0.72125244,-0.80352783,-3.375,5.265625,-10.890625
583,0.35327148,-0.82281494,-0.5418091,8.375,12.921875,-4.03125
584,0.35327148,-0.82281494,-0.5418091,8.375,12.921875,-4.03125
585,0.24658203,-1.2444458,-0.44781494,-20.640625,-11.234375,-8.375
586,0.24658203,-1.2444458,-0.44781494,-20.640625,-11.234375,-8.375
587,0.18823242,-0.9014282,-0.5010376,2.859375,-5.015625,11.84375
588,0.18823242,-0.9014282,-0.5010376,2.859375,-5.015625,11.84375
589,0.10864258,-0.9187622,-0.5979614,7.234375,3.625,6.5
590,0.10864258,-0.9187622,-0.5979614,7.234375,3.625,6.5
591,0.0793457,-0.83673096,-0.40948486,7.0625,0.15625,13.84375
592,0.0793457,-0.83673096,-0.40948486,7.0625,0.15625,13.84375
593,0.024658203,-0.7871704,-0.6638794,21.15625,-16.609375,13.8125
594,0.024658203,-0.7871704,-0.6638794,21.15625,-16.609375,13.8125
595,0.3815918,-0.6983032,-0.47198486,10.765625,-17.140625,14.4375
596,0.3815918,-0.6983032,-0.47198486,10.765625,-17.140625,14.4375
597,0.13354492,-0.8115845,-0.36505127,5.28125,-20.125,19.765625
598,0.13354492,-0.8115845,-0.36505127,5.28125,-20.125,19.765625
599,0.29418945,-0.753479,-0.28009033,-3.3125,-3.78125,14.15625
600,0.29418945,-0.753479,-0.28009033,-3.3125,-3.78125,14.15625
601,0.17895508,-0.6987915,-0.36212158,-26.28125,4.609375,10.78125
602,0.17895508,-0.6987915,-0.36212158,-26.28125,4.609375,10.78125
603,0.5571289,-0.7695923,-0.60772705,-34.59375,1.78125,-5.53125
604,0.5571289,-0.7695923,-0.60772705,-34.59375,1.78125,-5.53125
605,0.25146484,-0.9668579,-0.34503174,-20.625,-4.984375,1.078125
606,0.25146484,-0.9668579,-0.34503174,-20.625,-4.984375,1.078125
607,0.29345703,-0.93218994,-0.46832275,13.8125,-20.890625,1.5
608,0.29345703,-0.93218994,-0.46832275,13.8125,-20.890625,1.5
609,0.49536133,-0.6958618,-0.18292236,7.15625,-13.78125,3.703125
610,0.49536133,-0.6958618,-0.18292236,7.15625,-13.78125,3.703125
611,0.3984375,-0.96710205,-0.17120361,5.8125,7.890625,-3.265625
612,0.3984375,-0.96710205,-0.17120361,5.8125,7.890625,-3.265625
613,0.5187988,-0.756897,-0.16265869,10.140625,25.265625,-0.484375
614,0.5187988,-0.756897,-0.16265869,10.140625,25.265625,-0.484375
615,0.35351562,-0.7695923,-0.4421997,-10.3125,7.71875,-8.359375
616,0.35351562,-0.7695923,-0.4421997,-10.3125,7.71875,-8.359375
617,0.38085938,-0.76641846,-0.31329346,7.484375,1.4375,-9.140625
618,0.38085938,-0.76641846,-0.31329346,7.484375,1.4375,-9.140625
619,0.31323242,-0.7124634,-0.23370361,9.984375,-9.765625,-1.609375
620,0.31323242,-0.7124634,-0.23370361,9.984375,-9.765625,-1.609375
621,0.21166992,-0.71954346,-0.2288208,6.34375,-6.734375,-5.5
622,0.21166992,-0.71954346,-0.2288208,6.34375,-6.734375,-5.5
623,0.31298828,-0.6946411,-0.11993408,3.1875,26.21875,-14.234375
624,0.31298828,-0.6946411,-0.11993408,3.1875,26.21875,-14.234375
625,0.35595703,-0.7112427,-0.64190674,6.03125,8.953125,-6.28125
626,0.35595703,-0.7112427,-0.64190674,6.03125,8.953125,-6.28125
627,0.4177246,-0.77423096,-0.40289307,5.203125,11.15625,-3.015625
628,0.4177246,-0.77423096,-0.40289307,5.203125,11.15625,-3.015625
629,0.047607422,-1.1755981,-0.6296997,-8.515625,-5.140625,-2.453125
630,0.047607422,-1.1755981,-0.6296997,-8.515625,-5.140625,-2.453125
631,0.36743164,-0.88409424,-0.411438,14.21875,-4.609375,9.859375
632,0.36743164,-0.88409424,-0.411438,14.21875,-4.609375,9.859375
633,0.099121094,-1.0750122,-0.5899048,5.53125,0.921875,4.609375
634,0.099121094,-1.0750122,-0.5899048,5.53125,0.921875,4.609375
635,0.27172852,-1.0005493,-0.42608643,1.09375,1.625,9.453125
636,0.27172852,-1.0005493,-0.42608643,1.09375,1.625,9.453125
637,0.17871094,-0.8098755,-0.50616455,-3.953125,-4.140625,7.71875
638,0.17871094,-0.8098755,-0.50616455,-3.953125,-4.140625,7.71875
639,0.21484375,-0.74713135,-0.42364502,-2.390625,-6.875,13.078125
640,0.21484375,-0.74713135,-0.42364502,-2.390625,-6.875,13.078125
641,0.20922852,-0.7349243,-0.37139893,-3.8125,-16.734375,15.8125
642,0.20922852,-0.7349243,-0.37139893,-3.8125,-16.734375,15.8125
643,0.27490234,-0.6397095,-0.3994751,-3.53125,-23.21875,12.140625
644,0.27490234,-0.6397095,-0.3994751,-3.53125,-23.21875,12.140625
645,0.06274414,-0.6836548,-0.42388916,-2.390625,-14.515625,3.015625
646,0.06274414,-0.6836548,-0.42388916,-2.390625,-14.515625,3.015625
647,0.7001953,-0.7996216,-0.46417236,-3.234375,-14.859375,9.203125
648,0.7001953,-0.7996216,-0.46417236,-3.234375,-14.859375,9.203125
649,0.3088379,-0.99468994,-0.3008423,1.703125,-1.734375,-5.359375
650,0.3088379,-0.99468994,-0.3008423,1.703125,-1.734375,-5.359375
651,0.53637695,-0.68170166,-0.45025635,-0.53125,-7.609375,-0.203125
652,0.53637695,-0.68170166,-0.45025635,-0.53125,-7.609375,-0.203125
653,0.5197754,-0.913147,-0.2822876,-2.859375,-3.515625,-4.59375
654,0.5197754,-0.913147,-0.2822876,-2.859375,-3.515625,-4.59375
655,0.5275879,-0.817688,-0.29742432,6.546875,-0.140625,-1.578125
656,0.5275879,-0.817688,-0.29742432,6.546875,-0.140625,-1.578125
657,0.45825195,-0.7695923,-0.35650635,3.75,-1.0625,-4.390625
658,0.45825195,-0.7695923,-0.35650635,3.75,-1.0625,-4.390625
659,0.39990234,-0.79351807,-0.29034424,3.03125,3.265625,-5.3125
660,0.39990234,-0.79351807,-0.29034424,3.03125,3.265625,-5.3125
661,0.40942383,-0.7139282,-0.26739502,3.09375,4.484375,-5.203125
662,0.40942383,-0.7139282,-0.26739502,3.09375,4.484375,-5.203125
663,0.30737305,-0.7424927,-0.2444458,4.59375,12.59375,-7.84375
664,0.30737305,-0.7424927,-0.2444458,4.59375,12.59375,-7.84375
665,0.24243164,-0.6782837,-0.26202393,2.0625,21.71875,-11.03125
666,0.24243164,-0.6782837,-0.26202393,2.0625,21.71875,-11.03125
667,0.2163086,-0.6314087,-0.44049072,8.75,31.640625,-11.90625
668,0.2163086,-0.6314087,-0.44049072,8.75,31.640625,-11.90625
669,0.39086914,-0.71173096,-0.5835571,18.46875,13.53125,-12.0
670,0.39086914,-0.71173096,-0.5835571,18.46875,13.53125,-12.0
671,0.2241211,-0.94366455,-0.59161377,6.78125,10.390625,1.375
672,0.2241211,-0.94366455,-0.59161377,6.78125,10.390625,1.375
673,0.43896484,-0.973938,-0.47174072,-1.359375,1.734375,-0.828125
674,0.43896484,-0.973938,-0.47174072,-1.359375,1.734375,-0.828125
675,0.18432617,-0.8862915,-0.62945557,3.0,2.890625,2.421875
676,0.18432617,-0.8862915,-0.62945557,3.0,2.890625,2.421875
677,0.15234375,-0.9771118,-0.49639893,-4.375,-3.078125,6.640625
678,0.15234375,-0.9771118,-0.49639893,-4.375,-3.078125,6.640625
679,0.13769531,-0.8562622,-0.4956665,-8.234375,0.9375,8.5625
680,0.13769531,-0.8562622,-0.4956665,-8.234375,0.9375,8.5625
681,0.19750977,-0.7949829,-0.4685669,-7.375,-8.0,10.265625
682,0.19750977,-0.7949829,-0.4685669,-7.375,-8.0,10.265625
683,0.15209961,-0.7576294,-0.39068604,-9.84375,-9.5625,13.8125
684,0.15209961,-0.7576294,-0.39068604,-9.84375,-9.5625,13.8125
685,0.18310547,-0.68536377,-0.46051025,-8.546875,-19.171875,14.703125
686,0.18310547,-0.68536377,-0.46051025,-8.546875,-19.171875,14.703125
687,0.34057617,-0.6140747,-0.39361572,-6.953125,-30.296875,14.890625
688,0.34057617,-0.6140747,-0.39361572,-6.953125,-30.296875,14.890625
689,0.14648438,-0.6890259,-0.5823364,-5.796875,-28.140625,10.046875
690,0.14648438,-0.6890259,-0.5823364,-5.796875,-28.140625,10.046875
691,0.76660156,-0.84820557,-0.30181885,-4.375,-19.296875,10.71875
692,0.76660156,-0.84820557,-0.30181885,-4.375,-19.296875,10.71875
693,0.1081543,-0.9841919,-0.3394165,2.96875,-6.8125,-1.59375
694,0.1081543,-0.9841919,-0.3394165,2.96875,-6.8125,-1.59375
695,0.66381836,-0.6983032,-0.4817505,1.59375,-11.375,4.75
696,0.66381836,-0.6983032,-0.4817505,1.59375,-11.375,4.75
697,0.5349121,-0.9314575,-0.16412354,3.796875,2.875,0.0625
698,0.5349121,-0.9314575,-0.16412354,3.796875,2.875,0.0625
699,0.47558594,-0.7510376,-0.33258057,7.921875,2.703125,-1.234375
700,0.47558594,-0.7510376,-0.33258057,7.921875,2.703125,-1.234375
701,0.49365234,-0.7793579,-0.26104736,5.234375,7.09375,-5.953125
702,0.49365234,-0.7793579,-0.26104736,5.234375,7.09375,-5.953125
703,0.4309082,-0.7647095,-0.27374268,7.296875,10.53125,-8.234375
704,0.4309082,-0.7647095,-0.27374268,7.296875,10.53125,-8.234375
705,0.41601562,-0.7280884,-0.3291626,5.5625,6.890625,-10.0
706,0.41601562,-0.7280884,-0.3291626,5.5625,6.890625,-10.0
707,0.37280273,-0.7498169,-0.2029419,4.078125,12.53125,-13.578125
708,0.37280273,-0.7498169,-0.2029419,4.078125,12.53125,-13.578125
709,0.23120117,-0.70025635,-0.13116455,1.828125,25.71875,-15.5
710,0.23120117,-0.70025635,-0.13116455,1.828125,25.71875,-15.5
711,0.37280273,-0.70318604,-0.7283325,-2.015625,11.34375,-13.046875
712,0.37280273,-0.70318604,-0.7283325,-2.015625,11.34375,-13.046875
713,0.45825195,-0.7451782,-0.32647705,9.953125,17.234375,-10.671875
714,0.45825195,-0.7451782,-0.32647705,9.953125,17.234375,-10.671875
715,0.026123047,-1.0562134,-0.58917236,-13.8125,4.34375,-7.796875
716,0.026123047,-1.0562134,-0.58917236,-13.8125,4.34375,-7.796875
717,0.3659668,-0.8987427,-0.4529419,-17.578125,-3.796875,-7.265625
718,0.3659668,-0.8987427,-0.4529419,-17.578125,-3.796875,-7.265625
719,0.14526367,-0.8843384,-0.6436157,-0.34375,-3.703125,7.515625
720,0.14526367,-0.8843384,-0.6436157,-0.34375,-3.703125,7.515625
721,0.12231445,-0.99542236,-0.362854,-0.125,-4.65625,7.6875
722,0.12231445,-0.99542236,-0.362854,-0.125,-4.65625,7.6875
723,0.19921875,-0.8689575,-0.45635986,0.65625,4.484375,6.109375
724,0.19921875,-0.8689575,-0.45635986,0.65625,4.484375,6.109375
725,0.14282227,-0.8623657,-0.36016846,-1.203125,2.5,6.5
726,0.14282227,-0.8623657,-0.36016846,-1.203125,2.5,6.5
727,0.19042969,-0.866272,-0.38482666,-9.421875,-2.375,7.0625
728,0.19042969,-0.866272,-0.38482666,-9.421875,-2.375,7.0625
729,0.19555664,-0.76885986,-0.41973877,-15.375,-11.625,8.890625
730,0.19555664,-0.76885986,-0.41973877,-15.375,-11.625,8.890625
731,0.13476562,-0.769104,-0.31500244,-17.859375,-19.5,7.953125
732,0.13476562,-0.769104,-0.31500244,-17.859375,-19.5,7.953125
733,0.10180664,-0.79229736,-0.4282837,-19.703125,-14.296875,1.203125
734,0.10180664,-0.79229736,-0.4282837,-19.703125,-14.296875,1.203125
735,0.6254883,-0.84552,-0.380188,-21.984375,-18.90625,2.921875
736,0.6254883,-0.84552,-0.380188,-21.984375,-18.90625,2.921875
737,0.2709961,-1.0183716,-0.16998291,3.984375,9.1875,0.015625
738,0.2709961,-1.0183716,-0.16998291,3.984375,9.1875,0.015625
739,0.3894043,-0.74835205,-0.35308838,0.1875,-1.046875,-0.828125
740,0.3894043,-0.74835205,-0.35308838,0.1875,-1.046875,-0.828125
741,0.4794922,-0.95318604,-0.2510376,4.6875,1.953125,3.484375
742,0.4794922,-0.95318604,-0.2510376,4.6875,1.953125,3.484375
743,0.45776367,-0.8579712,-0.23468018,6.65625,3.859375,1.65625
744,0.45776367,-0.8579712,-0.23468018,6.65625,3.859375,1.65625
745,0.39697266,-0.76397705,-0.29962158,9.84375,2.71875,1.5625
746,0.39697266,-0.76397705,-0.29962158,9.84375,2.71875,1.5625
747,0.43847656,-0.815979,-0.21734619,5.90625,3.46875,-1.109375
748,0.43847656,-0.815979,-0.21734619,5.90625,3.46875,-1.109375
749,0.33764648,-0.7769165,-0.2288208,8.421875,5.8125,-2.25
750,0.33764648,-0.7769165,-0.2288208,8.421875,5.8125,-2.25
751,0.30688477,-0.7720337,-0.19952393,8.703125,12.75,-6.796875
752,0.30688477,-0.7720337,-0.19952393,8.703125,12.75,-6.796875
753,0.18164062,-0.6929321,-0.17242432,12.390625,19.703125,-9.796875
754,0.18164062,-0.6929321,-0.17242432,12.390625,19.703125,-9.796875
755,0.076416016,-0.6626587,-0.3477173,8.59375,32.375,-13.34375
756,0.076416016,-0.6626587,-0.3477173,8.59375,32.375,-13.34375
757,0.6135254,-0.7090454,-0.8208618,5.34375,-23.578125,-4.546875
758,0.6135254,-0.7090454,-0.8208618,5.34375,-23.578125,-4.546875
759,0.14550781,-1.0579224,-0.2793579,4.734375,6.453125,8.84375
