sample_no,accel_x,accel_y,accel_z,gyro_x,gyro_y,gyro_z
0,-0.100097656,-0.9829712,-0.20172119,8.671875,-15.015625,16.203125
1,0.011962891,-0.97369385,-0.21417236,8.625,-6.0,19.078125
2,0.07739258,-1.0088501,-0.22296143,10.4375,-0.515625,16.78125
3,0.013916016,-1.0637817,-0.23590088,6.796875,1.09375,6.46875
4,-0.095947266,-1.0701294,-0.23199463,-0.328125,4.5,0.40625
5,-0.048828125,-0.99298096,-0.21929932,-2.953125,0.578125,-0.125
6,0.059326172,-0.9302368,-0.22564697,-3.75,2.734375,0.359375
7,0.07128906,-0.8897095,-0.20953369,-2.4375,4.96875,-0.5
8,-0.0012207031,-0.92559814,-0.25079346,-4.4375,2.453125,-0.828125
9,-0.01977539,-0.9373169,-0.2420044,-6.4375,0.6875,-2.15625
10,-0.0053710938,-0.95513916,-0.18487549,-2.28125,0.484375,0.21875
11,0.011230469,-0.954895,-0.2041626,-7.328125,-2.171875,2.875
12,-0.015380859,-0.97613525,-0.23468018,-12.375,-7.84375,0.125
13,0.010986328,-0.95880127,-0.16192627,-2.203125,-2.515625,1.1875
14,0.0087890625,-0.95269775,-0.1716919,1.78125,-3.375,5.0
15,-0.0029296875,-0.98883057,-0.17926025,-5.65625,-6.625,3.078125
16,0.009277344,-1.0044556,-0.13922119,-5.421875,-4.78125,2.3125
17,0.036376953,-0.9883423,-0.13848877,-4.359375,-5.734375,5.015625
18,0.048339844,-0.9631958,-0.13995361,-1.46875,-2.125,7.15625
19,0.09838867,-0.8994751,-0.09136963,-0.28125,-0.53125,5.46875
20,0.10961914,-0.8706665,-0.08258057,-0.984375,-5.953125,1.171875
21,0.079833984,-0.94488525,-0.08355713,-1.484375,-3.84375,-0.4375
22,0.017333984,-1.0613403,-0.101379395,-3.328125,-3.4375,0.5
23,0.030029297,-1.0315552,-0.08526611,-2.0,-2.078125,4.734375
24,0.119628906,-0.9417114,-0.08795166,0.953125,3.75,6.0
25,0.16015625,-0.8838501,-0.101623535,4.53125,3.984375,4.609375
26,0.13842773,-0.84869385,-0.077697754,5.03125,1.03125,3.015625
27,0.04638672,-0.9373169,-0.06915283,4.859375,-0.03125,3.765625
28,-0.024658203,-1.0278931,-0.1104126,3.109375,4.9375,2.21875
29,-0.00048828125,-1.0042114,-0.11505127,6.671875,5.609375,0.25
30,0.11401367,-0.986145,-0.13897705,7.875,7.0625,1.484375
31,0.17236328,-1.000061,-0.19488525,4.5,3.1875,0.953125
32,0.15673828,-1.031311,-0.20562744,4.28125,3.328125,2.453125
33,0.14697266,-0.9690552,-0.19122314,10.421875,4.484375,5.59375
34,0.1418457,-0.8569946,-0.21368408,12.78125,5.0,5.015625
35,0.11010742,-0.8110962,-0.23175049,5.015625,-1.59375,-0.125
36,0.083740234,-0.88897705,-0.26055908,3.078125,-8.765625,-6.640625
37,0.036865234,-1.0115356,-0.28863525,2.953125,-2.703125,-5.828125
38,0.063964844,-1.0147095,-0.2949829,8.9375,5.59375,-0.84375
39,0.10644531,-0.9546509,-0.23931885,10.453125,6.84375,1.734375
40,0.08251953,-0.897522,-0.25054932,5.078125,4.796875,0.40625
41,0.07519531,-0.88165283,-0.2979126,0.0,3.1875,-2.8125
42,0.087402344,-0.9595337,-0.29058838,-1.03125,0.234375,-3.875
43,0.087646484,-1.02594,-0.25445557,2.765625,-1.03125,-0.78125
44,0.0637207,-1.0283813,-0.23321533,3.171875,3.5625,2.328125
45,0.03149414,-0.9273071,-0.23101807,3.34375,6.40625,-0.234375
46,0.022949219,-0.9092407,-0.26519775,-3.796875,1.3125,-5.75
47,0.04711914,-0.9180298,-0.26519775,-1.625,1.6875,-6.671875
48,0.045898438,-0.96881104,-0.2654419,0.625,5.078125,-2.203125
49,0.05517578,-0.9273071,-0.25567627,-1.140625,9.65625,0.125
50,0.00024414062,-0.8862915,-0.3123169,-0.71875,6.9375,-0.0625
51,-0.012451172,-0.8855591,-0.32891846,-1.953125,6.0,-1.71875
52,0.008544922,-0.90509033,-0.31915283,-1.953125,5.671875,-1.125
53,0.015380859,-0.9819946,-0.31817627,-0.34375,2.859375,1.640625
54,0.055664062,-1.0332642,-0.29766846,-3.46875,0.734375,0.515625
55,0.0048828125,-0.9898071,-0.24884033,-0.671875,1.875,0.859375
56,0.020751953,-0.9343872,-0.2798462,-0.234375,-1.296875,1.390625
57,0.025878906,-0.86846924,-0.28619385,-1.78125,-5.484375,1.328125
58,-0.0234375,-0.8604126,-0.30010986,-2.953125,-2.96875,2.6875
59,-0.011230469,-0.89556885,-0.28253174,-1.921875,-6.140625,0.578125
60,0.007080078,-0.9558716,-0.2571411,1.046875,-7.0,1.125
61,-0.013183594,-0.9907837,-0.26031494,0.171875,-5.78125,3.890625
62,0.009765625,-0.98272705,-0.2522583,-0.234375,-6.84375,4.46875
63,0.016601562,-0.95880127,-0.24029541,2.625,-7.0625,3.84375
64,0.009765625,-0.9651489,-0.2871704,1.9375,-7.453125,3.359375
65,0.028320312,-0.95684814,-0.32110596,-1.140625,-12.578125,2.59375
66,0.114990234,-0.92974854,-0.25030518,3.1875,-6.90625,6.84375
67,0.17944336,-0.864563,-0.23150635,5.65625,0.46875,10.109375
68,0.13452148,-0.8352661,-0.2925415,2.3125,-3.203125,4.96875
69,0.12182617,-0.8442993,-0.2810669,0.34375,-0.875,-0.28125
70,0.16430664,-0.9390259,-0.28692627,3.453125,0.578125,-0.046875
71,0.22241211,-0.99346924,-0.28009033,-0.171875,-1.109375,1.375
72,0.18359375,-0.9585571,-0.26080322,-1.015625,-3.671875,5.21875
73,0.10961914,-0.91900635,-0.2732544,0.828125,1.140625,7.015625
74,0.07470703,-0.8779907,-0.2991333,0.796875,3.015625,1.484375
75,0.08691406,-0.89263916,-0.30230713,1.578125,0.8125,-3.9375
76,0.12866211,-0.9624634,-0.2937622,-0.140625,1.140625,-2.015625
77,0.16015625,-0.98883057,-0.2642212,-1.21875,1.46875,1.875
78,0.14770508,-0.9451294,-0.26519775,-3.53125,-2.265625,2.015625
79,0.10498047,-0.8936157,-0.27716064,-4.59375,-6.28125,-1.3125
80,0.061035156,-0.91656494,-0.26837158,-3.359375,-4.609375,-2.171875
81,0.033203125,-0.9417114,-0.2637329,-1.296875,-2.171875,-1.71875
82,0.06298828,-0.93096924,-0.27471924,0.203125,-1.234375,-1.1875
83,0.1003418,-0.94976807,-0.2576294,-1.859375,-1.8125,-1.28125
84,0.099365234,-0.9607544,-0.24395752,-1.390625,-2.65625,-1.453125
85,0.07788086,-0.96221924,-0.26080322,-1.796875,-2.34375,1.171875
86,0.096191406,-0.91534424,-0.25421143,-1.15625,-4.625,0.15625
87,0.125,-0.90802,-0.24395752,-0.53125,-5.375,0.09375
88,0.20166016,-0.90802,-0.22808838,0.203125,-5.84375,1.515625
89,0.2006836,-0.925354,-0.21710205,0.453125,-10.171875,3.53125
90,0.16381836,-0.9216919,-0.21246338,0.203125,-10.484375,4.4375
91,0.1418457,-0.9793091,-0.20733643,-0.796875,-9.140625,2.90625
92,0.13623047,-1.0046997,-0.2000122,-1.25,-8.21875,-0.703125
93,0.13720703,-0.97003174,-0.20611572,3.859375,-4.484375,-0.421875
94,0.15600586,-0.91534424,-0.22613525,-0.015625,-3.046875,-0.109375
95,0.19848633,-0.8731079,-0.19171143,0.9375,-3.8125,-1.046875
96,0.1862793,-0.878479,-0.16925049,1.84375,-1.734375,-1.875
97,0.12646484,-0.95269775,-0.18951416,-0.34375,-4.34375,-2.0625
98,0.10620117,-0.9985962,-0.17803955,-2.921875,-3.453125,-3.609375
99,0.07495117,-0.9480591,-0.16802979,3.375,4.375,-5.59375
100,0.051513672,-0.9026489,-0.16314697,9.328125,14.75,-3.15625
101,0.06933594,-0.9209595,-0.15118408,-3.046875,11.4375,-5.875
102,0.033203125,-0.9290161,-0.19390869,-2.109375,8.578125,-10.546875
103,0.034179688,-0.9846802,-0.24835205,3.46875,11.453125,-9.421875
104,0.0847168,-0.98809814,-0.29888916,-1.203125,1.234375,-8.921875
105,0.17529297,-0.97125244,-0.3040161,5.9375,-0.625,0.4375
106,0.21191406,-0.9260864,-0.29156494,14.171875,5.703125,13.265625
107,0.2397461,-0.89727783,-0.32330322,2.921875,-2.453125,4.28125
108,0.13232422,-0.9055786,-0.3098755,-4.40625,-13.40625,-4.828125
109,-0.06274414,-1.0044556,-0.31207275,2.1875,-6.21875,-1.953125
110,-0.0847168,-0.9612427,-0.34747314,2.78125,6.328125,-0.578125
111,0.031982422,-0.7876587,-0.3591919,3.21875,8.0,-2.84375
112,0.12768555,-0.8110962,-0.32598877,6.828125,5.734375,-0.65625
113,0.14086914,-0.9224243,-0.30621338,-0.28125,7.25,5.4375
114,0.14355469,-0.98101807,-0.30499268,-2.6875,-0.203125,5.890625
115,0.09106445,-0.97442627,-0.35455322,0.03125,-3.28125,1.328125
116,0.04663086,-0.9260864,-0.34210205,3.765625,2.125,1.171875
117,0.04248047,-0.90093994,-0.28912354,5.546875,4.171875,1.578125
118,0.06201172,-0.8870239,-0.2979126,1.0,3.015625,0.03125
119,0.087890625,-0.9397583,-0.28326416,-0.46875,3.46875,-1.09375
120,0.072021484,-0.96099854,-0.29107666,-1.5,1.09375,-1.984375
121,0.08227539,-0.9536743,-0.29742432,-0.546875,-1.96875,-1.78125
122,0.063964844,-0.93634033,-0.27301025,2.140625,1.84375,0.9375
123,0.035888672,-0.9116821,-0.28131104,2.25,6.0625,1.9375
124,0.053710938,-0.9038696,-0.3045044,0.484375,4.5,-1.5625
125,0.02319336,-0.9019165,-0.30718994,2.625,7.796875,-1.75
126,0.031982422,-0.88531494,-0.32598877,0.359375,10.515625,-0.515625
127,0.02709961,-0.8899536,-0.3850708,-3.9375,2.625,-1.203125
128,0.037597656,-0.9585571,-0.36212158,-4.609375,-1.734375,-2.328125
129,0.05810547,-1.0276489,-0.3147583,-1.703125,-1.140625,-2.75
130,0.04248047,-1.0039673,-0.2678833,-0.421875,-3.265625,-1.703125
131,-0.0017089844,-0.9116821,-0.29449463,-2.171875,-4.5,2.4375
132,-0.02734375,-0.8518677,-0.30108643,-3.28125,-7.546875,4.96875
133,-0.011474609,-0.8508911,-0.28668213,-2.5625,-7.8125,2.90625
134,-0.0009765625,-0.94415283,-0.31793213,-1.421875,-8.109375,0.578125
135,-0.01953125,-0.98565674,-0.28961182,-4.5625,-9.3125,2.375
136,0.0546875,-0.9924927,-0.253479,-3.984375,-12.703125,-0.46875
137,0.06542969,-1.0005493,-0.23150635,-0.953125,-7.171875,-1.578125
138,0.045410156,-0.9299927,-0.31988525,2.0,-5.78125,4.84375
139,0.017333984,-0.866272,-0.2966919,-3.359375,-0.421875,10.015625
140,0.1184082,-0.8460083,-0.24810791,-4.859375,-4.09375,2.1875
141,0.11328125,-0.9282837,-0.32305908,7.671875,-2.578125,-1.59375
142,0.18188477,-0.9043579,-0.30133057,5.34375,12.421875,5.171875
143,0.27294922,-0.8748169,-0.2798462,2.65625,4.328125,0.328125
144,0.29516602,-0.8706665,-0.3093872,1.484375,-10.765625,2.4375
145,0.21801758,-0.9265747,-0.29693604,-1.984375,-9.671875,12.90625
146,0.12597656,-0.9417114,-0.2883911,-8.5,-9.515625,8.0
147,0.08862305,-0.9146118,-0.2942505,2.546875,-3.5625,-2.3125
148,0.114746094,-0.9273071,-0.27764893,7.078125,5.09375,-1.984375
149,0.11450195,-0.8765259,-0.30914307,-0.75,2.125,-2.1875
150,0.15039062,-0.9470825,-0.30010986,-5.46875,-3.5625,-1.515625
151,0.19433594,-1.013977,-0.23736572,-1.96875,-2.75,1.21875
152,0.13720703,-0.9795532,-0.26397705,2.09375,-1.828125,2.96875
153,0.05419922,-0.8936157,-0.29962158,-0.140625,-0.4375,2.59375
154,0.031982422,-0.8687134,-0.26593018,-1.375,0.40625,-2.78125
155,0.060791016,-0.92633057,-0.26983643,-1.734375,-2.1875,-4.0625
156,0.12426758,-0.9939575,-0.26275635,-4.375,-1.359375,-0.578125
157,0.14941406,-0.96759033,-0.22003174,-4.484375,-0.859375,1.609375
158,0.14233398,-0.92144775,-0.26055908,-3.15625,-5.328125,2.625
159,0.13964844,-0.9314575,-0.26397705,-2.6875,-8.46875,2.515625
160,0.10546875,-0.96661377,-0.23199463,-2.6875,-5.3125,3.34375
161,0.15551758,-0.9458618,-0.22686768,0.640625,-5.625,3.1875
162,0.20263672,-0.8904419,-0.22296143,2.625,-5.34375,5.375
163,0.2355957,-0.8423462,-0.20391846,-0.421875,-6.28125,4.765625
164,0.22949219,-0.8477173,-0.22955322,-4.4375,-7.296875,-0.65625
165,0.19750977,-0.9512329,-0.24249268,-3.375,-8.265625,-5.1875
166,0.11254883,-1.0379028,-0.21466064,1.6875,-1.453125,-4.546875
167,0.09887695,-0.9993286,-0.21905518,1.40625,4.171875,-3.15625
168,0.19799805,-0.88116455,-0.2288208,5.125,-1.484375,-3.859375
169,0.23632812,-0.8652954,-0.20684814,-2.15625,-6.5,-2.59375
170,0.23242188,-0.9312134,-0.16802979,-0.125,-8.734375,0.4375
171,0.118896484,-0.9807739,-0.1716919,4.25,-4.03125,2.234375
172,0.06323242,-0.93927,-0.18292236,0.703125,4.28125,0.3125
173,0.024658203,-0.8809204,-0.19366455,2.390625,6.109375,-8.015625
174,0.02709961,-0.92022705,-0.18756104,0.953125,11.015625,-14.0625
175,0.0234375,-0.9924927,-0.15924072,-1.796875,13.40625,-15.140625
176,0.033691406,-1.0278931,-0.21783447,-10.53125,8.125,-14.5625
177,0.060058594,-0.9985962,-0.32965088,-8.3125,1.359375,-12.046875
178,0.22070312,-1.0357056,-0.2637329,8.96875,0.765625,2.4375
179,0.21069336,-0.8652954,-0.23809814,16.203125,7.4375,13.234375
180,0.17529297,-0.7595825,-0.33673096,1.203125,1.390625,6.953125
181,0.08666992,-0.80059814,-0.31744385,-6.890625,-12.390625,-6.578125
182,-0.018310547,-1.0425415,-0.26617432,6.5625,-7.765625,-4.765625
183,-0.00048828125,-1.116272,-0.3399048,7.203125,9.671875,1.96875
184,0.10961914,-0.91192627,-0.31304932,2.6875,6.234375,1.796875
185,0.17407227,-0.80548096,-0.2727661,8.59375,3.9375,3.0
186,0.123291016,-0.8682251,-0.3196411,8.046875,4.171875,3.09375
187,0.052001953,-0.94195557,-0.32305908,-5.25,-2.171875,0.15625
188,0.06225586,-1.02594,-0.32305908,-2.015625,-3.453125,0.5625
189,0.11279297,-0.9429321,-0.30499268,3.078125,4.828125,3.265625
190,0.12768555,-0.85479736,-0.29840088,4.4375,4.5,0.265625
191,0.09692383,-0.8545532,-0.2991333,1.09375,0.1875,-2.96875
192,0.045654297,-0.91192627,-0.30352783,-4.640625,0.421875,-0.734375
193,0.0715332,-0.9614868,-0.26519775,-2.5,-0.609375,-0.421875
194,0.051757812,-0.94903564,-0.23687744,2.453125,5.25,0.65625
195,0.040527344,-0.92315674,-0.29083252,-1.59375,4.71875,-1.890625
196,0.010986328,-0.92144775,-0.29400635,-2.15625,2.546875,-4.03125
197,0.029296875,-0.94781494,-0.25421143,3.484375,10.5,-1.296875
198,0.06640625,-0.9578247,-0.23370361,-0.1875,10.65625,-3.5
199,-0.004638672,-0.9644165,-0.2546997,-5.71875,7.78125,-4.90625
200,-0.033447266,-0.9885864,-0.2588501,-2.21875,12.4375,-5.390625
201,-0.061279297,-0.94659424,-0.26763916,-2.359375,15.234375,-4.640625
202,-0.047607422,-0.85284424,-0.32818604,-1.984375,8.984375,-1.140625
203,0.016357422,-0.86798096,-0.32891846,-1.984375,7.984375,0.796875
204,0.05053711,-0.9492798,-0.2913208,-2.890625,6.5625,-0.578125
205,0.0024414062,-1.017395,-0.24713135,-0.21875,2.078125,-1.03125
206,-0.048095703,-0.9990845,-0.26763916,-0.71875,0.578125,1.921875
207,-0.07080078,-0.92022705,-0.29718018,-3.046875,-2.859375,5.515625
208,-0.040527344,-0.8674927,-0.24761963,2.34375,-2.96875,4.125
209,-0.037109375,-0.93707275,-0.2625122,1.859375,-1.390625,2.5625
210,-0.056152344,-1.000061,-0.27105713,-5.078125,-5.671875,2.84375
211,-0.016601562,-0.98223877,-0.20367432,-4.859375,-12.828125,1.09375
212,0.014160156,-0.9492798,-0.24005127,-3.40625,-14.5,-1.28125
213,-0.006591797,-0.9746704,-0.24957275,-3.671875,-14.5625,-0.015625
214,-0.02319336,-0.97662354,-0.26885986,-1.84375,-13.90625,1.828125
215,-0.045166016,-0.9229126,-0.32891846,-1.140625,-12.875,6.0625
216,0.091796875,-0.892395,-0.17633057,-6.78125,-6.375,9.0
217,0.12426758,-0.87945557,-0.22491455,6.984375,-17.515625,5.4375
218,0.13378906,-0.8875122,-0.31304932,4.28125,0.15625,6.75
219,0.14648438,-0.90802,-0.26812744,6.46875,-0.109375,1.15625
220,0.15795898,-0.8755493,-0.28570557,6.375,-8.265625,0.171875
221,0.18286133,-0.9470825,-0.26470947,2.140625,-8.8125,6.390625
222,0.1586914,-0.99542236,-0.23712158,-5.21875,-6.359375,7.015625
223,0.11376953,-0.98101807,-0.26568604,-1.46875,-4.796875,3.515625
224,0.06347656,-0.9378052,-0.29888916,5.328125,4.46875,1.53125
225,0.057861328,-0.8882446,-0.27178955,2.921875,7.75,0.46875
226,0.14794922,-0.8945923,-0.27667236,0.34375,3.53125,-0.921875
227,0.19189453,-0.95758057,-0.255188,-2.703125,1.5,-0.6875
228,0.15405273,-0.97979736,-0.253479,-2.546875,2.109375,1.359375
229,0.10473633,-0.9038696,-0.25958252,-0.484375,1.5625,2.203125
230,0.10424805,-0.8909302,-0.26690674,-1.015625,0.625,1.65625
231,0.107421875,-0.91412354,-0.27105713,-1.921875,-2.046875,-0.15625
232,0.12158203,-0.93756104,-0.2312622,-1.0,-2.453125,0.765625
233,0.11328125,-0.95635986,-0.24346924,0.046875,-4.84375,2.6875
234,0.10473633,-0.960022,-0.2456665,-1.078125,-3.578125,4.265625
235,0.10644531,-0.9368286,-0.24737549,-0.390625,-1.1875,3.8125
236,0.08520508,-0.9126587,-0.24176025,-1.734375,-3.5,1.515625
237,0.09814453,-0.9385376,-0.25909424,-3.234375,-0.5,-0.75
238,0.12915039,-0.92681885,-0.23638916,-2.796875,1.859375,-1.890625
239,0.14672852,-0.9146118,-0.23101807,1.625,-0.953125,-1.34375
240,0.1965332,-0.9104614,-0.23614502,0.65625,-3.734375,0.140625
241,0.20532227,-0.93341064,-0.21905518,-3.359375,-4.703125,-4.359375
242,0.14770508,-0.9800415,-0.2156372,1.671875,-4.015625,-5.5
243,0.041015625,-1.0281372,-0.22979736,2.96875,1.515625,-4.703125
244,0.0012207031,-0.9673462,-0.23809814,2.96875,3.578125,-4.359375
245,0.07885742,-0.90045166,-0.22296143,4.84375,3.1875,-3.21875
246,0.20166016,-0.9048462,-0.22564697,3.484375,1.703125,1.40625
247,0.23413086,-0.911438,-0.19171143,1.5625,-0.6875,1.765625
248,0.14624023,-0.940979,-0.17218018,4.234375,-4.734375,-0.140625
249,0.017578125,-0.92803955,-0.19317627,2.734375,-1.546875,-0.890625
250,-0.026123047,-0.95318604,-0.24176025,-2.390625,0.015625,-10.234375
251,-0.05810547,-0.9500122,-0.20123291,-0.484375,6.34375,-18.953125
252,-0.076416016,-0.9417114,-0.26715088,0.078125,13.265625,-17.84375
253,-0.02734375,-0.97857666,-0.4102173,-10.484375,-1.234375,-8.609375
254,0.27172852,-1.0899048,-0.26568604,7.640625,-9.921875,4.8125
255,0.19555664,-0.91241455,-0.23297119,18.875,16.875,20.078125
256,0.16772461,-0.7463989,-0.35601807,2.25,-4.078125,7.5
257,0.0,-0.7835083,-0.37091064,-8.859375,-21.09375,-8.59375
258,-0.10546875,-0.9776001,-0.3435669,5.375,-1.734375,-8.21875
259,-0.043701172,-1.0593872,-0.34747314,9.515625,11.71875,0.015625
260,0.080078125,-0.9631958,-0.33673096,-2.171875,2.078125,-1.90625
261,0.12426758,-0.8880005,-0.28668213,0.125,5.578125,1.640625
262,0.079833984,-0.8765259,-0.29180908,5.453125,4.90625,3.546875
263,0.0087890625,-0.88848877,-0.3394165,-4.546875,-1.890625,-0.75
264,-0.013671875,-0.9194946,-0.32110596,-4.109375,-0.46875,-1.203125
265,0.04345703,-0.9314575,-0.284729,5.875,2.46875,2.890625
266,0.09375,-0.9319458,-0.29473877,4.421875,0.421875,2.453125
267,0.080322266,-0.9512329,-0.28936768,-0.65625,-0.34375,-2.421875
268,-0.009765625,-0.93707275,-0.2456665,1.390625,2.421875,-0.625
269,-0.032470703,-0.91363525,-0.25250244,3.9375,5.296875,2.875
270,-0.025390625,-0.8814087,-0.28961182,-3.140625,2.78125,-2.1875
271,-0.030273438,-0.93463135,-0.2913208,-3.6875,1.140625,-7.296875
272,-0.024414062,-1.045227,-0.2937622,-1.5625,6.34375,-5.109375
273,-0.0021972656,-1.0078735,-0.26617432,-0.28125,14.546875,-0.953125
274,0.0068359375,-0.9194946,-0.25494385,1.9375,13.03125,-0.046875
275,0.034423828,-0.8555298,-0.27545166,0.578125,7.71875,-0.25
276,0.03100586,-0.8635864,-0.34210205,-0.28125,5.390625,-0.640625
277,-0.0021972656,-0.9234009,-0.37823486,-2.875,2.140625,-0.84375
278,0.005126953,-0.97076416,-0.33770752,3.375,-0.375,0.203125
279,-0.030517578,-0.9795532,-0.2798462,5.140625,-0.21875,2.46875
280,-0.031982422,-0.9151001,-0.28961182,0.703125,-2.0,2.78125
281,-0.01977539,-0.8689575,-0.32476807,-0.703125,-6.03125,2.4375
282,-0.012207031,-0.87213135,-0.33111572,1.78125,-6.328125,1.734375
283,-0.011474609,-0.9216919,-0.3435669,3.421875,-5.90625,3.203125
284,-0.020751953,-0.9324341,-0.34503174,1.921875,-6.703125,3.984375
285,-0.004638672,-0.9483032,-0.3496704,2.375,-3.84375,3.515625
286,0.0048828125,-0.9385376,-0.33648682,1.046875,-6.953125,2.90625
287,0.015136719,-0.9331665,-0.30499268,1.09375,-5.46875,3.453125
288,0.016845703,-0.93951416,-0.3250122,-0.78125,-5.703125,3.578125
289,-0.013427734,-0.9163208,-0.30523682,-2.78125,-7.28125,1.65625
290,-0.009765625,-0.958313,-0.3057251,-4.203125,-9.0625,0.78125
291,0.027832031,-1.0071411,-0.30841064,-8.125,-15.65625,-1.109375
292,0.08300781,-0.98321533,-0.34405518,-3.328125,-18.515625,-3.875
293,0.10620117,-0.94244385,-0.2822876,4.640625,-7.015625,3.125
294,0.1665039,-0.8413696,-0.2366333,-6.125,-6.1875,1.953125
295,0.016357422,-0.81329346,-0.33355713,-3.21875,-17.625,-0.015625
296,-0.0087890625,-0.84942627,-0.32989502,-0.578125,2.453125,6.515625
297,0.1184082,-0.9036255,-0.27886963,4.046875,3.421875,-1.046875
298,0.21289062,-0.94537354,-0.3147583,0.96875,-7.1875,-8.453125
299,0.24145508,-1.0059204,-0.2666626,0.921875,-5.796875,5.28125
300,0.16625977,-0.9468384,-0.20880127,-7.1875,-5.421875,10.75
301,0.07470703,-0.86920166,-0.30230713,-3.03125,-13.875,0.09375
302,0.017822266,-0.9102173,-0.3255005,2.96875,-1.96875,-3.078125
303,0.05810547,-0.9351196,-0.26812744,3.15625,3.109375,-3.0625
304,0.13232422,-0.94317627,-0.25445557,1.65625,-2.515625,-0.984375
305,0.15771484,-0.9458618,-0.24102783,-1.3125,-3.671875,3.0
306,0.11206055,-0.92510986,-0.2666626,-1.65625,-2.125,2.625
307,0.09057617,-0.89630127,-0.28448486,-1.6875,-4.640625,-1.265625
308,0.051757812,-0.9402466,-0.26861572,1.0625,-1.453125,0.0625
309,0.07373047,-0.9727173,-0.2510376,1.1875,-0.171875,1.4375
310,0.06713867,-0.9307251,-0.2720337,-2.859375,-3.265625,-0.59375
311,0.08666992,-0.9168091,-0.2588501,-6.40625,-2.953125,-0.640625
312,0.09082031,-0.92437744,-0.2366333,-6.046875,-4.671875,1.015625
313,0.087646484,-0.92388916,-0.2234497,-5.859375,-1.59375,4.046875
314,0.12084961,-0.9194946,-0.24078369,-3.515625,-5.3125,2.796875
315,0.10888672,-0.96173096,-0.24102783,-0.03125,-7.09375,0.03125
316,0.15551758,-0.97369385,-0.21881104,3.71875,-5.46875,3.65625
317,0.19458008,-0.9517212,-0.23272705,0.34375,-10.3125,2.484375
318,0.1850586,-0.9204712,-0.20684814,-2.84375,-10.9375,-0.96875
319,0.12939453,-0.95758057,-0.20269775,-3.1875,-10.703125,-3.8125
320,0.061035156,-0.9924927,-0.19415283,-3.234375,-2.5,-4.484375
321,0.034179688,-0.97052,-0.21099854,-1.859375,-0.53125,-5.390625
322,0.08325195,-0.95440674,-0.19439697,-0.328125,-1.421875,-5.09375
323,0.19824219,-0.9417114,-0.15899658,2.5,-1.875,-0.5
324,0.23535156,-0.94073486,-0.1987915,3.765625,-2.046875,2.015625
325,0.19946289,-0.89141846,-0.1843872,-2.75,-5.03125,1.359375
326,0.111816406,-0.897522,-0.15484619,0.65625,-9.265625,-1.171875
327,0.068847656,-0.9590454,-0.17633057,3.140625,-7.828125,-4.265625
328,0.06933594,-0.9319458,-0.19171143,1.609375,-1.25,-6.453125
329,0.06201172,-0.9290161,-0.19049072,1.015625,-0.046875,-8.6875
330,0.05810547,-0.99346924,-0.17999268,5.59375,3.828125,-10.984375
331,0.0014648438,-1.0442505,-0.19268799,5.015625,5.875,-9.84375
332,0.0021972656,-1.0354614,-0.27618408,-8.421875,-1.03125,-9.09375
333,0.12768555,-0.99102783,-0.26275635,-1.234375,0.734375,-0.921875
334,0.15698242,-0.9351196,-0.20269775,14.0625,7.625,7.75
335,0.12841797,-0.7942505,-0.24835205,4.515625,4.953125,1.796875
336,0.045898438,-0.7901001,-0.27252197,-6.796875,-6.3125,-7.78125
337,-0.03857422,-0.91656494,-0.2774048,0.578125,-2.046875,-5.328125
338,0.0012207031,-1.0130005,-0.30377197,5.78125,10.8125,-1.71875
339,0.114746094,-0.9656372,-0.28131104,4.640625,4.28125,-4.03125
340,0.10131836,-0.958313,-0.26568604,1.34375,2.828125,1.140625
341,0.05419922,-0.9133911,-0.2774048,1.09375,3.109375,2.640625
342,0.026855469,-0.9163208,-0.30352783,-1.28125,-1.328125,-0.203125
343,0.02758789,-0.9324341,-0.2913208,-0.9375,0.03125,-0.671875
344,0.052490234,-0.9522095,-0.26055908,3.984375,1.765625,2.453125
345,0.06713867,-0.91729736,-0.28399658,0.53125,1.390625,1.875
346,0.050048828,-0.91778564,-0.2883911,-0.875,-1.15625,-0.609375
347,0.034423828,-0.9661255,-0.2744751,-0.109375,-0.203125,-0.734375
348,0.020263672,-0.956604,-0.2625122,1.828125,1.125,1.765625
349,0.049804688,-0.91656494,-0.27398682,-1.703125,0.015625,1.125
350,0.061523438,-0.9048462,-0.26348877,-1.578125,-2.640625,-1.890625
351,0.061035156,-0.9456177,-0.23565674,1.671875,0.65625,-2.984375
352,0.01928711,-0.9734497,-0.26690674,-0.328125,-1.34375,-2.703125
353,-0.040527344,-0.9356079,-0.2744751,-1.234375,-0.359375,-1.125
354,-0.030273438,-0.9229126,-0.27398682,2.703125,8.96875,0.0625
355,-0.005859375,-0.93878174,-0.27642822,2.046875,8.921875,0.109375
356,-0.0031738281,-0.9187622,-0.28692627,0.40625,9.828125,-0.28125
357,0.032226562,-0.89849854,-0.32696533,0.421875,8.1875,-2.078125
358,0.041992188,-0.94122314,-0.3213501,-2.5625,2.734375,-3.34375
359,0.026855469,-1.0327759,-0.286438,0.015625,0.203125,-0.078125
360,-0.0073242188,-0.98150635,-0.23150635,-3.359375,0.90625,1.765625
361,-0.055664062,-0.90802,-0.25250244,-4.65625,-1.234375,-0.140625
362,-0.08911133,-0.8875122,-0.27178955,-2.359375,-4.765625,1.46875
363,-0.049560547,-0.9036255,-0.2642212,-3.53125,-3.234375,4.4375
364,0.045410156,-0.93878174,-0.24298096,-2.0,-2.671875,2.8125
365,0.041748047,-0.9924927,-0.24395752,-2.1875,-5.046875,0.171875
366,0.009765625,-0.99713135,-0.22955322,-3.171875,-6.859375,1.9375
367,0.041992188,-1.0027466,-0.20928955,0.53125,-11.859375,2.859375
368,0.033691406,-1.0549927,-0.19976807,-2.84375,-9.0625,6.8125
369,-0.061035156,-0.93536377,-0.27349854,-8.53125,-15.859375,8.015625
370,-0.10253906,-0.9456177,-0.2571411,-6.9375,-14.609375,10.0
371,0.029296875,-0.9373169,-0.20098877,2.40625,-6.265625,11.125
372,0.05834961,-0.86553955,-0.22271729,3.65625,2.0,9.484375
373,0.103271484,-0.79351807,-0.24005127,-0.078125,7.375,4.5
374,0.1508789,-0.8789673,-0.21905518,1.375,4.84375,-1.484375
375,0.18383789,-0.9956665,-0.2234497,6.0625,2.84375,1.796875
376,0.22949219,-1.0059204,-0.2420044,1.21875,-2.625,8.375
377,0.21118164,-0.9373169,-0.222229,-4.515625,-6.109375,7.90625
378,0.14355469,-0.9204712,-0.2078247,-0.140625,-3.609375,2.59375
379,0.05810547,-0.972229,-0.25054932,5.671875,-1.046875,-2.9375
380,0.051513672,-0.94537354,-0.22906494,3.09375,1.3125,-3.03125
381,0.13427734,-0.9234009,-0.23199463,-0.1875,-0.28125,-0.828125
382,0.19726562,-0.93414307,-0.2197876,-0.59375,-4.28125,0.0
383,0.19726562,-0.9607544,-0.21588135,0.265625,-5.65625,0.375
384,0.11743164,-0.9404907,-0.23028564,-0.078125,-4.65625,1.03125
385,0.0690918,-0.91485596,-0.23443604,0.5625,-4.03125,0.53125
386,0.0690918,-0.9102173,-0.22247314,1.46875,-4.640625,-1.09375
387,0.1171875,-0.95196533,-0.2197876,2.953125,-1.953125,-0.171875
388,0.14355469,-0.95928955,-0.22857666,2.703125,-1.234375,1.53125
389,0.13134766,-0.93927,-0.23101807,3.0,0.375,4.015625
390,0.12524414,-0.9324341,-0.23712158,1.375,-1.46875,3.59375
391,0.12695312,-0.923645,-0.22198486,1.78125,-2.46875,2.015625
392,0.14453125,-0.944397,-0.24542236,-0.421875,-3.046875,1.03125
393,0.15722656,-0.9326782,-0.24176025,-1.328125,-4.5,0.65625
394,0.15771484,-0.9336548,-0.22979736,1.015625,-2.5,1.3125
395,0.1586914,-0.8994751,-0.21832275,2.765625,-2.65625,1.984375
396,0.1977539,-0.9204712,-0.23834229,-3.71875,-5.140625,-1.390625
397,0.16992188,-0.9368286,-0.2234497,-3.671875,-6.171875,-3.515625
398,0.11694336,-0.986145,-0.2000122,3.578125,-1.21875,-1.015625
399,0.110839844,-0.94903564,-0.19805908,1.203125,1.703125,-3.1875
400,0.10424805,-0.9458618,-0.21636963,3.1875,-0.125,-4.203125
401,0.16503906,-0.97052,-0.2131958,2.53125,-1.4375,-4.234375
402,0.19189453,-0.9661255,-0.19268799,5.09375,-1.03125,-1.171875
403,0.17333984,-0.9182739,-0.2078247,3.109375,-1.25,0.015625
404,0.107177734,-0.87945557,-0.19903564,1.890625,-3.5,-2.203125
405,0.030517578,-0.9248657,-0.19781494,2.40625,-0.890625,-2.390625
406,0.022460938,-0.9627075,-0.20050049,-1.78125,0.921875,-7.484375
407,0.010253906,-0.9883423,-0.19708252,-3.953125,6.328125,-11.625
408,0.022216797,-1.0222778,-0.175354,-2.828125,10.296875,-14.203125
409,0.016357422,-1.0181274,-0.2341919,-4.953125,9.046875,-16.75
410,0.00024414062,-0.97198486,-0.30377197,-6.78125,6.75,-10.6875
411,0.11694336,-0.9483032,-0.2630005,7.296875,4.0625,6.390625
412,0.17285156,-0.8814087,-0.2456665,12.890625,12.765625,13.375
413,0.20898438,-0.77349854,-0.2835083,-1.046875,3.421875,4.234375
414,0.10131836,-0.8706665,-0.2703247,-9.765625,-15.046875,-6.21875
415,-0.072509766,-1.0691528,-0.27911377,1.890625,0.59375,-2.25
416,-0.0637207,-1.0198364,-0.3032837,4.203125,11.375,2.90625
417,0.07470703,-0.8567505,-0.31134033,0.984375,2.6875,-3.3125
418,0.1081543,-0.87213135,-0.29571533,1.28125,3.953125,-0.859375
419,0.1105957,-0.9351196,-0.3040161,-1.125,1.953125,0.953125
420,0.076171875,-0.97247314,-0.31402588,-5.328125,-7.140625,-2.578125
421,0.08886719,-1.003479,-0.29327393,-2.03125,-6.71875,-0.140625
422,0.079833984,-0.95098877,-0.25958252,2.75,-2.96875,0.5625
423,0.020263672,-0.87823486,-0.26641846,0.859375,-0.953125,-1.703125
424,-0.0061035156,-0.8772583,-0.28155518,0.1875,-4.359375,-5.3125
425,-0.021728516,-0.94073486,-0.2703247,1.03125,-1.40625,-4.875
426,-0.010986328,-0.9614868,-0.2617798,0.34375,3.265625,-2.4375
427,-0.009033203,-0.9368286,-0.26763916,1.375,4.015625,-3.28125
428,-0.020996094,-0.9380493,-0.2600708,3.546875,6.109375,-3.015625
429,-0.0017089844,-0.9512329,-0.24639893,2.21875,9.796875,-1.734375
430,-0.0061035156,-0.93292236,-0.24249268,-0.3125,9.296875,-1.34375
431,-0.025146484,-0.9360962,-0.284729,2.59375,11.0,0.28125
432,-0.031982422,-0.91192627,-0.29840088,-0.40625,10.109375,-0.0625
433,-0.017089844,-0.89678955,-0.30133057,-0.328125,7.5,0.71875
434,0.009033203,-0.9561157,-0.2756958,0.53125,5.96875,2.671875
435,0.020751953,-1.0120239,-0.27398682,-2.3125,1.171875,0.203125
436,-0.033447266,-0.9990845,-0.25177002,0.40625,1.96875,0.140625
437,-0.045898438,-0.92510986,-0.2612915,0.8125,2.59375,2.765625
438,-0.041992188,-0.8821411,-0.27423096,-1.203125,-4.28125,2.28125
439,-0.036865234,-0.8882446,-0.27008057,0.375,-0.390625,3.1875
440,-0.0048828125,-0.93170166,-0.27130127,-0.34375,-0.65625,2.140625
441,-0.010498047,-0.986145,-0.28082275,-1.625,-5.59375,1.0
442,-0.032714844,-0.97198486,-0.24517822,-2.4375,-4.90625,1.96875
443,-0.028564453,-0.95977783,-0.22003174,-0.5,-6.875,2.984375
444,-0.040039062,-0.9451294,-0.24127197,-1.59375,-8.3125,3.796875
445,-0.08666992,-0.93878174,-0.26934814,-3.8125,-8.65625,7.421875
446,-0.060302734,-0.9590454,-0.21881104,-5.984375,-6.546875,9.4375
447,-0.0009765625,-0.9483032,-0.23150635,-3.90625,-11.796875,6.015625
448,0.114990234,-1.0108032,-0.32183838,-4.46875,-17.890625,2.984375
449,0.16845703,-0.98760986,-0.19366455,1.96875,-7.390625,8.421875
450,0.20043945,-0.9390259,-0.120910645,0.34375,-3.09375,7.1875
451,-0.014892578,-0.87335205,-0.26324463,-8.8125,-14.078125,1.3125
452,-0.10986328,-0.9187622,-0.27496338,-3.75,2.46875,0.953125
453,0.036621094,-0.88165283,-0.22833252,6.046875,9.953125,1.1875
454,0.26416016,-0.9116821,-0.22393799,7.46875,1.015625,-4.578125
455,0.33032227,-0.9927368,-0.21759033,4.34375,-4.890625,2.03125
456,0.19799805,-0.9902954,-0.18536377,-5.28125,-4.96875,11.15625
457,0.05908203,-0.91607666,-0.21661377,-3.9375,-8.484375,4.25
458,0.007080078,-0.88360596,-0.253479,3.640625,-4.8125,-1.75
459,0.07714844,-0.9312134,-0.23712158,6.140625,3.296875,-2.390625
460,0.17504883,-0.9885864,-0.2341919,-0.25,0.8125,-1.53125
461,0.19238281,-0.958313,-0.21636963,-0.171875,-5.359375,2.171875
462,0.1628418,-0.95977783,-0.20489502,0.140625,-1.453125,5.015625
463,0.11401367,-0.9299927,-0.22247314,-0.15625,-2.953125,4.3125
464,0.087402344,-0.9060669,-0.23028564,1.734375,-3.25,3.171875
465,0.09643555,-0.8936157,-0.24468994,2.234375,0.71875,1.78125
466,0.099121094,-0.93414307,-0.25030518,0.53125,2.109375,0.15625
467,0.13549805,-0.96539307,-0.2300415,2.171875,2.75,-0.953125
468,0.16918945,-0.9553833,-0.23760986,1.765625,2.84375,2.65625
469,0.15527344,-0.90509033,-0.22955322,-1.484375,-2.9375,4.40625
470,0.1105957,-0.91363525,-0.2234497,-3.234375,-6.046875,2.578125
471,0.07055664,-0.96710205,-0.24371338,-0.390625,-1.625,0.03125
472,0.09277344,-0.98101807,-0.24713135,1.640625,2.71875,-0.4375
473,0.13305664,-0.9373169,-0.22271729,0.734375,2.296875,0.4375
474,0.1430664,-0.90753174,-0.21270752,0.0,-1.09375,0.328125
475,0.13745117,-0.9312134,-0.23883057,-2.75,-2.890625,0.4375
476,0.11669922,-0.9505005,-0.24176025,-3.65625,-4.90625,-0.828125
477,0.12109375,-0.95269775,-0.22418213,0.4375,-3.03125,1.15625
478,0.11743164,-0.9348755,-0.2300415,-0.296875,-5.75,0.765625
479,0.17626953,-0.89849854,-0.20953369,-0.953125,-5.15625,0.390625
480,0.2043457,-0.8928833,-0.18927002,-0.71875,-5.765625,-1.578125
481,0.18603516,-0.9302368,-0.2029419,-1.953125,-6.46875,-4.21875
482,0.14282227,-0.99591064,-0.22613525,-0.03125,-2.453125,-3.09375
483,0.05053711,-0.98687744,-0.22369385,3.234375,2.890625,-2.0
484,0.05834961,-0.94195557,-0.24102783,6.828125,6.921875,-1.859375
485,0.13574219,-0.8858032,-0.20758057,7.234375,7.015625,-3.09375
486,0.19091797,-0.89801025,-0.18927002,0.203125,5.671875,-4.203125
487,0.19433594,-0.942688,-0.19268799,-2.71875,-0.234375,-5.375
488,0.10229492,-0.975647,-0.17901611,-0.140625,-2.921875,-2.03125
489,0.052490234,-0.9834595,-0.18878174,2.53125,1.0,-2.203125
490,0.015136719,-0.9692993,-0.19268799,4.75,5.125,-5.390625
491,-0.020263672,-0.986145,-0.15045166,1.078125,7.796875,-6.84375
492,0.018310547,-0.9746704,-0.18243408,-4.0625,4.5,-8.390625
493,0.010986328,-0.95269775,-0.30670166,-10.296875,2.6875,-3.265625
494,0.1586914,-0.9656372,-0.32183838,-11.03125,-6.921875,4.0625
495,0.2541504,-0.99713135,-0.26812744,3.953125,-12.0625,5.234375
496,0.17797852,-0.881897,-0.22808838,6.359375,-1.578125,7.15625
497,0.115722656,-0.83599854,-0.25079346,1.5,-8.1875,2.5625
498,0.0036621094,-0.9031372,-0.27008057,-8.703125,-10.8125,-1.109375
499,-0.009033203,-0.96343994,-0.29888916,0.65625,3.890625,-3.296875
500,0.05102539,-0.97247314,-0.28277588,8.453125,9.0625,-3.15625
501,0.12866211,-0.9116821,-0.2468872,3.90625,6.0625,-0.21875
502,0.17797852,-0.92193604,-0.25811768,-1.28125,2.625,1.765625
503,0.1303711,-0.9089966,-0.25445557,1.859375,0.734375,1.09375
504,0.083984375,-0.9429321,-0.27349854,-2.140625,-2.28125,1.625
505,0.08081055,-0.913147,-0.27130127,-4.09375,-1.3125,-0.40625
506,0.080566406,-0.911438,-0.23443604,5.765625,1.640625,0.890625
507,0.06958008,-0.9402466,-0.23565674,4.515625,2.71875,0.09375
508,0.068603516,-0.9636841,-0.24468994,-4.484375,0.09375,-2.734375
509,0.071777344,-0.96954346,-0.24298096,1.984375,0.34375,-1.234375
510,0.045166016,-0.9717407,-0.24249268,6.703125,4.78125,1.78125
511,0.056640625,-0.9209595,-0.23199463,0.125,4.125,-0.828125
512,0.048095703,-0.9002075,-0.24810791,0.28125,1.765625,-3.328125
513,0.04248047,-0.9614868,-0.27056885,4.203125,4.0,-2.515625
514,0.053955078,-0.96710205,-0.2720337,2.28125,9.90625,-2.3125
515,0.04711914,-0.91900635,-0.24615479,4.25,10.390625,-1.703125
516,0.07128906,-0.8772583,-0.2756958,2.84375,8.34375,1.90625
517,0.047851562,-0.86431885,-0.3255005,-4.453125,-0.15625,2.453125
518,0.0715332,-0.928772,-0.31549072,-2.546875,-1.78125,2.625
519,0.057617188,-1.020813,-0.3045044,0.875,-2.421875,1.203125
520,-0.0056152344,-1.0342407,-0.26397705,3.5,2.734375,3.484375
521,0.01171875,-0.9507446,-0.26324463,0.375,0.765625,1.78125
522,0.018066406,-0.88287354,-0.29229736,-2.78125,-2.890625,0.75
523,0.0390625,-0.8880005,-0.28179932,-2.03125,-3.515625,-0.28125
524,0.053710938,-0.94000244,-0.26617432,-2.84375,-8.734375,1.671875
525,0.060791016,-0.9883423,-0.23736572,-4.171875,-10.0625,5.03125
526,0.06591797,-1.0122681,-0.22052002,-2.671875,-10.734375,4.09375
527,0.030273438,-0.98809814,-0.22808838,-4.0,-15.0,3.296875
528,-0.028808594,-0.93341064,-0.23956299,-10.734375,-17.09375,-0.46875
529,-0.028076172,-0.9248657,-0.2564087,-4.1875,-20.046875,-0.453125
530,0.0625,-0.9981079,-0.23565674,-0.859375,-13.625,6.15625
531,0.111572266,-0.9783325,-0.1807251,5.328125,-2.0,11.46875
532,0.12524414,-0.8953247,-0.22540283,-0.953125,-0.625,6.328125
533,0.13305664,-0.8591919,-0.24053955,-4.671875,-0.609375,0.140625
534,0.15161133,-0.9036255,-0.19976807,2.03125,5.109375,3.71875
535,0.20874023,-0.9536743,-0.21417236,4.03125,6.4375,3.15625
536,0.25610352,-0.92852783,-0.23028564,0.125,-1.625,1.75
537,0.22167969,-0.9492798,-0.20245361,-1.140625,-2.734375,7.234375
538,0.17504883,-0.9780884,-0.20465088,-1.515625,-1.25,4.234375
539,0.13500977,-0.90093994,-0.20318604,-0.109375,2.265625,-1.59375
540,0.15039062,-0.9036255,-0.23199463,2.484375,3.578125,-1.734375
541,0.17480469,-0.9194946,-0.20758057,-4.390625,1.015625,-3.796875
542,0.15625,-0.9661255,-0.1975708,-3.015625,-3.1875,-1.34375
543,0.19628906,-0.97857666,-0.20904541,-2.6875,-5.03125,1.5625
544,0.20800781,-0.93414307,-0.19024658,-3.140625,-4.171875,2.25
545,0.1508789,-0.8994751,-0.19293213,-1.46875,-6.328125,1.65625
546,0.103759766,-0.9158325,-0.1975708,-0.84375,-7.734375,0.9375
547,0.11791992,-0.96881104,-0.18658447,0.921875,-3.765625,1.203125
548,0.15283203,-0.9578247,-0.18341064,0.4375,1.015625,1.078125
549,0.15893555,-0.9365845,-0.1873169,0.65625,1.484375,2.015625
550,0.18237305,-0.9146118,-0.19976807,1.609375,-1.171875,1.65625
551,0.19873047,-0.91241455,-0.18951416,0.5,-0.6875,0.078125
552,0.18896484,-0.92144775,-0.18682861,1.03125,-1.1875,0.015625
553,0.16967773,-0.95806885,-0.20391846,0.171875,-3.765625,0.265625
554,0.17944336,-0.95318604,-0.1975708,-0.765625,-2.84375,-0.546875
555,0.18725586,-0.9663696,-0.18292236,0.953125,-1.515625,-1.625
556,0.1821289,-0.9534302,-0.19976807,0.109375,-2.140625,-3.9375
557,0.18701172,-0.9314575,-0.1843872,1.703125,-1.9375,-1.59375
558,0.17578125,-0.9365845,-0.18927002,-2.1875,-3.171875,-0.65625
559,0.14526367,-0.92926025,-0.18804932,-2.234375,-2.34375,-2.90625
560,0.03857422,-0.9312134,-0.27838135,-0.609375,-0.625,-1.9375
561,0.016601562,-0.96051025,-0.2901001,-0.1875,1.40625,-5.265625
562,0.010986328,-0.9351196,-0.27349854,-0.578125,3.8125,-5.234375
563,0.036132812,-0.9480591,-0.284729,-2.203125,5.796875,-4.96875
564,0.0546875,-0.92071533,-0.2781372,-3.84375,4.890625,-6.5
565,0.023925781,-0.90045166,-0.2871704,-2.171875,2.65625,-3.65625
566,0.01928711,-0.9229126,-0.29205322,-4.515625,-2.46875,-3.0
567,0.020751953,-0.9475708,-0.2979126,-5.65625,-2.875,-4.15625
568,-0.013427734,-0.9783325,-0.29693604,-1.046875,-0.890625,-2.8125
569,-0.049316406,-0.9573364,-0.27618408,1.34375,-1.0,-0.015625
570,-0.02368164,-0.91070557,-0.26568604,-0.859375,-0.578125,1.125
571,0.0063476562,-0.8845825,-0.2835083,-3.015625,-2.359375,-0.09375
572,0.008544922,-0.9146118,-0.27178955,-0.421875,-0.546875,0.734375
573,0.0009765625,-0.9692993,-0.27252197,0.171875,-0.796875,1.5625
574,-0.024414062,-0.95928955,-0.26275635,-0.96875,-3.203125,3.265625
575,-0.020507812,-0.95806885,-0.24908447,-1.4375,-3.59375,5.296875
576,-0.009521484,-0.96051025,-0.25030518,-3.65625,-6.59375,2.890625
577,-0.005126953,-0.95318604,-0.26055908,-3.65625,-10.515625,1.140625
578,-0.013671875,-0.9312134,-0.2390747,-1.75,-9.078125,1.84375
579,0.0,-0.9170532,-0.2600708,0.921875,-9.640625,0.6875
580,0.018066406,-0.9680786,-0.2871704,-3.109375,-12.390625,-0.359375
581,0.0949707,-1.0757446,-0.22467041,-3.453125,-11.546875,1.875
582,0.11401367,-0.94781494,-0.15802002,4.015625,-0.796875,6.703125
583,0.052246094,-0.8069458,-0.27642822,2.8125,-3.765625,5.84375
584,0.05419922,-0.7883911,-0.3262329,-4.828125,-4.515625,-3.90625
585,0.08886719,-0.8887329,-0.269104,3.078125,-0.421875,-3.375
586,0.17895508,-1.0628052,-0.23028564,4.875,1.9375,5.0625
587,0.20410156,-1.0132446,-0.20831299,-5.625,0.75,7.765625
588,0.16772461,-0.923645,-0.2354126,-3.578125,-5.4375,5.203125
589,0.09301758,-0.9282837,-0.25079346,-0.796875,-3.40625,1.984375
590,0.046875,-0.92266846,-0.25299072,2.15625,0.921875,0.640625
591,0.08203125,-0.90826416,-0.24102783,-0.015625,-1.8125,-0.28125
592,0.1418457,-0.956604,-0.21514893,-2.15625,-3.921875,-0.609375
593,0.1484375,-1.0007935,-0.21685791,-2.515625,-2.6875,-0.125
594,0.11279297,-0.9573364,-0.22589111,-1.625,-2.21875,0.9375
595,0.08886719,-0.91241455,-0.22540283,-0.59375,-4.140625,2.484375
596,0.07470703,-0.91070557,-0.20635986,0.390625,-4.25,3.265625
597,0.087646484,-0.94976807,-0.21588135,-2.140625,-3.28125,1.671875
598,0.087402344,-0.96099854,-0.2185669,-1.546875,-1.0,-0.03125
599,0.10888672,-0.95269775,-0.20928955,-2.78125,-0.375,0.515625
600,0.10180664,-0.9380493,-0.21148682,-2.390625,-0.140625,2.375
601,0.087402344,-0.93634033,-0.20440674,-2.8125,-2.296875,2.421875
602,0.08618164,-0.9517212,-0.21124268,-3.5625,-1.46875,0.9375
603,0.09350586,-0.96221924,-0.20855713,-1.640625,0.25,1.21875
604,0.12475586,-0.9619751,-0.19268799,0.5625,-1.15625,2.328125
605,0.1743164,-0.9314575,-0.17071533,3.015625,-1.359375,5.34375
606,0.20458984,-0.92022705,-0.16021729,-1.453125,-2.546875,4.296875
607,0.18847656,-0.9536743,-0.16143799,-5.5625,-5.765625,-1.1875
608,0.092285156,-1.0037231,-0.17022705,-4.421875,-4.453125,-1.34375
609,0.06347656,-0.9849243,-0.1975708,-3.09375,-0.03125,-1.59375
610,0.09838867,-0.90704346,-0.17755127,2.1875,4.4375,-2.90625
611,0.15209961,-0.89678955,-0.17095947,3.953125,4.890625,-2.109375
612,0.18920898,-0.9404907,-0.16656494,0.625,1.859375,-0.53125
613,0.15063477,-0.9458618,-0.17510986,-2.546875,-1.0,-0.078125
614,0.119140625,-0.94659424,-0.1716919,0.96875,-0.34375,0.015625
615,0.107666016,-0.9404907,-0.1560669,2.96875,1.828125,-1.375
616,0.0871582,-0.97052,-0.16778564,3.390625,4.171875,-2.828125
617,0.099609375,-0.95318604,-0.17022705,0.03125,3.359375,-5.75
618,0.07739258,-0.93756104,-0.1375122,3.734375,4.609375,-3.84375
619,0.044433594,-0.94195557,-0.14239502,5.8125,8.0625,0.390625
620,0.06762695,-0.9360962,-0.15020752,1.65625,6.40625,-0.0625
621,0.08520508,-0.97784424,-0.15020752,1.53125,4.78125,-3.484375
622,0.07006836,-1.0059204,-0.16973877,1.84375,8.859375,-5.203125
623,0.06665039,-1.0122681,-0.2288208,-3.359375,5.90625,-9.046875
624,0.0073242188,-0.99468994,-0.30767822,-2.859375,6.390625,-7.25
625,0.0949707,-0.9907837,-0.23565674,10.59375,6.328125,3.3125
626,0.16088867,-0.9002075,-0.24468994,14.953125,3.21875,7.671875
627,0.19042969,-0.83380127,-0.2432251,4.390625,1.703125,3.96875
628,0.0871582,-0.86553955,-0.26104736,0.3125,-6.5625,-2.609375
629,-0.055419922,-0.9692993,-0.3098755,-0.078125,-2.796875,-3.546875
630,-0.07421875,-0.9976196,-0.32330322,4.984375,9.796875,-0.015625
631,0.048583984,-0.9561157,-0.27960205,8.84375,6.0625,-2.65625
632,0.11694336,-0.9397583,-0.27056885,6.296875,4.828125,-1.078125
633,0.107666016,-0.9126587,-0.25323486,0.234375,4.140625,2.890625
634,0.061035156,-0.9031372,-0.28375244,-3.859375,-3.71875,0.453125
635,0.026611328,-0.90826416,-0.32208252,-2.921875,-2.328125,-3.078125
636,0.022216797,-0.9487915,-0.2930298,2.578125,3.953125,0.328125
637,0.02758789,-0.94659424,-0.27642822,3.828125,2.109375,1.375
638,0.06933594,-0.9221802,-0.2930298,-0.828125,-2.09375,-2.046875
639,0.071777344,-0.95391846,-0.2876587,-1.6875,-1.03125,-0.875
640,0.06689453,-0.95098877,-0.27716064,0.6875,0.375,0.640625
641,0.024169922,-0.9326782,-0.28448486,0.125,-0.53125,-0.71875
642,0.014892578,-0.9151001,-0.28546143,-0.4375,-2.921875,-3.046875
643,0.001953125,-0.9282837,-0.27349854,0.078125,0.4375,-3.3125
644,0.025146484,-0.9378052,-0.2876587,-4.1875,0.4375,-3.796875
645,0.03564453,-0.9402466,-0.29107666,-1.34375,-0.703125,-3.640625
646,0.017822266,-0.95269775,-0.27838135,1.1875,4.515625,-3.0625
647,-0.005126953,-0.91778564,-0.2810669,-0.53125,4.890625,-2.859375
648,-0.029296875,-0.90167236,-0.3040161,0.28125,2.3125,-1.78125
649,-0.0043945312,-0.8989868,-0.31085205,-2.28125,3.328125,-2.1875
650,0.025634766,-0.9417114,-0.29400635,-1.625,2.71875,-2.078125
651,0.009765625,-0.9795532,-0.27178955,-1.265625,0.578125,-0.875
652,-0.009033203,-0.9649048,-0.2786255,-4.6875,-3.515625,0.234375
653,-0.032714844,-0.90948486,-0.2630005,-4.03125,-1.125,-0.09375
654,-0.035888672,-0.8960571,-0.27520752,-1.953125,-4.5,0.34375
655,-0.008300781,-0.9038696,-0.28082275,-2.984375,-5.9375,0.546875
656,0.04248047,-0.93170166,-0.24810791,-2.53125,-6.53125,1.09375
657,0.032714844,-0.9573364,-0.21221924,-3.984375,-9.828125,2.125
658,0.014404297,-0.9727173,-0.22784424,-3.984375,-8.9375,3.234375
659,-0.01171875,-0.99224854,-0.22906494,-4.96875,-9.390625,2.390625
660,-0.014160156,-1.0078735,-0.21661377,-1.140625,-11.09375,-0.125
661,-0.030273438,-0.97662354,-0.21368408,0.828125,-9.78125,-0.875
662,-0.041015625,-0.9187622,-0.23175049,0.015625,-10.0625,-0.53125
663,-0.022705078,-0.90875244,-0.25933838,-1.578125,-14.859375,-0.390625
664,0.021728516,-0.97979736,-0.22198486,2.09375,-8.96875,0.078125
665,0.020751953,-0.95196533,-0.19342041,5.421875,-1.078125,0.828125
666,-0.02734375,-0.8880005,-0.24273682,3.265625,-2.53125,0.625
667,0.0021972656,-0.8648071,-0.26837158,0.03125,-2.796875,2.125
668,0.06640625,-0.9483032,-0.24249268,4.15625,-4.203125,2.359375
669,0.08081055,-1.0430298,-0.24859619,1.125,-3.21875,6.09375
670,0.08276367,-0.97125244,-0.23223877,-2.890625,-3.828125,6.875
671,0.059814453,-0.8911743,-0.24127197,1.28125,-5.5625,5.125
672,0.057373047,-0.93170166,-0.2564087,5.5,-0.640625,2.78125
673,0.06713867,-0.9619751,-0.2559204,2.171875,0.140625,2.09375
674,0.09667969,-0.9368286,-0.24298096,1.421875,-2.75,3.4375
675,0.107666016,-0.92266846,-0.25494385,1.625,-3.640625,4.03125
676,0.10546875,-0.93218994,-0.26397705,0.203125,-2.5625,2.5625
677,0.08691406,-0.92559814,-0.26568604,1.78125,-0.671875,1.484375
678,0.095458984,-0.9500122,-0.2546997,2.203125,-0.34375,2.78125
679,0.11376953,-0.9492798,-0.25079346,-0.453125,-1.09375,4.0
680,0.1274414,-0.91607666,-0.25128174,1.0,-1.890625,2.953125
681,0.115722656,-0.9168091,-0.26080322,1.515625,-1.21875,2.859375
682,0.092041016,-0.9143677,-0.25787354,0.96875,-1.15625,3.078125
683,0.08886719,-0.9356079,-0.269104,0.34375,-0.4375,2.890625
684,0.11303711,-0.94415283,-0.25250244,1.484375,1.484375,2.0625
685,0.119140625,-0.96759033,-0.2666626,-0.359375,0.140625,2.296875
686,0.12890625,-0.9212036,-0.25323486,-0.078125,-0.890625,2.734375
687,0.13745117,-0.9356079,-0.2727661,-4.0,-3.09375,2.84375
688,0.12646484,-0.9536743,-0.26397705,-4.3125,-3.078125,-0.140625
689,0.1262207,-0.97784424,-0.24591064,-0.46875,-2.4375,1.09375
690,0.15307617,-0.9414673,-0.2559204,-0.71875,-2.359375,2.109375
691,0.17602539,-0.87945557,-0.24249268,4.21875,-1.25,2.078125
692,0.17480469,-0.8765259,-0.24029541,7.890625,2.0625,2.015625
693,0.1706543,-0.90093994,-0.23199463,1.796875,0.03125,1.375
694,0.12841797,-0.9463501,-0.23931885,-2.4375,-1.421875,-0.6875
695,0.08984375,-0.96710205,-0.23980713,-0.703125,0.390625,-2.828125
696,0.06518555,-0.94415283,-0.2571411,3.453125,3.5625,-0.640625
697,0.15234375,-0.88726807,-0.26153564,2.609375,3.90625,0.34375
698,0.22363281,-0.8936157,-0.23858643,7.25,3.859375,1.296875
699,0.2211914,-0.96099854,-0.25201416,3.765625,-0.234375,2.15625
700,0.14355469,-0.95977783,-0.23175049,-1.1875,-4.0625,2.515625
701,0.052978516,-0.92852783,-0.237854,1.984375,1.53125,0.546875
702,0.0012207031,-0.90167236,-0.24932861,3.0,7.0625,-4.921875
703,0.017578125,-0.9470825,-0.24908447,0.0,9.34375,-9.5
704,0.06347656,-0.9990845,-0.20318604,-5.390625,13.6875,-8.140625
705,0.10058594,-0.9973755,-0.21905518,-9.109375,8.140625,-5.625
706,0.15307617,-0.93292236,-0.30133057,-15.625,3.671875,-6.296875
707,0.109375,-0.95147705,-0.31304932,-12.46875,-0.03125,-1.625
708,0.13769531,-0.9795532,-0.25372314,10.71875,-1.125,2.734375
709,0.05126953,-0.8814087,-0.25543213,13.890625,10.71875,10.328125
710,0.09423828,-0.7769165,-0.27593994,3.0625,4.78125,5.5625
711,0.106933594,-0.84991455,-0.28277588,-2.59375,-7.71875,-6.0
712,0.06933594,-1.0195923,-0.32330322,1.328125,0.109375,-4.421875
713,0.083740234,-1.0159302,-0.32476807,0.8125,7.3125,0.90625
714,0.09643555,-0.88604736,-0.2937622,3.890625,2.015625,2.3125
715,0.11621094,-0.88726807,-0.29693604,6.84375,0.25,4.578125
716,0.1237793,-0.928772,-0.30010986,2.0625,-0.421875,0.65625
717,0.08520508,-0.94366455,-0.31549072,-2.09375,-2.8125,-2.015625
718,0.06542969,-0.9092407,-0.31793213,-0.328125,-0.6875,-0.234375
719,0.06713867,-0.9048462,-0.302063,3.375,0.5625,0.953125
720,0.103027344,-0.9170532,-0.30303955,2.359375,0.640625,-1.234375
721,0.100097656,-0.9380493,-0.3027954,-2.171875,0.75,-3.53125
722,0.08325195,-0.9505005,-0.28790283,-5.09375,-1.28125,-2.125
723,0.0625,-0.9529419,-0.28814697,-1.1875,-0.625,-0.625
724,0.07470703,-0.9194946,-0.29180908,-4.484375,1.0,-1.28125
725,0.05029297,-0.90948486,-0.28912354,-4.015625,0.59375,-3.8125
726,0.022460938,-0.93414307,-0.25567627,2.03125,3.78125,-2.8125
727,0.018554688,-0.909729,-0.2720337,0.34375,7.875,-1.59375
728,0.04711914,-0.87213135,-0.315979,-2.296875,2.59375,-3.4375
729,0.06518555,-0.8970337,-0.32086182,-0.5625,-0.4375,-2.015625
730,0.076660156,-0.97491455,-0.2930298,1.796875,1.71875,0.765625
731,0.043945312,-0.9817505,-0.28326416,-1.078125,3.015625,0.390625
732,-0.028076172,-0.96051025,-0.2925415,1.28125,1.75,-1.40625
733,-0.033447266,-0.9492798,-0.2937622,4.6875,1.34375,-1.03125
734,-0.0036621094,-0.8987427,-0.3027954,-0.09375,0.75,-1.859375
735,0.036376953,-0.9158325,-0.28790283,0.53125,-0.5,-1.4375
736,0.04638672,-0.9561157,-0.27056885,-0.671875,-1.0625,1.96875
737,0.021484375,-0.9385376,-0.28497314,-0.765625,-3.625,3.234375
738,0.0041503906,-0.90997314,-0.29083252,1.625,-3.6875,2.515625
739,-0.007080078,-0.88897705,-0.29083252,3.34375,-2.78125,2.21875
740,-0.0031738281,-0.8875122,-0.27398682,1.75,-3.5625,2.96875
741,0.028808594,-0.9607544,-0.27130127,-2.53125,-6.140625,2.4375
742,0.037841797,-1.0366821,-0.2522583,-11.390625,-10.734375,1.328125
743,0.031982422,-0.98223877,-0.25811768,-8.25,-15.71875,-0.59375
744,0.1027832,-0.93414307,-0.2793579,2.8125,-13.421875,1.0625
745,0.07739258,-0.9421997,-0.29327393,-4.125,-15.34375,0.75
746,0.118896484,-0.92144775,-0.19268799,-2.859375,-10.046875,2.015625
747,0.0012207031,-0.91241455,-0.27130127,4.28125,-7.875,5.296875
748,0.037109375,-0.8970337,-0.3291626,-1.40625,-4.203125,-1.125
749,0.12792969,-0.892395,-0.2654419,5.71875,-1.921875,-6.046875
750,0.15307617,-0.96099854,-0.26690674,12.015625,0.640625,2.96875
751,0.15942383,-0.987854,-0.26885986,-5.53125,-4.703125,10.046875
752,0.13696289,-0.89801025,-0.21734619,-9.28125,-10.171875,5.734375
753,0.09472656,-0.9170532,-0.30108643,3.953125,-3.53125,-0.125
754,0.096191406,-0.928772,-0.29351807,6.4375,8.109375,-0.203125
755,0.109375,-0.9216919,-0.25250244,4.453125,4.578125,3.515625
756,0.15942383,-0.93585205,-0.25933838,-0.15625,-1.0625,3.359375
757,0.17114258,-0.9805298,-0.28082275,-5.640625,-4.171875,1.84375
758,0.13964844,-0.9463501,-0.24517822,-1.78125,-2.609375,2.078125
759,0.096191406,-0.9048462,-0.27398682,1.15625,1.1875,4.734375
