sample_no,accel_x,accel_y,accel_z,gyro_x,gyro_y,gyro_z
0,-0.8105469,0.07324219,0.044921875,25.71875,41.1875,3.59375
1,-0.87597656,0.13769531,0.21191406,-7.09375,23.90625,-0.09375
2,-1.0761718999999998,0.087890625,0.5253906,42.09375,5.90625,6.5
3,-1.0146484,0.030273438,-0.036132812,17.5,13.03125,-18.625
4,-1.3603516000000002,0.3564453,-0.10546875,32.8125,25.375,-14.71875
5,-0.8535155999999999,0.27539062,0.060546875,-33.65625,36.46875,-19.96875
6,-0.76953125,0.16992188,-0.08886719,49.28125,7.84375,4.8125
7,-1.2490233999999998,-0.0859375,-0.10253906,32.4375,-8.21875,20.59375
8,-1.0244141,0.0,0.03125,25.1875,5.40625,-15.46875
9,-0.91015625,0.18554688,-0.045898438,36.21875,0.09375,-8.1875
10,-1.0537108999999998,0.25683594,0.029296875,16.75,9.125,1.4375
11,-0.9794921999999998,0.14648438,-0.047851562,-3.5,2.71875,-3.5625
12,-1.0361328,-0.02734375,-0.038085938,1.625,10.46875,-1.4375
13,-0.9638671999999998,0.06640625,-0.001953125,3.75,20.84375,-1.4375
14,-0.9609375,0.22070312,-0.00390625,-6.0625,24.28125,3.21875
15,-0.98535156,0.13867188,0.02734375,3.875,27.75,9.8125
16,-1.0732422,0.040039062,-0.083984375,-20.65625,25.0,9.5
17,-0.99316406,0.14746094,0.0146484375,-28.59375,23.65625,1.9375
18,-1.1484375,0.025390625,0.0078125,-42.875,26.21875,-5.8125
19,-0.99316406,0.15234375,-0.23535156,-72.84375,17.0,-20.96875
20,-1.0791016000000002,0.29589844,-0.046875,-28.90625,-18.53125,4.3125
21,-1.1513672,0.234375,0.17480469,-31.65625,-38.0,4.25
22,-1.1455078,0.21777344,0.22460938,-59.34375,-60.15625,-1.3125
23,-0.9814453000000002,0.034179688,0.009765625,-38.125,-82.125,-10.8125
24,-0.85253906,0.17773438,-0.15722656,6.8125,-77.46875,1.875
25,-0.875,0.20898438,0.07910156,21.15625,-50.6875,10.96875
26,-0.7871094,0.16503906,0.083984375,22.75,-2.65625,2.59375
27,-0.81152344,0.23925781,0.061523438,-4.96875,23.59375,-3.375
28,-0.9550781,0.12597656,0.056640625,4.96875,43.1875,-2.03125
29,-0.9589844,0.16699219,0.15136719,6.4375,31.46875,-3.625
30,-0.8623046999999998,0.11328125,0.31054688,17.3125,5.21875,-5.28125
31,-0.82128906,-0.06738281,0.17480469,17.8125,-0.75,-7.34375
32,-1.6757812,0.21191406,0.083984375,47.09375,10.09375,-7.65625
33,-0.9863281,0.15722656,0.14550781,-26.09375,14.375,-34.9375
34,-0.50683594,0.30371094,-0.30566406,38.125,0.34375,1.125
35,-1.2773438,-0.14453125,0.09765625,80.90625,-15.90625,17.875
36,-1.0712891000000002,0.15234375,-0.1796875,10.09375,8.875,-7.40625
37,-0.9433594,0.24804688,-0.0009765625,31.34375,-1.625,3.53125
38,-1.0341797,0.2265625,0.013671875,5.21875,6.3125,3.09375
39,-0.95703125,0.12402344,-0.038085938,-0.28125,13.46875,-3.9375
40,-1.0263672,-0.00390625,-0.0234375,9.4375,22.0625,3.75
41,-0.95996094,0.14160156,0.0546875,12.96875,29.46875,-0.6875
42,-0.9941406,0.1640625,0.12597656,-13.34375,34.28125,0.59375
43,-0.97265625,0.20996094,0.02734375,-44.65625,34.09375,-0.09375
44,-1.0068359,0.10449219,0.056640625,-43.90625,20.0,8.28125
45,-1.1416016000000002,-0.020507812,0.0234375,-51.78125,16.9375,5.09375
46,-1.1474608999999998,0.08984375,-0.087890625,-81.8125,-8.9375,-14.3125
47,-1.0927733999999998,0.15820312,0.040039062,-46.28125,-36.09375,-6.375
48,-1.59375,0.26464844,0.4140625,-2.65625,-89.0,9.875
49,-0.79003906,0.390625,-0.21875,-12.34375,-138.75,-11.125
50,-0.72265625,0.0087890625,-0.048828125,1.0,-86.34375,39.84375
51,-0.84277344,0.18066406,0.07421875,16.28125,-3.5,7.4375
52,-0.6347656,0.053710938,0.076171875,-17.96875,40.125,-15.9375
53,-0.7158203000000001,-0.018554688,-0.041015625,-5.625,71.875,-25.53125
54,-0.8144531,0.23535156,0.11230469,-7.78125,77.78125,-4.90625
55,-0.8779296999999998,0.048828125,0.5419921999999999,-3.875,5.84375,5.71875
56,-1.2587891000000002,-0.21875,0.13964844,102.4375,-72.65625,12.375
57,-1.6191406000000002,0.49316406,-0.5595703000000001,-27.75,42.5625,4.4375
58,-0.9902344,0.10839844,0.75,32.9375,-17.34375,-5.9375
59,-0.6298828000000001,0.0625,-0.30078125,68.9375,-8.8125,13.40625
60,-1.3623047,-0.0703125,-0.03515625,76.34375,-18.8125,45.625
61,-0.9980469,0.20703125,0.1796875,23.15625,33.71875,-34.8125
62,-0.9394531,0.27148438,-0.040039062,13.59375,29.8125,-28.15625
63,-1.0634766000000002,0.3642578,-0.09863281,37.34375,36.15625,-14.71875
64,-0.99609375,0.15722656,0.0078125,23.71875,27.5,-5.875
65,-0.9003905999999999,0.07128906,-0.13769531,2.21875,22.625,0.03125
66,-0.9169921999999998,0.10058594,-0.045898438,-11.125,49.09375,-4.65625
67,-0.9746094,0.18164062,0.08691406,-18.09375,35.375,-1.78125
68,-0.91015625,0.22167969,0.032226562,-75.40625,23.15625,-10.21875
69,-1.1503906000000002,-0.078125,-0.13378906,-61.375,7.46875,-1.65625
70,-1.359375,0.107421875,-0.16699219,10.78125,-37.6875,5.21875
71,-1.3310547,0.33398438,0.19433594,-49.53125,-65.34375,4.6875
72,-0.99316406,0.49804688,0.32617188,-96.40625,-72.0,1.5625
73,-0.9511719,-0.10449219,0.13867188,-24.0625,-136.875,-3.0
74,-0.88964844,0.24707031,-0.4873047,3.09375,-113.3125,23.0
75,-1.0136719,-0.0546875,0.044921875,26.09375,-55.1875,45.3125
76,-0.7050781,0.30371094,0.1640625,7.3125,2.21875,-20.59375
77,-0.67089844,0.171875,0.125,-5.21875,30.96875,-6.125
78,-0.8652344000000001,0.05859375,0.057617188,-41.21875,80.53125,-27.90625
79,-0.7158203000000001,0.23730469,0.029296875,-13.5625,97.5625,-14.5625
80,-1.0400391,0.08496094,0.36914062,-9.71875,75.34375,-3.625
81,-1.0976562,0.0625,0.4794922,-3.5,-6.6875,7.84375
82,-1.5869141000000002,0.26757812,0.07910156,76.6875,-42.375,9.3125
83,-0.7998046999999999,-0.12207031,-0.24902344,6.6875,-0.5625,-35.375
84,-0.7314453000000001,-0.001953125,-0.030273438,50.375,10.21875,-4.28125
85,-1.0263672,0.0048828125,-0.18652344,62.0625,-11.0,29.65625
86,-1.1630858999999998,0.37109375,0.2919922,49.59375,11.8125,-4.59375
87,-0.97753906,0.26171875,0.061523438,34.9375,5.34375,-5.875
88,-1.0263672,0.09277344,-0.10546875,18.46875,7.1875,-4.53125
89,-0.9921875,0.10839844,-0.12597656,14.125,30.0,-15.34375
90,-0.9501953000000002,0.06347656,0.01171875,31.90625,20.1875,-3.5
91,-1.0009766,0.22949219,0.060546875,5.96875,33.53125,-6.3125
92,-0.9316406,0.2841797,-0.013671875,-8.3125,39.46875,0.03125
93,-1.0146484,0.22265625,0.0087890625,-19.0,30.6875,10.34375
94,-1.1191406000000002,0.076171875,0.14160156,-32.3125,23.46875,5.65625
95,-1.2021483999999998,-0.12011719,-0.07714844,-83.46875,16.6875,-8.8125
96,-0.92578125,0.3125,-0.11230469,-87.5,-38.65625,-12.96875
97,-1.1904297,0.37597656,0.16894531,-63.3125,-51.46875,1.0625
98,-1.2509766000000002,0.059570312,0.21191406,-44.46875,-93.96875,20.0
99,-0.9296875,0.08105469,0.125,-35.71875,-93.03125,-4.34375
100,-0.9345703000000002,0.15234375,-0.30078125,-4.46875,-93.40625,17.9375
101,-0.87597656,0.17578125,0.16503906,36.21875,-44.65625,8.53125
102,-0.7519531,0.26464844,0.10839844,9.125,-14.75,0.90625
103,-0.828125,0.15820312,0.109375,15.125,6.09375,-2.46875
104,-0.77441406,0.12109375,0.14257812,4.90625,25.0625,-8.75
105,-0.86816406,0.14453125,0.17285156,0.875,36.53125,-5.5625
106,-1.0380859,0.1171875,0.3955078,20.25,32.03125,-9.71875
107,-0.7392578000000001,-0.0146484375,0.19042969,4.90625,25.65625,-21.875
108,-1.0849608999999998,0.06542969,0.32128906,22.25,4.75,-8.8125
109,-1.6679688,0.21972656,0.06640625,33.46875,37.875,-10.59375
110,-0.6748046999999999,0.265625,-0.109375,-30.25,25.25,-33.53125
111,-0.7675781,0.22753906,-0.19824219,90.375,-10.84375,27.5625
112,-1.2392578,-0.125,0.087890625,105.0625,-4.53125,33.78125
113,-1.0078125,0.2265625,0.11230469,4.84375,16.09375,-21.03125
114,-0.9716796999999998,0.18847656,0.043945312,38.3125,2.90625,-4.59375
115,-1.0263672,0.103515625,0.017578125,2.1875,18.59375,-17.90625
116,-0.94921875,0.14550781,-0.12890625,-5.6875,28.96875,-15.9375
117,-0.9794921999999998,0.049804688,-0.0859375,29.40625,24.03125,-0.5
118,-0.9824219,0.125,0.0234375,17.8125,26.9375,-0.5625
119,-0.9394531,0.20214844,-0.021484375,-5.46875,35.6875,-1.5625
120,-1.0585938,0.18359375,-0.047851562,-13.28125,36.71875,5.90625
121,-1.0576172,0.15234375,0.07910156,-29.125,25.4375,7.25
122,-1.1669922,-0.08203125,-0.0029296875,-47.8125,7.40625,6.09375
123,-1.0136719,0.17480469,-0.20605469,-97.3125,-0.28125,-20.84375
124,-1.0761718999999998,0.27734375,0.10546875,-63.0625,-35.0,-4.34375
125,-1.2236328,0.20605469,0.31640625,-66.1875,-57.40625,1.5625
126,-1.171875,0.052734375,0.17285156,-43.65625,-89.3125,-12.78125
127,-0.8300780999999999,0.13867188,-0.1953125,-15.90625,-104.6875,-2.15625
128,-0.9453125,0.10839844,0.13964844,29.875,-74.1875,13.40625
129,-0.8535155999999999,0.20214844,0.052734375,18.21875,-28.46875,5.53125
130,-0.78808594,0.15332031,0.09082031,18.84375,0.09375,2.96875
131,-0.8105469,0.1875,0.13378906,5.59375,31.15625,-6.5625
132,-0.7109375,0.20800781,0.076171875,-16.9375,49.53125,-9.53125
133,-1.046875,0.14550781,0.32226562,8.28125,35.5,-1.125
134,-0.89453125,-0.28027344,0.36328125,60.21875,2.0,-16.625
135,-0.69921875,-0.024414062,0.0107421875,-16.125,17.375,-2.46875
136,-1.6689453,0.31152344,0.32617188,83.03125,-3.5625,15.125
137,-0.91015625,0.2529297,-0.01953125,-40.0625,24.4375,-47.1875
138,-0.5107422,0.25585938,-0.32714844,61.0625,-7.21875,8.21875
139,-1.2900391000000002,-0.02734375,0.030273438,114.84375,-4.90625,42.40625
140,-1.0166016,0.1875,0.0009765625,-5.75,43.90625,-32.8125
141,-0.94921875,0.29101562,-0.01171875,50.5,29.875,-9.96875
142,-1.0146484,0.14355469,0.06933594,20.125,35.9375,-21.3125
143,-0.96484375,0.1171875,-0.01953125,-8.8125,25.5625,-11.375
144,-0.9863281,-0.005859375,-0.06347656,18.21875,15.46875,0.65625
145,-0.95214844,0.10644531,-0.0625,3.46875,30.375,-5.46875
146,-1.0234375,0.2998047,-0.052734375,-14.625,26.9375,2.125
147,-0.984375,0.19042969,-0.041992188,-19.4375,13.71875,9.4375
148,-1.0224609,-0.033203125,-0.022460938,-48.0,21.21875,-3.6875
149,-1.0751953,0.017578125,-0.049804688,-65.40625,44.90625,-6.0
150,-1.1621093999999998,0.123046875,-0.09667969,-65.03125,-5.8125,-9.96875
151,-1.125,0.18457031,0.0029296875,-43.46875,-29.875,-10.46875
152,-1.2138672,0.1875,0.21289062,-89.125,-62.84375,-0.625
153,-1.1113281000000002,0.15332031,0.029296875,-72.53125,-77.65625,-3.9375
154,-0.91796875,0.08203125,-0.14941406,-17.0,-104.09375,-12.59375
155,-0.9375,0.08203125,-0.060546875,28.84375,-83.40625,17.5625
156,-0.86035156,0.021484375,0.0146484375,36.21875,-34.625,4.875
157,-0.84277344,0.20605469,0.13769531,15.96875,-0.4375,-7.46875
158,-0.8125,0.24707031,0.083984375,0.15625,21.59375,-10.40625
159,-0.81640625,0.12402344,0.10839844,0.09375,32.875,-1.25
160,-0.9111328000000002,0.07128906,0.13085938,3.15625,39.28125,1.0625
161,-0.9013671999999998,0.07421875,0.22265625,4.96875,30.0625,-4.15625
162,-0.8144531,0.025390625,0.20117188,7.78125,-10.34375,10.59375
163,-1.4638672,0.0087890625,0.2783203,58.9375,-11.75,0.65625
164,-1.0449219,0.22949219,-0.12792969,-24.75,25.25,-10.53125
165,-0.7060546999999999,0.078125,-0.0009765625,57.28125,-0.28125,-0.5
166,-1.0380859,0.072265625,-0.20019531,63.5625,-6.75,31.84375
167,-1.1230468999999998,0.1640625,0.099609375,12.65625,46.375,-20.15625
168,-0.9433594,0.21191406,-0.0546875,18.21875,18.78125,-3.25
169,-1.0878906000000002,0.08105469,0.0068359375,29.21875,27.8125,-10.09375
170,-0.9658203000000002,0.08203125,-0.10253906,1.5625,33.1875,-13.03125
171,-0.9873046999999998,0.0390625,0.013671875,35.3125,15.125,-0.21875
172,-1.0146484,0.13476562,0.0546875,18.71875,24.5625,-4.53125
173,-0.9794921999999998,0.25585938,0.01171875,-21.625,25.65625,-6.5625
174,-1.0175781,0.15820312,-0.0859375,-19.0,17.1875,8.34375
175,-1.0517578,0.07421875,-0.029296875,-28.65625,8.9375,4.0625
176,-1.0507812,0.064453125,0.046875,-64.125,12.375,-7.28125
177,-1.1582031000000002,0.14550781,-0.034179688,-94.75,-23.59375,-20.09375
178,-1.1816406000000002,0.2998047,0.044921875,-77.125,-39.6875,-5.09375
179,-1.1855468999999998,0.24121094,0.041015625,-78.75,-65.34375,5.15625
180,-1.0107422,-0.08691406,-0.036132812,-41.84375,-91.625,-4.28125
181,-0.8486328000000002,0.06347656,-0.21972656,4.78125,-86.375,4.75
182,-0.90722656,0.11230469,-0.0107421875,19.6875,-58.125,22.3125
183,-0.84375,0.1875,0.115234375,12.5625,-12.0625,-1.0
184,-0.8642578000000002,0.16894531,0.10058594,12.4375,-1.6875,-0.21875
185,-0.81347656,0.087890625,0.12402344,0.53125,18.15625,-8.9375
186,-0.83984375,0.09667969,0.20507812,4.6875,34.9375,-3.3125
187,-0.8701171999999998,0.0009765625,0.31835938,20.59375,25.5625,-4.21875
188,-1.0634766000000002,-0.037109375,0.3544922,-3.3125,30.375,-19.625
189,-0.9189453000000002,0.16113281,0.20898438,22.0625,11.09375,-24.75
190,-1.4404297,0.23339844,-0.11035156,54.96875,-3.125,23.59375
191,-0.8671875,0.08203125,0.140625,43.84375,5.59375,-12.84375
192,-0.8144531,-0.0107421875,-0.3232422,44.09375,34.03125,13.65625
193,-1.2392578,0.1484375,0.10546875,64.84375,15.78125,33.5625
194,-0.93652344,0.16992188,-0.0009765625,57.65625,9.125,-5.875
195,-0.9824219,0.1328125,0.018554688,25.25,18.96875,-3.8125
196,-1.0410156,0.12988281,-0.06542969,-3.75,29.28125,-15.28125
197,-0.9560546999999998,0.16699219,-0.051757812,12.1875,29.34375,-11.8125
198,-0.95996094,0.017578125,-0.06640625,22.4375,20.1875,0.09375
199,-1.0078125,0.041992188,-0.0078125,5.03125,20.0,-1.71875
200,-0.99902344,0.19140625,-0.0234375,-1.90625,31.65625,-4.34375
201,-0.9667969,0.18066406,-0.06933594,-20.21875,35.875,-1.5625
202,-0.96484375,0.296875,-0.021484375,-33.03125,33.1875,-0.5
203,-1.2529297,-0.08886719,-0.11816406,-38.78125,19.9375,6.4375
204,-1.1171875,0.18457031,-0.19433594,-56.78125,-9.53125,-17.65625
205,-1.1123047,0.36328125,0.16601562,-51.96875,-50.3125,-5.5625
206,-1.0546875,0.19140625,0.2919922,-117.75,-54.21875,1.9375
207,-1.0722656000000002,-0.030273438,-0.07128906,-95.96875,-78.09375,-6.375
208,-0.9580078000000002,0.15625,-0.46777344,-2.40625,-103.125,-3.5625
209,-1.0595703,0.043945312,0.09277344,37.75,-75.90625,18.15625
210,-0.82714844,0.20800781,0.08886719,27.375,-32.3125,-3.25
211,-0.81347656,0.22265625,0.041015625,24.6875,-14.78125,-2.59375
212,-0.8076171999999999,0.099609375,0.08203125,13.84375,6.5,-6.0
213,-0.8144531,0.11035156,0.17773438,12.5625,19.6875,-2.84375
214,-0.8730469000000001,0.1015625,0.24707031,23.21875,25.3125,6.25
215,-1.1611328,0.11425781,0.390625,0.34375,32.125,-14.5625
216,-0.7373046999999999,0.07421875,0.31835938,14.75,6.09375,-17.90625
217,-0.8886719000000001,-0.10253906,0.10058594,37.21875,-1.6875,-6.6875
218,-1.5917968999999998,0.26660156,-0.13085938,-12.96875,60.9375,7.1875
219,-0.9746094,0.18652344,0.15234375,11.3125,23.0,-14.4375
220,-0.5957031,0.20703125,-0.28320312,47.875,10.03125,3.21875
221,-1.2128906000000002,0.0126953125,0.06347656,94.28125,-9.65625,49.34375
222,-1.0478516,0.15820312,0.06640625,7.59375,17.84375,-18.5
223,-0.9667969,0.15039062,-0.0068359375,36.34375,19.375,-9.40625
224,-1.0419922,0.17773438,-0.009765625,3.625,39.59375,-23.75
225,-0.9580078000000002,0.17871094,-0.0625,7.53125,20.78125,-7.84375
226,-0.95703125,0.025390625,-0.19140625,11.375,19.5625,0.09375
227,-1.0058594,0.1796875,0.01953125,3.03125,27.125,-2.28125
228,-0.9863281,0.30566406,-0.0146484375,-20.71875,32.8125,2.125
229,-1.0234375,0.17382812,-0.047851562,-25.34375,26.03125,9.75
230,-1.0888672,0.025390625,-0.12597656,-70.53125,26.78125,-3.8125
231,-1.0976562,0.119140625,-0.12890625,-80.71875,-10.03125,-14.25
232,-1.1806641000000002,0.37109375,0.12792969,-51.34375,-45.1875,0.71875
233,-1.1142578,0.234375,0.17871094,-115.4375,-47.9375,6.5
234,-1.0537108999999998,-0.18066406,0.18554688,-28.53125,-70.03125,-12.09375
235,-1.0390625,0.119140625,-0.5019531,-19.875,-94.5625,1.8125
236,-0.9433594,0.13964844,0.14453125,46.59375,-54.78125,13.71875
237,-0.7402344,0.27441406,0.064453125,11.9375,-22.0625,5.65625
238,-0.82910156,0.1015625,0.0068359375,13.84375,5.65625,0.40625
239,-0.7753906,0.07519531,0.10644531,5.78125,29.5625,-9.3125
240,-0.79785156,0.051757812,0.07910156,8.875,36.09375,-0.6875
241,-1.0556641000000002,0.01953125,0.33496094,30.3125,21.40625,-8.75
242,-0.8261719000000001,0.0087890625,0.3017578,34.71875,-1.125,-16.5
243,-1.4443358999999998,0.036132812,0.087890625,32.6875,-11.125,-14.65625
244,-1.0693358999999998,0.21582031,-0.05859375,-1.375,22.4375,-11.1875
245,-0.5488281,0.35351562,-0.001953125,85.59375,-29.5,-19.4375
246,-0.9638671999999998,-0.07519531,-0.25976562,53.3125,10.40625,28.96875
247,-1.3652343999999998,0.095703125,0.109375,5.59375,6.5625,22.9375
248,-0.90527344,0.2685547,-0.013671875,50.03125,14.0625,-6.6875
249,-1.0810547,0.11035156,0.055664062,19.25,24.5,-2.53125
250,-0.97558594,0.13769531,-0.15136719,-12.28125,38.5,-19.6875
251,-0.94433594,0.087890625,-0.0234375,30.125,26.9375,-2.15625
252,-0.9902344,0.09277344,0.059570312,15.0625,35.3125,-0.3125
253,-1.0371094,0.23535156,0.10546875,-8.8125,33.4375,-4.0625
254,-1.0488281000000002,0.32226562,0.23925781,-21.5625,42.5625,-1.5
255,-1.1611328,-0.0029296875,-0.32714844,-126.3125,5.28125,-4.71875
256,-1.1181641000000002,0.26367188,0.1328125,-66.0,-32.96875,-19.6875
257,-1.3310547,0.39746094,0.1640625,-59.28125,-91.75,9.375
258,-0.9121094,0.10644531,-0.10253906,-35.0,-107.875,-8.9375
259,-0.9628906,-0.009765625,-0.080078125,16.34375,-89.0625,10.71875
260,-1.0644531000000002,0.091796875,0.13476562,19.3125,-57.09375,11.21875
261,-0.6777344,0.3125,0.09667969,15.78125,-26.09375,-2.46875
262,-0.70214844,0.07128906,0.049804688,3.40625,15.125,-0.5
263,-0.70410156,0.0546875,0.13476562,3.6875,38.78125,-7.71875
264,-0.859375,0.09472656,0.19824219,3.5625,45.8125,-8.375
265,-0.83203125,0.025390625,0.32910156,10.28125,42.75,-3.6875
266,-1.2597656000000002,-0.16894531,0.37109375,54.78125,-20.03125,3.34375
267,-1.4443358999999998,0.4580078,-0.18847656,-0.6875,32.25,-17.96875
268,-0.7109375,0.11816406,0.36035156,95.75,-15.28125,-14.65625
269,-0.82910156,-0.296875,-0.3232422,35.0,-3.75,13.15625
270,-1.2978516000000002,0.15039062,0.061523438,33.71875,14.0625,21.53125
271,-0.84765625,0.3515625,0.08691406,-1.625,37.15625,-25.78125
272,-1.0234375,0.16796875,-0.0048828125,46.59375,15.0,11.9375
273,-1.0644531000000002,0.09375,-0.051757812,-12.15625,55.6875,-18.34375
274,-0.9453125,0.14355469,-0.044921875,0.15625,42.28125,-12.71875
275,-0.9765625,0.033203125,-0.0546875,20.78125,36.15625,-5.875
276,-0.9716796999999998,0.1640625,0.057617188,3.625,44.28125,-6.84375
277,-1.0283203,0.31054688,0.12695312,-33.03125,40.5,-6.84375
278,-1.0117188,0.055664062,-0.076171875,-50.0625,26.90625,-4.78125
279,-0.99902344,-0.12207031,-0.0546875,-53.75,16.09375,-8.5
280,-1.1611328,0.14257812,-0.0078125,-56.40625,-31.75,-7.78125
281,-1.1708983999999998,0.4326172,0.20703125,-67.84375,-46.90625,5.03125
282,-1.1132812,0.21679688,-0.017578125,-86.875,-72.21875,3.65625
283,-1.1435547,0.047851562,-0.10644531,-34.375,-111.78125,5.09375
284,-0.99121094,0.080078125,-0.203125,-3.03125,-104.875,-6.1875
285,-0.8486328000000002,0.21191406,0.12792969,31.71875,-54.34375,5.09375
286,-0.7001953000000001,0.19824219,0.13769531,26.78125,-26.75,9.9375
287,-0.79785156,-0.009765625,0.11621094,10.53125,20.96875,-9.0625
288,-0.7421875,0.09667969,0.087890625,-7.28125,42.09375,-23.09375
289,-0.8515625,0.091796875,0.30273438,0.15625,64.0625,-17.21875
290,-0.96875,-0.00390625,0.34375,14.0625,27.3125,-1.3125
291,-1.3476562,-0.04296875,0.43359375,72.5,-69.46875,5.15625
292,-0.81640625,0.23925781,-0.5498046999999999,-33.65625,43.3125,-31.40625
293,-0.9375,0.055664062,0.18945312,72.125,-3.5,7.65625
294,-0.9140625,-0.05078125,-0.27734375,13.59375,33.1875,14.5
295,-1.2548828,0.09375,0.025390625,39.34375,35.6875,14.4375
296,-0.96972656,0.20214844,-0.03125,26.84375,35.25,-14.90625
297,-0.9921875,0.08691406,-0.020507812,39.03125,18.53125,-5.875
298,-1.0117188,0.13378906,-0.029296875,5.78125,32.5,-16.25
299,-0.9863281,0.15527344,-0.13378906,14.6875,30.25,-6.4375
300,-0.94921875,0.028320312,-0.0859375,34.59375,25.25,1.25
301,-1.0019531,0.11328125,-0.12402344,9.625,29.625,-0.21875
302,-0.9892578000000002,0.13476562,-0.028320312,5.28125,22.5625,5.53125
303,-0.9511719,0.095703125,-0.034179688,-6.25,17.8125,6.5625
304,-1.1191406000000002,0.08496094,-0.046875,-32.5,24.5625,-1.59375
305,-0.9873046999999998,0.19824219,-0.1015625,-55.4375,15.53125,-8.625
306,-1.2255858999999998,0.09863281,-0.057617188,-43.84375,-22.3125,1.875
307,-1.2851562,0.3486328,0.21386719,-60.3125,-49.03125,2.84375
308,-1.0986328,0.17480469,0.08105469,-126.0625,-72.78125,-10.59375
309,-0.9404296999999998,0.16015625,-0.0625,-73.9375,-75.71875,-4.28125
310,-0.9267578000000002,0.076171875,-0.5810546999999999,15.125,-88.46875,2.34375
311,-1.0283203,0.03515625,0.13476562,39.59375,-49.03125,17.96875
312,-0.71875,0.27246094,0.025390625,21.34375,-13.21875,-5.09375
313,-0.8613280999999999,0.08105469,0.076171875,9.0,23.71875,-6.0
314,-0.81152344,-0.018554688,0.12988281,7.46875,53.25,-26.6875
315,-0.7128906,-0.0068359375,0.18164062,23.15625,36.15625,-17.0625
316,-0.7998046999999999,-0.022460938,0.29785156,7.375,18.21875,-0.375
317,-1.6464843999999996,0.3154297,0.43847656,50.625,-77.25,33.0625
318,-0.96484375,-0.13671875,-0.2529297,17.5625,37.09375,-53.4375
319,-0.6513671999999999,0.18066406,0.016601562,45.03125,-7.28125,21.21875
320,-1.1855468999999998,-0.125,-0.33789062,56.90625,24.875,30.6875
321,-1.1757812,0.1796875,0.16894531,0.71875,53.125,2.34375
322,-0.92285156,0.32421875,0.025390625,49.78125,11.75,-6.5
323,-1.0566406000000002,0.08105469,0.09277344,28.78125,5.59375,-8.4375
324,-0.94140625,0.038085938,-0.07714844,-10.03125,28.90625,-17.65625
325,-1.0146484,0.060546875,-0.22558594,32.375,33.71875,-1.4375
326,-0.98535156,0.17285156,0.0234375,35.1875,25.65625,-1.90625
327,-0.9746094,0.25390625,-0.036132812,-4.40625,37.09375,-6.3125
328,-0.96777344,0.26171875,0.060546875,-20.34375,22.25,10.65625
329,-1.1123047,0.0126953125,0.12890625,-38.90625,-4.59375,12.78125
330,-1.0400391,-0.047851562,-0.046875,-102.0,-13.34375,-11.9375
331,-1.203125,0.3359375,0.064453125,-75.40625,-33.78125,-13.6875
332,-1.2636718999999998,0.29785156,0.09765625,-84.0625,-50.9375,10.21875
333,-0.9980469,0.19921875,0.0859375,-71.3125,-68.3125,-10.59375
334,-1.0898438,0.068359375,-0.22167969,-24.625,-74.84375,-2.9375
335,-0.9199219,0.10839844,0.06542969,31.90625,-72.34375,13.28125
336,-0.7324219,0.18164062,0.09277344,24.09375,-47.5625,19.375
337,-0.7753906,0.015625,0.08496094,26.46875,-11.875,12.625
338,-0.8154296999999999,0.047851562,0.13574219,20.375,21.40625,-11.875
339,-0.6982421999999999,0.043945312,0.12109375,20.0625,48.625,-18.5625
340,-1.0380859,-0.0029296875,0.3232422,-5.09375,45.1875,-13.5625
341,-1.1230468999999998,0.109375,0.49023438,26.78125,14.8125,-15.21875
342,-1.1259766000000002,0.13867188,-0.25878906,33.0625,8.21875,-19.4375
343,-0.88378906,0.18164062,-0.20605469,-4.71875,23.53125,12.78125
344,-0.97753906,0.11621094,0.13183594,97.3125,-1.1875,14.125
345,-1.0673828,0.08691406,-0.22851562,22.125,8.9375,11.15625
346,-1.0878906000000002,0.14941406,0.2578125,33.0625,17.5625,-10.75
347,-0.9638671999999998,0.13085938,-0.052734375,21.34375,20.90625,-14.90625
348,-1.0058594,0.06640625,-0.026367188,1.875,22.875,-15.28125
349,-0.95214844,0.13671875,-0.13769531,14.8125,29.9375,-5.15625
350,-0.9814453000000002,0.08691406,-0.12011719,24.75,29.9375,5.78125
351,-0.9433594,0.09765625,-0.04296875,21.15625,32.25,3.03125
352,-1.0253906,0.14257812,-0.022460938,-8.6875,35.25,2.71875
353,-0.9794921999999998,0.14746094,0.0390625,-19.75,33.4375,4.4375
354,-1.0966797,0.038085938,0.038085938,-37.6875,12.0,1.03125
355,-1.2197266000000002,0.017578125,-0.20019531,-49.46875,-10.53125,-3.0625
356,-1.1611328,0.421875,0.061523438,-45.875,-39.5,-0.03125
357,-1.0732422,0.23632812,0.21484375,-77.46875,-68.375,8.84375
358,-1.0878906000000002,0.08886719,0.15136719,-108.0625,-80.90625,-6.5625
359,-0.97265625,0.140625,-0.15625,-50.1875,-86.34375,-9.59375
360,-0.91308594,0.06347656,-0.3310547,42.46875,-84.3125,8.78125
361,-0.90722656,0.09472656,0.20019531,26.53125,-43.0,-0.375
362,-0.7714844,0.29003906,0.107421875,18.03125,-10.875,-4.71875
363,-0.84375,0.14160156,0.06933594,13.28125,9.6875,-5.9375
364,-0.8378905999999999,0.0546875,0.12402344,2.0,31.53125,-16.3125
365,-0.77246094,0.11816406,0.27148438,19.09375,51.3125,-9.90625
366,-0.89160156,0.0029296875,0.3251953,9.9375,52.21875,-6.0625
367,-1.4609375,0.087890625,0.5878906,2.40625,-10.21875,6.25
368,-0.9091796999999998,0.103515625,-0.32226562,32.4375,29.28125,-28.21875
369,-0.8076171999999999,0.018554688,-0.060546875,54.84375,14.8125,6.21875
370,-1.09375,-0.029296875,-0.28710938,28.21875,34.9375,16.65625
371,-1.1513672,0.26464844,-0.0234375,24.6875,25.625,8.53125
372,-0.9580078000000002,0.31933594,0.07714844,62.15625,-2.15625,-0.21875
373,-1.0351562,0.07128906,0.025390625,14.0,11.625,-7.96875
374,-1.0136719,0.06347656,-0.07714844,-21.75,15.84375,-16.625
375,-0.96777344,0.03515625,-0.09765625,5.59375,18.09375,-7.90625
376,-0.9609375,0.125,-0.018554688,6.6875,11.875,1.0625
377,-0.97558594,0.07324219,-0.0126953125,1.5,24.28125,3.8125
378,-1.0126953,0.12207031,0.020507812,-11.8125,29.34375,7.5625
379,-1.0166016,0.17480469,0.01171875,-27.84375,28.96875,6.3125
380,-1.1025391000000002,0.0859375,0.020507812,-40.1875,28.65625,1.875
381,-1.0703125,-0.017578125,-0.059570312,-54.53125,-14.90625,-2.09375
382,-1.1542968999999998,0.28515625,-0.055664062,-34.21875,-53.5625,-4.90625
383,-1.1171875,0.2607422,0.20703125,-68.375,-59.03125,3.6875
384,-1.1445312,0.103515625,0.23144531,-68.125,-72.15625,2.0625
385,-1.0419922,0.16308594,-0.3642578,-43.1875,-60.6875,-33.28125
386,-0.9199219,0.041992188,0.21875,40.5,-71.1875,9.0625
387,-0.7734375,0.21679688,0.072265625,17.1875,-31.09375,-0.875
388,-0.9013671999999998,0.078125,0.1171875,25.625,-10.65625,-0.4375
389,-0.81152344,0.07910156,0.064453125,11.03125,11.6875,-15.9375
390,-0.82421875,0.119140625,0.15625,21.65625,18.90625,-4.78125
391,-0.87890625,0.043945312,0.30078125,28.90625,25.375,-4.0
392,-0.7421875,-0.021484375,0.17773438,-8.25,33.65625,-11.8125
393,-1.7304688,0.07128906,0.21582031,11.5625,5.28125,9.6875
394,-0.7363281,0.05078125,-0.09472656,30.375,16.03125,-36.65625
395,-0.8457030999999999,0.15234375,-0.046875,55.875,9.125,22.9375
396,-1.0429688,-0.06738281,-0.16113281,31.40625,32.875,8.875
397,-1.1582031000000002,0.36621094,0.05859375,-0.40625,19.25,13.96875
398,-0.9238281,0.23339844,0.0390625,77.5,4.84375,1.75
399,-1.0556641000000002,0.017578125,-0.020507812,25.3125,10.71875,-0.375
400,-1.0429688,0.013671875,-0.0703125,5.15625,29.5625,-20.40625
401,-0.9589844,0.15136719,-0.12109375,18.09375,37.9375,-7.09375
402,-0.91796875,0.17382812,-0.123046875,17.625,32.75,1.8125
403,-0.99609375,0.12402344,-0.060546875,7.96875,38.5625,5.03125
404,-0.97753906,0.15820312,0.041015625,-13.875,37.09375,2.59375
405,-1.0927733999999998,0.21679688,0.02734375,-29.9375,12.5625,7.65625
406,-1.1005858999999998,0.16308594,0.009765625,-58.625,-1.3125,-0.75
407,-1.0566406000000002,0.048828125,-0.17089844,-113.3125,-27.1875,-12.28125
408,-1.1269531000000002,0.22558594,0.01171875,-70.8125,-57.71875,-1.0625
409,-1.2236328,0.20410156,0.17773438,-75.65625,-77.90625,11.28125
410,-1.0097656,0.0009765625,0.171875,-41.84375,-60.4375,-13.8125
411,-0.9941406,0.0107421875,-0.20800781,-32.5625,-63.3125,-8.375
412,-0.828125,0.18847656,0.21484375,34.53125,-50.0,6.875
413,-0.78222656,0.15234375,0.13378906,7.78125,-14.3125,7.65625
414,-0.87402344,0.041992188,0.109375,-5.75,11.28125,-4.40625
415,-0.84277344,0.060546875,0.12109375,11.3125,31.53125,-11.6875
416,-0.7705078000000001,-0.0078125,0.17773438,21.75,31.40625,-1.25
417,-0.83984375,-0.171875,0.29003906,43.1875,21.15625,-3.125
418,-1.0634766000000002,-0.030273438,0.32617188,27.125,6.3125,-7.21875
419,-1.7255859,0.15136719,0.05078125,36.96875,1.4375,-20.40625
420,-0.46289062,0.18554688,-0.23925781,3.625,11.625,-27.96875
421,-1.0019531,0.056640625,-0.044921875,124.125,-31.28125,39.46875
422,-1.1826172,0.05859375,-0.109375,11.09375,27.9375,4.625
423,-0.89746094,0.41503906,-0.0234375,37.5,29.34375,-16.1875
424,-1.0820312,0.1484375,-0.061523438,51.5625,22.0,1.03125
425,-0.9658203000000002,0.19433594,-0.028320312,-5.40625,38.4375,-17.40625
426,-0.96972656,0.09765625,-0.15527344,23.53125,41.84375,-3.75
427,-0.98828125,0.053710938,-0.044921875,6.09375,32.03125,2.71875
428,-0.93359375,0.15917969,0.0078125,-7.46875,41.84375,1.9375
429,-1.0371094,0.17382812,0.017578125,-30.71875,39.28125,8.21875
430,-1.0205078,0.15625,0.060546875,-24.0,27.5625,6.375
431,-1.1777343999999998,0.046875,0.080078125,-60.21875,10.21875,-3.1875
432,-1.1679688,0.013671875,-0.125,-65.875,-21.5625,-11.6875
433,-1.2060547,0.32128906,-0.061523438,-55.4375,-38.96875,3.40625
434,-1.0136719,0.24707031,0.111328125,-73.03125,-49.03125,3.21875
435,-1.1318358999999998,0.022460938,0.2626953,-41.15625,-68.3125,-6.75
436,-0.9716796999999998,0.13867188,-0.49023438,-51.21875,-100.5625,-16.25
437,-0.87597656,0.009765625,0.21191406,37.6875,-74.125,7.3125
438,-0.83691406,0.23242188,0.076171875,17.6875,-29.4375,6.5
439,-0.8720703000000002,-0.043945312,0.06933594,15.28125,4.4375,-6.1875
440,-0.8515625,0.08203125,0.068359375,13.21875,32.25,-21.4375
441,-0.82128906,0.14160156,0.17578125,34.59375,26.21875,-6.96875
442,-0.8359375,0.037109375,0.43945312,33.4375,18.28125,-1.71875
443,-0.88183594,-0.13964844,0.20898438,20.46875,-28.03125,-6.96875
444,-1.7392578,0.26660156,-0.30664062,17.625,35.125,15.40625
445,-0.99316406,0.09277344,0.21484375,-4.0625,27.625,-9.46875
446,-0.5957031,0.16113281,-0.29101562,-2.71875,34.28125,-2.65625
447,-1.3515625,-0.021484375,-0.15136719,69.0625,22.9375,37.8125
448,-0.9863281,0.24707031,0.265625,64.84375,32.8125,-21.6875
449,-0.98828125,0.1875,-0.13964844,27.25,18.71875,-8.1875
450,-0.98828125,0.19335938,-0.029296875,19.5625,41.84375,-14.5625
451,-1.0068359,0.0009765625,-0.16113281,1.0,22.9375,-0.3125
452,-0.9453125,0.038085938,-0.13964844,27.5,21.15625,-0.75
453,-0.9892578000000002,0.09472656,-0.040039062,1.75,32.5625,-2.65625
454,-1.0253906,0.26464844,-0.0078125,-8.4375,23.59375,1.75
455,-1.0048828,0.099609375,0.00390625,-10.46875,15.1875,10.84375
456,-1.1015625,0.024414062,-0.026367188,-49.9375,2.21875,-1.375
457,-1.1757812,0.08300781,-0.099609375,-51.84375,-30.90625,-9.96875
458,-1.2304688,0.36914062,0.005859375,-57.21875,-60.625,-4.46875
459,-1.0957031000000002,0.21582031,0.26367188,-134.125,-76.5,2.53125
460,-1.0039062,0.025390625,-0.029296875,-102.75,-89.875,-17.0625
461,-0.9580078000000002,0.14160156,-0.2578125,4.84375,-81.625,-5.09375
462,-0.9472656,0.025390625,0.06738281,53.1875,-72.0,22.125
463,-0.86621094,0.18554688,0.10449219,17.84375,-24.4375,-5.8125
464,-0.84375,0.13183594,0.09082031,23.09375,2.0625,-12.03125
465,-0.7890625,-0.001953125,0.10546875,12.90625,26.03125,-18.09375
466,-0.6826171999999999,0.14257812,0.18945312,21.71875,40.625,-2.09375
467,-0.86328125,0.049804688,0.2783203,19.8125,41.53125,9.8125
468,-1.2167968999999998,0.056640625,0.51464844,15.0,13.84375,15.96875
469,-1.2353516000000002,-0.06933594,0.25195312,46.25,-3.5,-27.90625
470,-0.7998046999999999,0.23730469,-0.4453125,-8.6875,29.09375,9.75
471,-1.0410156,-0.11328125,0.0,87.6875,23.09375,3.15625
472,-1.0878906000000002,0.21777344,-0.23144531,-12.65625,9.375,40.5625
473,-1.0263672,0.22363281,0.015625,60.53125,29.40625,-4.96875
474,-0.9638671999999998,0.16699219,-0.0234375,17.96875,17.3125,-7.71875
475,-1.0322266,0.111328125,0.00390625,4.75,25.5,-11.5625
476,-1.0068359,0.053710938,-0.047851562,1.1875,25.125,-7.28125
477,-0.9765625,0.08496094,-0.033203125,12.59375,15.46875,-5.40625
478,-1.0,0.14160156,0.040039062,10.15625,21.40625,-4.0625
479,-0.91503906,0.19921875,-0.046875,-27.4375,40.3125,-2.78125
480,-1.0019531,0.18164062,-0.09082031,-9.0,30.0625,11.5625
481,-1.1367188,-0.034179688,-0.018554688,-33.09375,35.5,-2.34375
482,-1.1669922,0.19433594,-0.078125,-47.375,-13.28125,-14.25
483,-1.1152343999999998,0.44921875,0.078125,-59.59375,-64.1875,-7.53125
484,-1.0820312,0.27246094,0.19335938,-150.96875,-72.96875,0.09375
485,-1.1865233999999998,-0.10546875,0.034179688,-77.25,-72.03125,-5.75
486,-1.0019531,-0.005859375,-0.76171875,7.59375,-102.0,-19.5
487,-1.0683593999999998,-0.14160156,0.46191406,78.65625,-57.875,2.0
488,-0.56640625,0.4404297,0.037109375,43.6875,-35.90625,-3.5625
489,-0.7675781,0.12109375,0.09863281,19.03125,-16.25,9.0625
490,-0.8261719000000001,0.0625,0.052734375,1.125,10.65625,-6.0625
491,-0.7607421999999999,0.08886719,0.19921875,34.34375,14.1875,-5.40625
492,-1.2548828,-0.26464844,0.51464844,31.65625,20.3125,-11.1875
493,-0.67871094,-0.076171875,0.15722656,2.59375,36.59375,-58.375
494,-0.6621094,0.19433594,-0.048828125,16.15625,21.09375,-5.40625
495,-1.9941406000000004,0.048828125,-0.0126953125,34.65625,53.3125,44.65625
496,-0.6689453000000001,0.30859375,0.12890625,32.5,-0.625,-9.65625
497,-0.81933594,0.13183594,-0.5654296999999999,49.59375,43.5625,22.375
498,-1.3896483999999998,0.0390625,0.0859375,56.75,60.28125,20.96875
499,-0.81640625,0.42089844,-0.125,24.8125,15.59375,-11.3125
500,-1.0908203,0.060546875,0.10253906,77.625,14.625,-0.4375
501,-1.0341797,0.034179688,0.068359375,-34.5625,39.71875,-25.34375
502,-0.9345703000000002,0.08691406,-0.36132812,2.71875,23.59375,-4.34375
503,-0.9746094,0.14746094,-0.038085938,15.40625,24.9375,-3.4375
504,-1.0029297,0.14648438,0.15429688,6.875,14.5,0.84375
505,-0.9355469,0.08203125,-0.22558594,-40.84375,29.8125,1.75
506,-1.0732422,0.11230469,-0.06542969,2.0,23.15625,7.5
507,-1.0917968999999998,0.22460938,0.041015625,-39.8125,22.5,-2.875
508,-1.1328125,0.080078125,-0.005859375,-92.4375,-9.25,-5.625
509,-1.2353516000000002,0.19238281,-0.15234375,-76.375,-37.3125,-9.3125
510,-1.0732422,0.17285156,0.12402344,-83.15625,-64.1875,-4.65625
511,-0.9951171999999998,0.0546875,0.08496094,-115.9375,-68.5625,-8.8125
512,-0.96777344,0.083984375,-0.0146484375,-55.125,-71.25,-21.09375
513,-0.9433594,0.032226562,-0.12890625,47.53125,-92.5,12.6875
514,-0.9199219,0.032226562,0.0625,38.78125,-56.90625,11.21875
515,-0.8730469000000001,0.111328125,0.11621094,34.46875,-24.8125,-4.59375
516,-0.78515625,0.111328125,0.07324219,24.5,1.6875,-17.96875
517,-0.73828125,0.07421875,0.08496094,14.9375,18.46875,-16.3125
518,-0.7734375,0.10058594,0.2109375,14.3125,34.15625,-3.0
519,-0.93652344,0.01953125,0.25390625,13.59375,31.78125,7.375
520,-1.2099608999999998,0.055664062,0.45410156,37.8125,-1.125,1.75
521,-1.2177733999999998,0.25390625,-0.19335938,-34.875,48.375,-19.84375
522,-0.9824219,0.2529297,-0.14453125,-3.75,44.71875,7.4375
523,-0.8378905999999999,0.09863281,-0.15136719,39.03125,33.78125,-4.96875
524,-1.1152343999999998,0.080078125,-0.26367188,27.6875,13.28125,35.8125
525,-1.1201172,0.103515625,0.2265625,78.03125,29.40625,-6.4375
526,-0.9589844,0.13769531,-0.04296875,19.1875,21.21875,-11.625
527,-1.0253906,0.14746094,-0.0390625,8.875,43.0,-17.84375
528,-0.984375,0.08886719,-0.18945312,3.6875,24.8125,-2.875
529,-0.98046875,0.034179688,-0.18554688,13.90625,21.53125,-0.8125
530,-0.953125,0.04296875,-0.009765625,10.65625,28.40625,-1.125
531,-0.95703125,0.16503906,-0.046875,-8.8125,27.25,-0.8125
532,-0.98535156,0.20117188,-0.047851562,-12.34375,23.46875,5.28125
533,-1.0869141000000002,0.06933594,0.076171875,-29.25,15.40625,3.75
534,-1.2089843999999998,0.030273438,-0.10253906,-62.71875,1.875,-3.3125
535,-1.2792968999999998,0.18066406,0.032226562,-52.625,-44.9375,-10.34375
536,-1.1220703,0.31445312,0.15136719,-76.4375,-83.65625,-7.09375
537,-1.0605468999999998,0.1640625,0.19140625,-138.6875,-89.6875,-9.90625
538,-0.93652344,0.08203125,-0.58496094,-11.9375,-100.1875,-9.25
539,-1.1337891000000002,-0.11328125,-0.0009765625,28.53125,-83.9375,15.84375
540,-0.8808594000000001,0.2529297,0.087890625,50.21875,-45.375,-9.65625
541,-0.71875,0.19335938,0.07519531,45.1875,-28.71875,-3.5625
542,-0.8339844000000001,0.076171875,0.10058594,17.75,-1.5,-10.21875
543,-0.7294921999999999,0.15136719,0.119140625,30.375,7.25,-10.59375
544,-0.7783203000000001,0.059570312,0.18164062,31.84375,29.03125,8.84375
545,-1.1474608999999998,-0.041015625,0.53222656,35.1875,21.46875,13.90625
546,-1.1025391000000002,0.09863281,0.36621094,74.25,-4.78125,-5.5625
547,-0.9638671999999998,0.1484375,-0.4453125,-88.71875,72.53125,-37.0625
548,-1.1289062,0.3701172,0.12988281,-7.46875,40.75,26.09375
549,-0.80078125,0.060546875,-0.13769531,53.375,46.0,-22.65625
550,-1.140625,-0.036132812,-0.2109375,3.21875,12.90625,41.25
551,-1.09375,-0.013671875,0.018554688,33.1875,35.0625,-10.21875
552,-1.0097656,0.16601562,0.005859375,35.125,32.5625,-14.375
553,-1.0341797,0.22363281,0.055664062,5.71875,37.28125,-30.125
554,-0.9794921999999998,0.1953125,-0.19628906,-9.1875,33.65625,-8.5625
555,-0.953125,-0.0048828125,-0.26464844,4.4375,25.90625,0.21875
556,-0.9609375,0.091796875,-0.0859375,12.0,31.40625,-3.375
557,-0.9404296999999998,0.15332031,0.0546875,-14.375,36.0,0.03125
558,-1.0263672,0.1640625,-0.055664062,-16.25,26.34375,8.59375
559,-1.1474608999999998,-0.05078125,0.07421875,-22.3125,17.375,-0.9375
560,-1.0693358999999998,0.1640625,-0.09765625,-70.71875,-14.1875,-10.6875
561,-1.3164062,0.24023438,0.041992188,-34.875,-73.5625,-9.53125
562,-1.1738281000000002,0.1796875,0.18847656,-121.90625,-91.53125,2.53125
563,-0.9707031,0.068359375,-0.24902344,-72.96875,-99.6875,-25.65625
564,-0.91796875,0.11425781,-0.44628906,-2.59375,-91.28125,2.3125
565,-1.0351562,0.059570312,0.18554688,66.75,-67.34375,17.9375
566,-0.74902344,0.3876953,0.11816406,44.84375,-40.3125,-2.84375
567,-0.87890625,0.17871094,0.09667969,7.78125,-6.125,8.28125
568,-0.8652344000000001,0.001953125,0.09765625,10.84375,14.3125,-11.8125
569,-0.65625,0.08300781,0.19433594,41.0625,16.21875,-0.9375
570,-0.94921875,-0.13476562,0.3173828,31.34375,31.03125,0.09375
571,-0.6748046999999999,0.078125,0.3388672,-15.53125,22.3125,-13.875
572,-1.6396484,0.076171875,0.16796875,47.09375,-6.3125,2.3125
573,-0.80078125,0.12011719,-0.3544922,-100.5625,69.5,-40.78125
574,-0.828125,0.328125,0.21582031,75.78125,-8.25,17.125
575,-1.0556641000000002,-0.13769531,-0.21972656,18.09375,35.9375,23.0625
576,-1.1259766000000002,0.024414062,0.13183594,7.90625,38.90625,-0.25
577,-1.0058594,0.26464844,-0.0390625,48.375,20.25,3.40625
578,-1.0205078,0.09277344,-0.0107421875,42.40625,20.78125,-10.34375
579,-0.95214844,0.23144531,-0.15820312,-15.53125,37.875,-15.21875
580,-0.9746094,0.052734375,-0.056640625,23.09375,19.6875,4.4375
581,-0.9892578000000002,0.034179688,-0.10546875,14.875,28.53125,1.5
582,-0.98046875,0.10253906,0.0087890625,3.5625,34.15625,-1.65625
583,-0.9970703000000002,0.13476562,-0.07714844,-10.34375,32.8125,2.40625
584,-1.0332031,0.20117188,-0.015625,-12.71875,35.0625,1.75
585,-1.0800781000000002,0.080078125,0.032226562,-34.9375,25.625,1.75
586,-1.1894531000000002,0.02734375,-0.15625,-69.375,-6.1875,-3.375
587,-1.1289062,0.17773438,-0.016601562,-38.21875,-47.5,-4.125
588,-1.1611328,0.20996094,0.18457031,-97.0,-60.09375,-3.5
589,-1.0644531000000002,0.109375,0.10839844,-138.9375,-59.59375,-13.625
590,-0.99902344,0.22265625,-0.3544922,-30.1875,-95.25,-11.25
591,-1.0332031,0.034179688,0.017578125,22.1875,-91.875,8.28125
592,-0.96484375,0.25976562,0.032226562,15.1875,-59.15625,-4.46875
593,-0.79296875,0.08496094,0.05078125,39.21875,-39.5625,-1.96875
594,-0.8330078000000002,0.068359375,0.044921875,30.5,-8.4375,-2.15625
595,-0.78515625,0.16308594,0.12597656,25.65625,8.34375,-11.875
596,-0.77246094,0.034179688,0.15234375,37.28125,29.6875,-19.96875
597,-0.66308594,0.0703125,0.15722656,-6.25,55.875,-18.40625
598,-1.4365233999999998,-0.052734375,0.5996094,-3.4375,12.0,20.0
599,-1.0605468999999998,0.4013672,-0.3798828,-26.875,58.9375,-23.59375
600,-0.9746094,0.12011719,0.12597656,19.25,52.21875,15.84375
601,-0.7753906,-0.15039062,-0.109375,10.15625,6.375,19.75
602,-1.1904297,-0.06933594,-0.15234375,48.3125,20.25,18.84375
603,-1.0126953,0.21972656,0.203125,57.09375,20.59375,-19.125
604,-0.9628906,0.22265625,-0.04296875,25.71875,3.5,-4.90625
605,-1.0087891,0.09765625,-0.0146484375,33.46875,31.09375,-15.03125
606,-1.0654297,-0.033203125,-0.22460938,10.09375,35.3125,-5.625
607,-0.9892578000000002,0.08105469,-0.015625,46.84375,24.5625,-10.21875
608,-0.94140625,0.20605469,-0.0546875,18.15625,31.28125,-7.40625
609,-0.97558594,0.1875,-0.10253906,0.84375,30.8125,7.4375
610,-1.0302734,0.14941406,0.0087890625,-6.125,29.28125,8.59375
611,-1.0078125,-0.052734375,0.049804688,-35.3125,35.75,-3.875
612,-0.99609375,0.13867188,-0.16210938,-76.3125,10.40625,-1.125
613,-1.3398438,0.20214844,-0.06542969,-17.3125,-44.21875,3.46875
614,-1.265625,0.3515625,0.16894531,-78.09375,-80.78125,8.28125
615,-1.0126953,-0.01171875,0.072265625,-139.625,-89.375,-4.15625
616,-1.015625,0.20703125,-0.2529297,-38.65625,-102.75,-11.875
617,-1.0419922,0.017578125,-0.15234375,26.90625,-88.96875,-0.9375
618,-0.953125,0.1484375,0.17382812,27.1875,-58.1875,-20.03125
619,-0.8251953000000002,0.32421875,0.080078125,46.46875,-44.46875,-14.4375
620,-0.84375,-0.01171875,0.099609375,36.53125,-23.46875,-6.90625
621,-0.7207031,0.024414062,0.11230469,52.65625,-1.4375,-9.375
622,-0.65527344,0.13085938,0.26367188,35.0,26.71875,-8.8125
623,-0.8769530999999999,0.06542969,0.35253906,11.09375,48.4375,-0.625
624,-0.7607421999999999,0.203125,0.42578125,-18.875,36.40625,0.53125
625,-1.9941406000000004,-0.01953125,0.2939453,74.0,-5.03125,17.5625
626,-0.3330078,0.053710938,-0.4189453,-121.1875,73.46875,-71.0
627,-0.90625,0.3251953,0.056640625,75.53125,14.6875,29.46875
628,-1.1279297,-0.103515625,-0.13183594,13.65625,29.875,31.78125
629,-0.9589844,0.10839844,0.024414062,24.625,21.34375,2.65625
630,-1.0488281000000002,0.08984375,-0.009765625,48.4375,15.84375,1.125
631,-1.0302734,0.07324219,-0.0078125,4.5625,32.1875,-14.0
632,-1.0146484,0.17089844,-0.032226562,17.6875,34.40625,-13.15625
633,-0.9824219,0.045898438,-0.017578125,28.46875,10.71875,-3.25
634,-0.93066406,0.048828125,-0.10058594,-3.5625,20.71875,-6.5
635,-0.98535156,0.0859375,-0.09375,3.75,31.09375,0.53125
636,-0.9609375,0.20214844,-0.119140625,-2.84375,29.6875,5.34375
637,-1.0507812,0.12011719,0.03125,-5.9375,28.46875,4.75
638,-1.0546875,0.0234375,0.10449219,-31.53125,26.53125,0.15625
639,-1.0917968999999998,0.0048828125,-0.01171875,-58.3125,-2.53125,-5.34375
640,-1.1455078,0.040039062,-0.09472656,-30.125,-37.625,-13.5625
641,-1.1650391000000002,0.31152344,0.08984375,-39.03125,-56.40625,-5.625
642,-1.0849608999999998,0.20898438,0.12207031,-102.9375,-63.3125,-1.0625
643,-1.1210938,0.07421875,0.087890625,-82.3125,-84.6875,-17.78125
644,-1.0361328,0.015625,-0.67578125,-14.6875,-99.75,-21.5625
645,-1.0048828,0.005859375,0.27929688,38.375,-79.90625,5.34375
646,-0.82421875,0.2685547,0.061523438,32.625,-37.375,-3.9375
647,-0.8144531,0.06640625,0.048828125,30.4375,-8.8125,6.6875
648,-0.7988281,0.17382812,0.08203125,29.875,12.0625,2.25
649,-0.67578125,0.16503906,0.16894531,30.90625,27.5,3.8125
650,-0.88183594,-0.068359375,0.32421875,34.71875,39.53125,0.53125
651,-0.7998046999999999,0.026367188,0.3251953,-23.15625,37.03125,-3.0625
652,-1.4208983999999998,0.20410156,0.21679688,32.75,8.9375,-9.71875
653,-0.8935546999999998,0.11230469,-0.36328125,-67.53125,55.28125,-15.65625
654,-0.87109375,-0.053710938,0.06640625,58.09375,-1.78125,7.5625
655,-1.0410156,0.03125,-0.21777344,36.21875,3.28125,33.4375
656,-1.0605468999999998,0.016601562,0.0107421875,7.59375,62.84375,-11.9375
657,-0.9736328000000002,0.21484375,0.041015625,42.53125,15.84375,1.3125
658,-1.0185547,0.08984375,0.11816406,25.5,15.96875,-16.25
659,-0.9345703000000002,0.053710938,-0.041992188,-2.46875,21.65625,-16.5
660,-0.9638671999999998,0.036132812,-0.1875,18.84375,21.46875,0.96875
661,-0.98339844,0.09082031,-0.103515625,17.5,32.875,0.21875
662,-0.98339844,0.15820312,0.07519531,6.8125,31.03125,2.0625
663,-0.9863281,0.18066406,-0.015625,-29.875,34.46875,6.4375
664,-1.0136719,-0.06640625,0.0126953125,-28.03125,31.21875,5.65625
665,-1.1171875,-0.0068359375,-0.061523438,-39.40625,12.71875,-0.25
666,-1.3398438,0.087890625,-0.059570312,-25.84375,-25.40625,-8.4375
667,-1.2734375,0.53222656,0.037109375,-49.09375,-44.75,5.46875
668,-0.97558594,0.23046875,0.17773438,-93.96875,-62.9375,4.6875
669,-1.078125,0.064453125,0.07324219,-105.875,-76.75,-10.15625
670,-0.94628906,-0.021484375,-0.26757812,-21.8125,-92.625,-17.125
671,-0.9716796999999998,-0.087890625,-0.11035156,19.1875,-80.46875,3.21875
672,-0.94140625,0.22167969,0.18554688,54.78125,-57.71875,1.75
673,-0.8935546999999998,0.22460938,0.07421875,48.25,-36.28125,2.96875
674,-0.7783203000000001,0.0390625,0.08203125,39.40625,1.8125,-12.21875
675,-0.7294921999999999,0.18945312,0.09472656,39.03125,32.1875,-16.1875
676,-0.82714844,0.12207031,0.26464844,25.375,62.84375,-23.875
677,-0.6484375,0.036132812,0.2607422,-6.96875,43.5,-17.28125
678,-1.2138672,-0.022460938,0.36035156,42.34375,-25.96875,18.90625
679,-1.6337891000000002,0.041992188,-0.09863281,-22.5625,33.4375,-33.59375
680,-0.6669921999999999,0.3564453,0.072265625,-11.3125,47.71875,-14.4375
681,-0.99609375,0.053710938,-0.29492188,17.5625,52.03125,20.5
682,-1.2451172,-0.0087890625,0.12890625,-14.625,54.78125,22.75
683,-0.97558594,0.19042969,-0.10546875,57.71875,8.46875,8.84375
684,-1.0126953,0.064453125,-0.040039062,44.28125,2.0625,2.59375
685,-1.0546875,0.01953125,-0.109375,-1.0,25.71875,-10.03125
686,-0.9716796999999998,0.07421875,-0.14160156,18.96875,37.5,-11.5625
687,-0.9345703000000002,0.09375,-0.1484375,25.3125,36.53125,2.71875
688,-0.9892578000000002,0.125,-0.06347656,15.84375,41.1875,4.125
689,-0.98339844,0.12792969,0.0625,9.0625,35.625,5.21875
690,-0.9970703000000002,0.06347656,0.051757812,-13.40625,28.1875,5.15625
691,-0.95703125,0.119140625,0.09375,-32.8125,25.375,-4.65625
692,-1.1679688,-0.07519531,-0.115234375,-37.375,12.125,1.1875
693,-1.4794922,0.15136719,-0.19433594,-9.78125,-24.875,1.375
694,-1.2119141000000002,0.36621094,0.21582031,-10.15625,-74.65625,3.09375
695,-0.9746094,0.24511719,0.04296875,-130.9375,-85.40625,-7.53125
696,-1.0263672,0.140625,-0.1171875,-112.28125,-76.6875,-18.21875
697,-1.0253906,0.034179688,-0.66015625,25.5625,-98.34375,-12.96875
698,-1.0341797,-0.12109375,0.095703125,49.28125,-88.46875,16.75
699,-0.86035156,0.34765625,0.07519531,42.34375,-46.65625,-8.4375
700,-0.78515625,0.22949219,0.09472656,29.625,-21.8125,-4.53125
701,-0.8466796999999998,0.044921875,0.09765625,17.4375,10.46875,-7.34375
702,-0.5830078000000001,0.13476562,0.08496094,13.90625,27.875,-8.5625
703,-0.84765625,0.06640625,0.1640625,8.875,46.71875,6.09375
704,-1.1181641000000002,0.051757812,0.48046875,17.75,40.875,-9.0625
705,-1.3232422,-0.125,0.5517578000000001,54.53125,-28.78125,-9.3125
706,-0.9160156,0.056640625,-0.81347656,-96.9375,55.03125,-47.09375
707,-1.0087891,0.31933594,0.32421875,21.59375,31.09375,-1.5
708,-0.70996094,0.12011719,-0.22851562,-5.46875,60.15625,1.4375
709,-1.3310547,0.043945312,-0.17871094,-1.78125,49.65625,44.03125
710,-0.97753906,0.08886719,0.026367188,26.59375,35.375,-5.5
711,-1.0869141000000002,-0.05078125,0.05078125,16.5625,29.46875,-11.25
712,-0.9716796999999998,0.1328125,-0.115234375,-24.25,43.1875,-17.46875
713,-0.95703125,-0.021484375,-0.09375,21.65625,19.875,-0.09375
714,-1.0136719,0.049804688,-0.06738281,15.125,16.03125,-3.4375
715,-0.9765625,0.06738281,-0.055664062,9.4375,26.84375,0.09375
716,-0.95703125,0.115234375,-0.10644531,-9.375,26.21875,4.0625
717,-1.0253906,0.09667969,-0.001953125,-0.8125,27.0,4.96875
718,-1.0146484,0.11035156,0.080078125,-32.5625,21.875,-1.90625
719,-1.1289062,-0.06738281,-0.072265625,-53.4375,-11.375,-2.9375
720,-1.3417968999999998,0.20605469,-0.22949219,-22.25,-24.4375,-0.375
721,-1.0869141000000002,0.3095703,-0.001953125,-46.40625,-41.78125,6.5
722,-0.87402344,0.203125,0.20703125,-81.1875,-72.78125,-2.53125
723,-1.0634766000000002,0.0546875,0.001953125,-111.21875,-72.90625,-6.375
724,-0.9501953000000002,0.12011719,-0.47558594,29.15625,-105.25,-0.4375
725,-1.0546875,0.08105469,0.18359375,36.46875,-76.375,12.6875
726,-0.9658203000000002,0.16503906,0.08105469,37.625,-49.03125,-6.3125
727,-0.7841796999999999,0.06542969,0.0078125,29.34375,-14.625,-23.75
728,-0.7392578000000001,0.21875,0.09667969,25.3125,3.6875,-6.6875
729,-0.6972656,0.15527344,0.14160156,26.90625,14.5,-12.46875
730,-0.828125,-0.09472656,0.15136719,53.6875,41.0,-3.375
731,-0.85058594,0.064453125,0.36328125,-12.34375,54.53125,-14.125
732,-1.9941406000000004,0.2109375,0.5488281,42.21875,-32.375,20.96875
733,-0.31347656,0.11230469,-0.53222656,-39.28125,9.0625,-73.5625
734,-0.80859375,0.21875,-0.12109375,14.6875,40.75,15.0625
735,-1.2207031000000002,-0.24414062,-0.10253906,30.25,35.0,34.65625
736,-1.1298828,0.22167969,0.052734375,-12.0625,45.6875,14.6875
737,-0.98046875,0.11328125,0.09277344,54.0625,23.09375,0.46875
738,-1.0175781,0.06640625,-0.12207031,8.21875,12.0625,-0.8125
739,-1.0341797,0.076171875,0.00390625,4.0625,20.90625,-13.15625
740,-0.9902344,0.0009765625,-0.18554688,16.46875,17.25,-7.84375
741,-0.96777344,0.08496094,-0.1484375,23.84375,28.59375,-6.96875
742,-0.97753906,0.13964844,-0.06738281,27.125,33.375,0.71875
743,-0.9765625,0.21875,-0.15722656,-2.96875,38.375,2.1875
744,-0.9550781,0.12890625,-0.046875,-9.84375,42.34375,10.21875
745,-0.9980469,0.11035156,0.045898438,-32.1875,31.78125,6.3125
746,-1.2324218999999998,0.0126953125,-0.17285156,-70.59375,27.6875,-2.40625
747,-1.3710938,0.2421875,-0.046875,-58.625,-19.125,1.5625
748,-1.1552733999999998,0.29589844,0.23242188,-45.0,-68.125,6.4375
749,-1.0507812,0.1015625,0.14355469,-162.625,-85.71875,-7.40625
750,-1.0566406000000002,-0.030273438,-0.103515625,-77.46875,-93.53125,-11.8125
751,-1.0546875,0.0234375,-0.1640625,34.09375,-108.96875,-7.71875
752,-0.9892578000000002,0.068359375,-0.13964844,50.375,-81.5,-9.375
753,-0.92285156,0.13574219,0.18652344,71.1875,-61.1875,-8.4375
754,-0.81640625,0.2734375,0.12890625,52.65625,-32.375,-16.875
755,-0.7167969,0.19140625,0.09277344,41.59375,-3.6875,-9.0
756,-0.63378906,0.18359375,0.10644531,31.90625,25.65625,-10.53125
757,-0.69921875,0.123046875,0.109375,29.9375,45.625,-5.46875
758,-1.0527343999999998,0.18164062,0.43066406,9.625,39.53125,-12.28125
759,-1.3554688,-0.09472656,0.453125,43.1875,-21.15625,-18.34375
