sample_no,accel_x,accel_y,accel_z,gyro_x,gyro_y,gyro_z
0,-0.9199219,-0.3564453,-0.0390625,6.78125,-1.09375,-0.0625
1,-0.9111328,-0.31640625,0.044921875,26.65625,-0.3125,1.5625
2,-0.9746094,-0.22851562,0.044921875,39.96875,0.46875,-0.8125
3,-0.9736328,-0.11035156,0.029296875,17.3125,-12.21875,-0.5
4,-1.0703125,-0.052734375,-0.0048828125,-1.59375,-5.0,-5.125
5,-1.0673828,-0.08691406,-0.032226562,3.34375,-4.59375,0.1875
6,-1.0302734,-0.18652344,-0.040039062,-29.59375,-2.5625,-7.15625
7,-1.0175781,-0.19726562,0.08984375,-57.0,2.25,-11.125
8,-0.9296875,-0.3720703,0.09472656,-33.46875,1.65625,6.875
9,-0.9355469,-0.52246094,0.05859375,-12.75,-3.71875,2.75
10,-1.0126953,-0.4951172,0.091796875,14.03125,2.3125,-1.28125
11,-0.8496094,-0.4404297,-0.03515625,45.78125,-3.125,10.0
12,-0.9277344,-0.26757812,0.04296875,50.09375,31.5625,-3.71875
13,-0.95410156,-0.25390625,0.059570312,-5.875,-2.75,-2.28125
14,-0.83984375,-0.24121094,-0.020507812,29.21875,-4.9375,10.0625
15,-0.7636719,-0.3046875,0.051757812,-16.3125,-5.9375,-1.84375
16,-0.8769531,-0.2578125,-0.072265625,-9.15625,-8.0625,1.46875
17,-1.4443359,-0.171875,0.13964844,5.0,9.21875,2.8125
18,-0.98828125,-0.09765625,-0.047851562,-24.0,-39.625,-4.28125
19,-0.8027344,-0.19335938,-0.16992188,-20.6875,6.15625,2.0
20,-1.1591797,-0.44921875,0.025390625,-39.96875,17.9375,2.5625
21,-1.0087891,-0.19726562,0.13476562,-33.9375,6.96875,-14.84375
22,-0.9121094,-0.140625,0.13085938,-31.3125,-3.78125,-14.65625
23,-1.1015625,-0.4375,0.0234375,-6.125,-11.46875,-4.96875
24,-0.95703125,-0.48242188,-0.091796875,32.09375,-22.09375,8.21875
25,-0.7636719,-0.32617188,-0.056640625,26.65625,-5.9375,9.21875
26,-1.0351562,-0.24804688,0.16015625,-4.46875,18.5,-1.53125
27,-0.8359375,-0.24902344,-0.001953125,-10.125,12.5625,-2.625
28,-0.6220703,-0.2734375,-0.091796875,-6.78125,13.125,0.34375
29,-0.7861328,-0.21386719,0.15820312,-14.34375,11.15625,5.375
30,-1.8486328,-0.55371094,0.18164062,10.5,24.34375,22.4375
31,-0.6904297,-0.1015625,-0.022460938,8.28125,-52.375,-13.0
32,-0.8535156,-0.203125,-0.2607422,-4.40625,-1.53125,1.875
33,-1.1269531,-0.3544922,-0.06640625,-16.71875,22.09375,9.03125
34,-1.0537109,-0.21582031,0.059570312,-11.3125,14.40625,-1.84375
35,-0.9453125,-0.07324219,0.068359375,-35.15625,3.78125,-9.65625
36,-0.9814453,-0.32910156,0.11230469,-20.34375,-4.59375,-2.875
37,-1.1416016,-0.5576172,-0.048828125,19.84375,-18.4375,2.625
38,-0.9423828,-0.24707031,-0.13183594,-11.1875,-24.40625,-12.34375
39,-1.0263672,-0.26660156,0.16601562,19.21875,19.34375,-0.4375
40,-0.77734375,-0.33496094,-0.15332031,5.84375,-26.75,15.84375
41,-0.91308594,-0.053710938,0.08496094,33.0,20.3125,-2.9375
42,-0.83203125,-0.3046875,0.0078125,-9.21875,2.9375,1.75
43,-0.78515625,-0.21777344,0.055664062,-15.09375,7.8125,-1.78125
44,-0.7392578,-0.32421875,0.021484375,-17.71875,5.375,-3.0
45,-1.6191406,-0.2841797,0.15820312,13.71875,44.75,-1.34375
46,-0.87402344,-0.11425781,0.0029296875,9.5,-55.65625,14.53125
47,-0.7050781,-0.2890625,-0.2548828,-3.65625,-23.25,9.15625
48,-1.1845703,-0.5517578,-0.10253906,-33.03125,47.71875,3.03125
49,-1.0175781,-0.19335938,0.016601562,6.53125,8.78125,-5.5
50,-0.9277344,-0.087890625,0.005859375,-14.28125,-1.21875,-7.53125
51,-1.0410156,-0.29296875,0.048828125,-15.21875,-0.6875,-7.21875
52,-1.0449219,-0.4326172,0.0087890625,26.84375,-0.75,4.09375
53,-0.9736328,-0.3466797,-0.107421875,37.40625,-12.625,2.25
54,-0.98828125,-0.23632812,0.026367188,0.46875,21.34375,-12.46875
55,-0.9003906,-0.036132812,0.013671875,21.84375,2.25,-2.09375
56,-0.85058594,-0.20605469,-0.061523438,4.375,10.5,3.28125
57,-0.9189453,-0.2685547,0.05859375,-15.6875,4.03125,-3.84375
58,-0.69433594,-0.24316406,-0.0048828125,-0.4375,-9.03125,5.1875
59,-0.9511719,-0.3642578,0.05859375,10.1875,8.0625,4.625
60,-1.5546875,-0.5058594,0.21972656,7.5625,14.21875,8.28125
61,-0.7519531,-0.07714844,-0.1484375,8.28125,-47.1875,-14.40625
62,-0.88183594,-0.23046875,-0.25976562,36.75,12.625,14.15625
63,-1.1611328,-0.46875,-0.026367188,-11.1875,36.8125,2.84375
64,-0.93652344,-0.20996094,-0.016601562,9.9375,3.84375,-6.125
65,-0.96972656,-0.14746094,0.07421875,-17.9375,17.28125,-6.1875
66,-1.0361328,-0.28808594,0.16308594,-15.03125,-6.21875,-3.4375
67,-1.0185547,-0.43164062,-0.0146484375,8.40625,-35.71875,-2.9375
68,-0.9824219,-0.2626953,-0.2265625,65.125,-46.4375,3.28125
69,-0.9863281,-0.22851562,0.06347656,35.40625,5.625,-0.375
70,-0.9511719,-0.18554688,-0.0029296875,-0.6875,-17.71875,-0.4375
71,-0.99316406,-0.11816406,0.051757812,-11.65625,13.125,-4.21875
72,-0.9160156,-0.3515625,0.02734375,-33.5,4.375,-7.59375
73,-0.7890625,-0.24804688,0.115234375,-20.625,-0.125,-7.21875
74,-0.6640625,-0.095703125,-0.0048828125,-16.84375,-3.0625,-2.9375
75,-0.9238281,-0.3544922,0.0390625,-13.9375,16.0625,0.78125
76,-1.7080078,-0.328125,0.2841797,-39.4375,13.71875,-8.75
77,-0.76464844,-0.0087890625,-0.0078125,11.34375,-50.53125,8.34375
78,-0.7001953,-0.4033203,-0.30664062,25.25,-0.25,21.71875
79,-1.2382812,-0.82128906,-0.08984375,-29.5625,42.28125,3.15625
80,-0.9326172,-0.25585938,-0.0546875,-5.375,11.21875,-14.78125
81,-0.92285156,0.015625,-0.00390625,2.5,28.125,0.1875
82,-1.0429688,-0.31054688,0.14355469,-12.59375,20.9375,4.75
83,-1.0117188,-0.35839844,0.16210938,-4.875,-7.875,-0.25
84,-0.97558594,-0.52734375,-0.052734375,19.46875,-41.15625,1.40625
85,-0.9785156,-0.41503906,-0.12695312,-3.4375,-18.125,-21.8125
86,-1.0703125,-0.2421875,0.08300781,21.40625,-4.09375,-26.9375
87,-0.9941406,-0.099609375,0.08105469,3.15625,-8.5,-20.15625
88,-0.7441406,-0.12597656,-0.0625,7.625,-2.8125,-11.125
89,-0.9638672,-0.2783203,0.17089844,-6.0625,-6.65625,-1.59375
90,-0.71972656,-0.02734375,0.052734375,12.25,-8.96875,16.59375
91,-0.7207031,-0.2998047,-0.029296875,-10.8125,6.78125,17.3125
92,-1.0087891,-0.44628906,0.203125,-41.5625,18.3125,-1.40625
93,-1.5634766,-0.48828125,0.30566406,-1.90625,-8.5625,30.03125
94,-0.49316406,-0.15039062,-0.28808594,9.5,-23.3125,-13.3125
95,-1.0273438,-0.38867188,-0.12890625,15.0,31.625,13.53125
96,-1.0458984,-0.45214844,-0.09277344,-9.28125,2.6875,-1.15625
97,-0.92285156,-0.12890625,-0.1171875,21.46875,13.375,-1.78125
98,-0.99609375,-0.19433594,0.123046875,-22.65625,19.46875,-3.0625
99,-1.0019531,-0.3408203,0.16503906,-18.5,1.71875,-1.59375
100,-0.96191406,-0.5253906,0.10644531,-7.09375,-20.875,-5.375
101,-1.1035156,-0.48632812,-0.09765625,14.40625,-31.75,-22.21875
102,-0.9902344,-0.31640625,-0.041015625,64.625,-20.21875,-12.15625
103,-0.88964844,-0.015625,0.0078125,8.21875,-14.65625,-9.46875
104,-0.8886719,-0.18164062,0.13183594,-11.71875,14.59375,6.03125
105,-0.8535156,-0.23632812,0.16796875,-15.8125,7.6875,-1.0
106,-0.7636719,-0.053710938,0.032226562,-10.125,-13.75,19.34375
107,-0.83691406,-0.26171875,-0.12109375,-21.4375,-2.5625,29.46875
108,-1.5625,-0.7714844,0.0703125,-43.84375,20.5,16.40625
109,-0.79003906,0.024414062,-0.18652344,-38.65625,-21.96875,-25.09375
110,-0.8486328,-0.17871094,-0.22265625,2.6875,25.5625,19.28125
111,-1.1523438,-0.5761719,0.06640625,-38.59375,26.1875,8.21875
112,-0.95996094,-0.2421875,0.1796875,-29.0,10.5,-16.1875
113,-0.95996094,-0.32421875,0.17480469,9.875,-18.25,-5.375
114,-1.0625,-0.56933594,0.055664062,14.9375,-33.28125,-11.375
115,-1.0205078,-0.39257812,-0.17675781,61.53125,-35.59375,-8.5625
116,-0.90527344,-0.07910156,0.05859375,67.25,-8.0,-1.96875
117,-0.9423828,-0.15820312,0.07128906,-4.03125,19.09375,7.125
118,-0.82128906,-0.4482422,0.16210938,-36.75,6.34375,-8.4375
119,-0.7158203,-0.35058594,-0.0146484375,-0.75,-7.4375,-14.96875
120,-0.3876953,0.059570312,-0.0126953125,2.4375,-3.0625,2.125
121,-1.9892578,-0.41308594,0.20898438,6.53125,16.96875,25.875
122,-0.9267578,-0.45507812,-0.3173828,-23.75,-64.40625,-5.9375
123,-0.6689453,0.14746094,-0.33203125,3.09375,-21.5,-5.6875
124,-1.2832031,-0.7080078,0.103515625,-16.0625,96.5625,33.3125
125,-0.8857422,-0.16992188,0.087890625,3.59375,3.78125,-10.25
126,-0.9951172,-0.015625,0.36816406,-2.5,29.21875,-7.9375
127,-1.0390625,-0.45410156,0.24707031,7.625,-24.0,-4.65625
128,-0.9794922,-0.5761719,-0.1015625,53.03125,-56.03125,2.3125
129,-0.9482422,-0.19433594,-0.3076172,57.0625,-39.5625,-7.53125
130,-0.8359375,-0.40429688,0.08886719,43.09375,47.3125,-1.15625
131,-1.0488281,-0.3251953,-0.0146484375,12.25,31.375,1.75
132,-1.046875,-0.3154297,0.16601562,-3.78125,16.84375,-14.90625
133,-0.79589844,-0.19726562,0.041992188,-19.0625,-0.96875,-21.8125
134,-0.67578125,-0.095703125,-0.046875,-8.4375,-6.53125,4.6875
135,-0.8105469,-0.15625,0.1484375,-14.96875,-5.875,15.25
136,-1.7998047,-0.41210938,0.32910156,0.25,-20.4375,17.03125
137,-0.8701172,-0.030273438,-0.0234375,1.46875,-51.75,-28.6875
138,-0.7207031,0.103515625,-0.032226562,-3.71875,0.78125,6.8125
139,-1.2607422,-0.72265625,-0.10058594,-39.96875,25.8125,26.46875
140,-0.9042969,-0.51660156,0.043945312,-16.53125,26.96875,-14.96875
141,-0.88964844,-0.125,0.10546875,-17.78125,31.84375,-9.59375
142,-0.92285156,-0.25585938,0.23925781,-29.59375,24.78125,-7.625
143,-1.0625,-0.6015625,0.13964844,13.40625,0.25,-1.09375
144,-0.9394531,-0.6152344,0.08203125,61.75,-29.90625,-1.71875
145,-0.9042969,-0.5048828,-0.1484375,121.09375,-43.03125,10.84375
146,-0.9189453,-0.2763672,0.07910156,33.375,-4.59375,0.0625
147,-1.0292969,-0.046875,0.052734375,-3.375,-0.96875,-7.09375
148,-0.8417969,-0.14355469,0.095703125,-17.78125,0.46875,-3.90625
149,-0.5488281,-0.12597656,-0.08984375,-37.0,-11.78125,-1.53125
150,-0.5390625,0.24902344,0.4033203,2.3125,-8.65625,11.09375
151,-1.9892578,-0.6796875,0.18164062,-17.09375,20.625,3.96875
152,-0.5332031,0.11425781,-0.09765625,6.78125,-56.8125,-12.34375
153,-0.85253906,-0.4638672,-0.20117188,-50.78125,26.125,35.625
154,-1.2685547,-0.71777344,0.111328125,-63.0625,41.625,-17.84375
155,-0.8330078,-0.21875,0.08300781,-26.25,27.09375,-12.59375
156,-0.8330078,-0.061523438,0.3017578,-7.15625,16.71875,6.75
157,-1.0869141,-0.46289062,0.38671875,-29.65625,-2.875,3.34375
158,-0.8798828,-0.7392578,-0.080078125,24.03125,-21.0,-3.96875
159,-0.9550781,-0.36816406,-0.15917969,126.40625,-21.0625,12.5
160,-1.2138672,-0.4169922,0.17480469,15.375,34.96875,-5.375
161,-1.0625,0.005859375,-0.009765625,-47.25,20.6875,-43.96875
162,-0.7011719,0.005859375,0.18066406,24.03125,1.40625,-2.875
163,-0.6582031,-0.18261719,-0.08105469,-5.375,-0.4375,18.3125
164,-0.76660156,-0.23828125,-0.0029296875,-13.5,0.25,23.1875
165,-0.99902344,-0.13476562,-0.03515625,-28.03125,-1.90625,13.1875
166,-1.8466797,-0.5908203,0.3984375,-16.125,16.59375,17.375
167,-0.5341797,-0.23828125,-0.24804688,-52.5625,-52.8125,-29.0625
168,-0.9609375,-0.20019531,0.021484375,37.28125,17.34375,31.0625
169,-1.015625,-0.71191406,-0.07519531,-0.625,15.4375,8.71875
170,-0.9824219,-0.3046875,0.0009765625,1.59375,31.4375,-13.4375
171,-0.88183594,-0.19335938,0.001953125,25.09375,28.3125,10.0
172,-1.0029297,-0.22167969,0.083984375,-11.25,36.25,0.59375
173,-1.03125,-0.20117188,0.15234375,-16.125,22.8125,-0.4375
174,-1.0126953,-0.3642578,0.12402344,4.9375,-10.0,14.40625
175,-0.9716797,-0.5839844,-0.00390625,17.375,-37.65625,-5.125
176,-1.0205078,-0.3623047,-0.08691406,74.8125,-34.90625,-8.4375
177,-0.9580078,-0.32910156,0.091796875,76.96875,-13.1875,3.15625
178,-1.0400391,-0.0126953125,-0.0126953125,8.34375,-16.0625,-18.4375
179,-0.8730469,-0.10058594,-0.11230469,-13.875,6.53125,-26.3125
180,-0.83984375,-0.11816406,0.021484375,7.75,10.90625,-4.78125
181,-0.88964844,-0.06347656,0.29882812,-14.28125,-9.53125,7.875
182,-0.66503906,-0.16601562,-0.01171875,-19.125,-27.28125,22.28125
183,-1.5556641,-0.6123047,0.30566406,-88.09375,48.53125,10.71875
184,-0.93652344,-0.095703125,-0.26660156,8.65625,-51.9375,-9.34375
185,-0.60546875,-0.0107421875,-0.021484375,-21.6875,14.21875,2.0625
186,-1.3037109,-0.6435547,0.016601562,-18.4375,53.875,13.25
187,-0.92089844,-0.32226562,0.107421875,-11.34375,17.6875,-16.3125
188,-0.9121094,-0.06738281,0.24511719,-0.96875,24.96875,-4.71875
189,-0.98046875,-0.5986328,0.056640625,20.5625,-12.6875,1.34375
190,-1.1591797,-0.4404297,-0.026367188,69.8125,-40.96875,-5.0625
191,-0.8125,-0.07421875,-0.26171875,109.90625,-52.5,22.8125
192,-0.8222656,-0.13574219,0.1015625,22.9375,26.1875,7.6875
193,-1.1328125,-0.2421875,0.06738281,-49.03125,26.0625,-0.6875
194,-0.99316406,-0.2626953,0.080078125,0.71875,-5.75,2.0
195,-0.5888672,-0.18164062,-0.11621094,-30.59375,-4.28125,-9.15625
196,-0.78125,-0.15429688,0.11035156,-41.8125,22.03125,9.28125
197,-1.5585938,-0.32617188,0.32617188,-37.46875,24.09375,5.0625
198,-1.0976562,-0.059570312,0.09472656,1.21875,-35.84375,5.0625
199,-0.7050781,-0.24511719,-0.140625,-22.59375,-19.71875,0.65625
200,-1.0292969,-0.5673828,-0.0546875,-23.6875,26.0,11.9375
201,-1.0458984,-0.28515625,0.072265625,11.84375,26.90625,-4.09375
202,-0.91308594,-0.045898438,0.11816406,-30.03125,31.5,-16.0625
203,-0.9560547,-0.047851562,0.28125,-37.78125,10.125,-18.8125
204,-1.0244141,-0.60253906,0.041015625,-1.21875,-36.0625,-2.6875
205,-1.1972656,-0.48242188,-0.14746094,56.875,-39.1875,-6.78125
206,-0.9248047,0.0087890625,-0.16601562,22.8125,-33.75,-14.28125
207,-0.9111328,-0.13769531,0.0068359375,20.375,20.8125,14.8125
208,-1.0214844,-0.3359375,0.08496094,-33.28125,5.375,-2.9375
209,-0.984375,-0.30078125,0.076171875,4.625,-0.5,-13.625
210,-0.4921875,-0.034179688,-0.0068359375,-13.875,-11.34375,4.125
211,-0.53125,-0.18066406,-0.107421875,-16.5,10.5625,15.5625
212,-1.1904297,-0.39160156,0.3720703,-3.0,23.375,-0.5
213,-1.7148438,-0.42089844,0.35742188,-15.15625,-26.125,10.84375
214,-0.43554688,0.11816406,-0.34277344,-6.0625,-76.59375,-15.09375
215,-0.77441406,-0.5517578,-0.25097656,55.59375,59.1875,50.59375
216,-1.2978516,-0.68652344,0.20898438,-29.375,56.75,-8.1875
217,-0.74121094,-0.05078125,0.05078125,1.21875,9.21875,-21.5
218,-1.0673828,0.057617188,0.296875,-4.09375,50.03125,-11.0
219,-1.1074219,-0.44140625,0.068359375,-1.78125,-17.9375,-2.09375
220,-1.0224609,-0.38476562,-0.10546875,48.9375,-49.9375,-12.9375
221,-1.0869141,0.043945312,-0.041015625,-9.53125,-21.5,-23.15625
222,-0.86816406,-0.20507812,-0.16699219,23.90625,-5.4375,9.09375
223,-0.93847656,-0.38183594,0.123046875,27.65625,26.5,18.53125
224,-1.1162109,-0.32226562,0.16601562,-12.9375,13.1875,-4.59375
225,-0.8378906,-0.3779297,0.0703125,-24.96875,-4.71875,-17.71875
226,-0.6513672,-0.15722656,-0.009765625,-2.09375,-4.8125,-7.09375
227,-0.78222656,-0.12988281,0.01171875,-13.375,-9.65625,2.25
228,-0.9658203,-0.07421875,0.16015625,-12.59375,-12.8125,8.28125
229,-1.7626953,-0.48632812,0.359375,5.375,-19.0,27.53125
230,-0.62890625,-0.11035156,-0.13085938,-36.75,-54.21875,-25.21875
231,-0.83203125,-0.41796875,-0.20703125,31.78125,17.03125,30.4375
232,-1.1748047,-0.68066406,-0.09277344,-31.375,46.1875,-12.21875
233,-0.87109375,-0.2529297,0.0068359375,-5.125,24.96875,-10.15625
234,-0.8828125,-0.049804688,0.11621094,5.5625,41.9375,-2.15625
235,-1.1103516,-0.23730469,0.20996094,-9.28125,23.5625,4.5625
236,-1.0117188,-0.5,0.123046875,16.34375,-7.9375,5.53125
237,-1.0546875,-0.3564453,-0.024414062,32.65625,-38.15625,0.90625
238,-0.95214844,-0.3984375,-0.052734375,34.96875,-29.0,7.1875
239,-1.0087891,-0.27539062,0.0126953125,34.40625,-3.96875,-11.0
240,-0.9814453,-0.22753906,0.07421875,21.96875,-8.90625,-20.03125
241,-0.9765625,0.04296875,0.052734375,17.5,2.6875,-7.6875
242,-0.7949219,-0.26171875,-0.00390625,-10.4375,4.5625,0.53125
243,-0.7578125,-0.2734375,0.08984375,-24.0,6.59375,-8.0
244,-0.7294922,-0.05859375,0.017578125,-18.6875,3.34375,-3.6875
245,-1.2714844,-0.15625,0.28222656,16.90625,14.78125,22.03125
246,-1.1875,-0.4892578,-0.064453125,-26.75,-70.5,3.09375
247,-0.39941406,-0.09765625,-0.0078125,64.15625,-26.1875,12.125
248,-1.1933594,-0.8095703,-0.16601562,-34.1875,33.25,4.625
249,-0.99316406,-0.3330078,0.001953125,17.09375,42.46875,-15.875
250,-0.9375,0.08203125,0.046875,5.96875,28.0,-6.46875
251,-0.9892578,-0.10546875,0.11425781,-10.1875,20.625,9.4375
252,-1.09375,-0.4580078,0.049804688,-34.5625,-2.125,3.71875
253,-0.92285156,-0.49023438,-0.009765625,13.125,-30.9375,0.40625
254,-0.9482422,-0.2626953,-0.0087890625,15.4375,-39.5625,-10.5625
255,-1.0126953,-0.23242188,-0.10546875,37.78125,-38.8125,0.78125
256,-1.0380859,-0.26171875,0.009765625,8.125,1.46875,-6.59375
257,-1.1210938,-0.29003906,0.12988281,-21.84375,13.0,-14.96875
258,-0.8544922,-0.12988281,0.005859375,-22.90625,-12.34375,-22.40625
259,-0.6201172,-0.16308594,0.016601562,-11.3125,5.125,-1.71875
260,-0.67285156,-0.19042969,0.057617188,-24.46875,16.90625,6.875
261,-0.84277344,-0.171875,0.043945312,-4.8125,1.71875,19.40625
262,-1.9892578,-0.61621094,0.24804688,-18.1875,60.40625,12.25
263,-0.6738281,-0.068359375,-0.11621094,-38.03125,-61.78125,-37.90625
264,-0.6748047,0.119140625,-0.026367188,31.1875,15.6875,20.375
265,-1.1708984,-0.66796875,0.0068359375,-44.625,31.96875,11.03125
266,-1.0673828,-0.40625,0.04296875,-34.625,6.03125,-23.6875
267,-0.9199219,-0.0048828125,0.115234375,2.3125,2.625,-3.4375
268,-0.97558594,-0.45996094,0.061523438,-4.40625,-1.09375,2.96875
269,-1.0253906,-0.5,-0.07324219,34.34375,-10.8125,-1.34375
270,-0.9482422,-0.29101562,-0.033203125,70.78125,-11.46875,12.625
271,-0.99121094,-0.15820312,0.111328125,7.75,3.34375,-13.6875
272,-0.9404297,-0.080078125,-0.026367188,-12.59375,10.3125,1.09375
273,-0.78515625,-0.40429688,0.08496094,-26.5,0.59375,-5.875
274,-0.6455078,-0.25683594,0.0009765625,-25.65625,-12.15625,-2.875
275,-0.7841797,0.001953125,0.0107421875,-4.40625,-19.53125,14.8125
276,-1.9091797,-0.6611328,0.2734375,28.375,18.3125,41.8125
277,-0.6464844,-0.28125,-0.26757812,-4.9375,-54.625,-25.78125
278,-0.8046875,-0.35546875,-0.18164062,25.125,31.96875,17.03125
279,-1.2011719,-0.38183594,0.056640625,-11.78125,50.53125,-6.34375
280,-0.9082031,-0.08300781,0.06933594,9.21875,18.78125,0.125
281,-0.9638672,-0.11425781,0.14160156,-4.40625,28.375,2.375
282,-1.0986328,-0.34472656,0.18945312,6.9375,8.65625,12.25
283,-1.0068359,-0.49609375,-0.0048828125,30.375,-21.4375,6.03125
284,-0.9560547,-0.35253906,-0.20605469,46.6875,-39.1875,-9.40625
285,-1.0966797,-0.14257812,-0.0029296875,22.875,12.8125,-10.8125
286,-0.94921875,-0.28125,0.024414062,27.875,-10.3125,-1.0625
287,-0.9794922,-0.13769531,0.0546875,-1.21875,-7.34375,-5.0625
288,-0.7871094,-0.24511719,-0.06542969,-7.21875,-7.625,-6.0625
289,-0.6386719,-0.39257812,0.1171875,-19.84375,-6.78125,-2.15625
290,-0.5029297,-0.072265625,-0.07324219,-3.375,-14.34375,6.9375
291,-1.1572266,-0.10644531,0.4736328,36.0625,24.59375,11.28125
292,-1.7685547,-0.6875,0.19824219,-21.625,-75.5,2.84375
293,-0.375,0.25390625,-0.32226562,5.3125,-56.15625,-32.125
294,-0.7519531,-0.36035156,-0.18652344,41.6875,70.96875,61.875
295,-1.4658203,-0.80371094,0.34765625,-50.90625,57.90625,-12.21875
296,-0.7060547,0.12597656,0.09667969,-39.0625,6.28125,-31.9375
297,-1.0488281,-0.095703125,0.31152344,-4.21875,11.78125,2.375
298,-1.2119141,-0.68359375,0.017578125,20.8125,-34.1875,2.5625
299,-0.8935547,-0.28710938,-0.13476562,70.125,-78.25,5.125
300,-0.8261719,-0.24609375,0.087890625,39.84375,0.78125,3.40625
301,-1.0664062,-0.2529297,-0.044921875,-26.8125,15.875,-8.96875
302,-0.96777344,-0.21972656,0.16503906,-26.625,18.625,-8.5625
303,-0.7216797,-0.3251953,0.064453125,-32.53125,3.90625,-14.65625
304,-0.57128906,-0.17773438,0.07324219,-22.15625,-7.6875,0.21875
305,-0.7441406,0.06640625,0.064453125,-6.90625,-10.4375,12.6875
306,-1.9892578,-0.5419922,0.60058594,27.09375,0.65625,36.25
307,-0.47851562,-0.05859375,-0.3984375,-36.6875,-73.0625,-39.875
308,-0.49902344,-0.2998047,-0.2841797,1.15625,-0.625,47.0
309,-1.6601562,-0.7939453,0.14453125,-61.59375,94.40625,-22.71875
310,-0.72753906,-0.13476562,0.021484375,3.03125,15.5,-16.71875
311,-0.8828125,0.060546875,0.2421875,0.78125,36.9375,7.625
312,-1.1445312,-0.3125,0.13867188,-30.15625,13.65625,3.96875
313,-1.0654297,-0.55859375,0.16992188,9.40625,-20.75,11.9375
314,-0.82910156,-0.46972656,-0.046875,52.78125,-43.59375,6.59375
315,-0.95410156,-0.43847656,0.13183594,23.6875,4.03125,-7.6875
316,-1.1064453,-0.29492188,-0.045898438,20.375,6.90625,-21.625
317,-0.9423828,-0.064453125,0.07910156,24.40625,-11.78125,-11.0
318,-0.99121094,0.0068359375,0.017578125,-8.96875,0.90625,-11.3125
319,-0.7236328,-0.41015625,0.0126953125,-11.71875,0.4375,2.1875
320,-0.67285156,-0.296875,-0.0068359375,-19.21875,8.96875,-6.53125
321,-0.6621094,-0.046875,-0.0625,-15.875,5.3125,-4.96875
322,-1.7832031,0.09667969,0.46484375,22.34375,23.3125,9.375
323,-1.0537109,-0.4814453,-0.2890625,-49.1875,-82.03125,11.78125
324,-0.15722656,0.09765625,-0.09472656,60.25,-13.5625,4.75
325,-1.3789062,-1.1240234,-0.18945312,-25.21875,81.0,42.34375
326,-0.98828125,-0.33691406,0.15429688,-6.0625,9.28125,-29.71875
327,-0.8203125,0.21679688,0.055664062,7.125,36.8125,-13.8125
328,-1.0400391,-0.26171875,0.2841797,-11.90625,18.90625,8.09375
329,-1.2578125,-0.7783203,0.036132812,28.4375,-20.34375,6.40625
330,-0.8769531,-0.2421875,-0.07519531,109.84375,-59.625,0.28125
331,-0.95214844,-0.21289062,0.025390625,55.15625,0.78125,4.8125
332,-1.1328125,-0.23144531,0.10253906,9.28125,-14.59375,-0.75
333,-0.6894531,0.0078125,-0.06542969,-14.46875,-11.84375,-13.1875
334,-0.5292969,-0.16601562,0.013671875,-35.53125,1.78125,-5.4375
335,-0.54589844,-0.17773438,-0.022460938,-20.28125,12.4375,18.375
336,-1.6035156,-0.095703125,0.58203125,4.15625,54.25,6.09375
337,-1.2070312,-0.8066406,0.12597656,-75.5,-65.8125,-9.65625
338,-0.31152344,0.3125,-0.24804688,-7.34375,-54.375,-30.40625
339,-0.91796875,-0.45898438,-0.23925781,53.21875,77.3125,82.625
340,-1.2792969,-0.83984375,0.24121094,-67.5,44.3125,-10.6875
341,-0.703125,0.06933594,-0.08300781,-6.53125,6.15625,-23.375
342,-1.0751953,-0.107421875,0.17285156,8.0625,39.65625,15.0
343,-1.1777344,-0.42578125,0.15039062,-17.9375,-0.4375,-2.15625
344,-1.0146484,-0.36816406,0.055664062,0.3125,-40.09375,-14.09375
345,-0.9394531,-0.37890625,0.026367188,53.71875,-45.40625,0.65625
346,-0.9189453,-0.3173828,-0.061523438,79.46875,-27.59375,15.1875
347,-0.98046875,-0.22851562,0.049804688,26.84375,-3.46875,-5.0
348,-1.0302734,-0.1015625,0.08496094,-25.8125,1.9375,-11.125
349,-0.79589844,-0.15527344,0.057617188,-10.6875,5.90625,-4.34375
350,-0.67578125,-0.31835938,0.017578125,-13.3125,16.09375,7.5
351,-0.828125,-0.24511719,0.14257812,-39.375,12.15625,-6.125
352,-0.7285156,0.013671875,-0.005859375,-43.78125,-8.1875,-8.96875
353,-1.9892578,-0.375,0.57910156,30.9375,37.78125,30.4375
354,-0.5830078,-0.2939453,-0.6689453,-66.34375,-100.34375,-21.6875
355,-0.2919922,0.13867188,-0.0068359375,49.3125,11.21875,4.8125
356,-1.6728516,-0.8066406,-0.12890625,1.28125,57.78125,8.15625
357,-0.8886719,-0.2783203,-0.029296875,-12.09375,8.125,-17.90625
358,-0.78125,0.06347656,0.03125,-7.03125,41.375,-6.0625
359,-1.1376953,-0.27539062,0.21289062,-25.21875,28.0,0.78125
360,-1.0488281,-0.34472656,0.3076172,-16.90625,-15.5,-6.0
361,-1.046875,-0.5673828,0.1953125,14.75,-65.5,-12.9375
362,-1.1298828,-0.36132812,-0.30859375,120.46875,-89.40625,-0.5625
363,-0.7753906,-0.34765625,0.1484375,117.59375,-14.96875,36.71875
364,-1.0878906,-0.16796875,-0.10644531,-10.03125,2.0625,-20.9375
365,-0.70703125,-0.14941406,0.09667969,-46.625,44.0,-41.8125
366,-0.5390625,-0.026367188,0.07910156,-17.15625,39.3125,-8.625
367,-0.64160156,-0.072265625,-0.051757812,-17.21875,27.15625,22.03125
368,-1.0693359,-0.024414062,0.18945312,12.03125,20.1875,26.78125
369,-1.9892578,-1.2929688,0.9550781,-38.09375,-21.90625,12.75
370,-0.3701172,0.07910156,-0.5996094,-64.34375,-89.59375,-66.46875
371,-0.64746094,0.24511719,0.0126953125,26.53125,60.46875,29.28125
372,-1.6083984,-0.63183594,-0.0048828125,2.75,46.03125,24.03125
373,-0.81152344,-0.40429688,0.044921875,-21.25,-13.625,-14.96875
374,-0.8417969,-0.055664062,0.15332031,-13.1875,20.5,3.34375
375,-1.1464844,-0.5390625,0.28222656,-22.96875,-1.15625,5.0625
376,-0.9785156,-0.5673828,0.15332031,-3.5,-40.96875,-21.625
377,-1.0556641,-0.36328125,-0.13085938,85.625,-61.34375,-6.46875
378,-0.8515625,-0.18261719,0.0146484375,104.1875,-12.5625,18.1875
379,-1.0244141,-0.15722656,0.01171875,12.375,5.3125,-0.0625
380,-0.9033203,-0.06933594,0.09667969,-46.21875,23.0625,-22.46875
381,-0.70410156,0.00390625,0.01953125,-48.21875,13.96875,-15.6875
382,-0.74609375,-0.24316406,0.033203125,-33.5625,6.46875,11.78125
383,-0.9345703,-0.15820312,0.17773438,-54.03125,-5.25,8.34375
384,-1.9375,-0.5527344,0.43847656,-25.875,-2.3125,19.71875
385,-0.5185547,-0.23730469,-0.33789062,-46.28125,-54.375,-22.09375
386,-0.91308594,-0.2705078,-0.0068359375,0.96875,35.03125,27.6875
387,-1.1816406,-0.7001953,-0.0390625,-31.875,25.6875,-0.875
388,-0.90722656,-0.296875,-0.01171875,-8.84375,27.65625,-14.0
389,-0.91015625,-0.0625,0.09472656,13.78125,23.75,5.90625
390,-1.0654297,-0.24121094,0.16601562,-9.53125,16.84375,6.21875
391,-1.0341797,-0.40722656,0.31835938,-7.75,-12.15625,-3.3125
392,-0.9736328,-0.51953125,0.045898438,50.15625,-58.90625,3.03125
393,-1.0253906,-0.3408203,-0.12988281,81.125,-50.0625,9.28125
394,-0.94921875,-0.24023438,0.0390625,77.03125,9.59375,5.4375
395,-0.9824219,-0.21875,0.034179688,-27.65625,17.8125,-22.40625
396,-0.85546875,0.04296875,0.04296875,-36.6875,11.71875,-23.25
397,-0.6279297,-0.13378906,-0.017578125,6.03125,12.5625,15.625
398,-0.7080078,-0.27246094,-0.016601562,-31.625,17.40625,11.9375
399,-1.3007812,0.032226562,0.4091797,-9.59375,5.5,18.25
400,-1.5166016,-0.6972656,0.2939453,6.09375,-11.84375,42.53125
401,-0.4345703,-0.10058594,-0.21386719,36.84375,-39.4375,-15.5625
402,-0.953125,-0.57910156,-0.234375,10.0625,53.9375,36.5625
403,-1.1923828,-0.26757812,0.13964844,-19.40625,59.1875,-18.5625
404,-0.8925781,0.0,0.10839844,-16.90625,11.84375,-19.40625
405,-1.0966797,-0.038085938,0.45117188,-26.375,11.53125,-12.03125
406,-1.1445312,-0.56152344,0.119140625,-34.0625,-61.46875,-17.96875
407,-1.0351562,-0.3046875,-0.13378906,72.3125,-90.75,-7.34375
408,-0.7402344,-0.13964844,-0.21875,78.3125,-28.03125,14.40625
409,-1.0996094,-0.40429688,0.13476562,-2.5,28.625,3.84375
410,-0.99609375,-0.24511719,0.10546875,-42.5625,21.71875,-27.28125
411,-0.9785156,0.099609375,0.0234375,-15.6875,23.875,-21.8125
412,-0.73535156,-0.21972656,-0.017578125,-25.40625,-0.4375,-5.75
413,-0.63378906,-0.11425781,0.064453125,-40.15625,-4.46875,-0.3125
414,-0.7626953,0.04296875,-0.001953125,-41.03125,-16.0625,16.09375
415,-1.9892578,-0.7783203,0.6621094,2.5625,21.71875,35.09375
416,-0.6503906,-0.3251953,-0.6611328,-59.34375,-90.21875,-36.8125
417,-0.41796875,0.005859375,-0.0068359375,41.1875,-3.59375,20.8125
418,-1.6230469,-0.70214844,-0.08886719,7.5,64.09375,2.25
419,-0.8496094,-0.3408203,0.060546875,-15.25,14.21875,-11.71875
420,-0.79589844,0.06542969,0.16210938,2.9375,41.8125,1.53125
421,-1.1669922,-0.30664062,0.2861328,-23.75,30.4375,0.1875
422,-1.0839844,-0.5214844,0.1484375,6.65625,-5.4375,-0.5
423,-0.9638672,-0.30078125,0.00390625,40.75,-47.4375,1.8125
424,-0.8417969,-0.3232422,0.057617188,78.4375,-6.53125,15.96875
425,-0.9951172,-0.37109375,0.072265625,26.4375,10.125,-5.1875
426,-1.1035156,-0.037109375,0.055664062,-18.25,-3.125,-19.0
427,-0.79589844,-0.051757812,-0.034179688,-21.84375,1.03125,-20.875
428,-0.77734375,-0.27148438,0.08105469,-17.84375,4.28125,-3.375
429,-0.94433594,-0.25585938,0.076171875,-22.03125,-0.4375,-7.8125
430,-0.89453125,-0.17675781,-0.025390625,-19.15625,-17.59375,-9.65625
431,-1.2324219,-0.033203125,-0.0087890625,-13.0625,-14.34375,7.25
432,-1.2197266,-0.032226562,0.3310547,-19.71875,-60.625,9.34375
433,-0.5605469,-0.11035156,-0.17871094,43.15625,-6.71875,9.5
434,-1.2431641,-0.86816406,-0.048828125,-52.125,22.59375,23.90625
435,-0.9238281,-0.4248047,-0.048828125,-2.4375,27.78125,-15.8125
436,-0.9160156,-0.14355469,-0.021484375,3.96875,38.15625,-5.8125
437,-0.9511719,-0.078125,0.15820312,6.21875,33.375,7.9375
438,-1.0800781,-0.30859375,0.25585938,-16.65625,15.875,-0.0625
439,-1.0419922,-0.5185547,0.08691406,36.8125,-29.125,3.96875
440,-1.0322266,-0.24414062,-0.0126953125,68.40625,-55.0625,-2.5625
441,-1.0253906,-0.17480469,-0.099609375,100.65625,-19.21875,22.28125
442,-0.9707031,-0.24121094,0.09082031,-8.375,18.96875,-0.375
443,-0.9589844,-0.19824219,0.05078125,-47.25,12.875,-26.75
444,-0.7685547,-0.16699219,0.1171875,-19.28125,15.1875,-23.75
445,-0.6855469,-0.14257812,0.06640625,-6.84375,8.65625,-0.75
446,-0.8105469,-0.0146484375,0.0126953125,-31.3125,0.71875,8.71875
447,-1.1835938,-0.1328125,0.103515625,-28.875,10.5,10.625
448,-1.6796875,-1.0390625,0.71875,-37.53125,-41.25,17.25
449,-0.40039062,-0.043945312,-0.55566406,-3.65625,-70.25,-23.375
450,-0.81347656,-0.05859375,0.06347656,8.1875,50.65625,24.90625
451,-1.3974609,-0.7705078,-0.037109375,-23.03125,29.84375,0.71875
452,-0.7792969,-0.22265625,-0.052734375,-0.75,14.53125,-9.21875
453,-0.9296875,-0.16699219,0.16015625,19.78125,28.375,13.46875
454,-1.1025391,-0.29296875,0.35058594,-22.84375,-1.09375,-9.21875
455,-1.0566406,-0.5136719,0.21191406,10.5,-35.46875,-14.40625
456,-1.0234375,-0.23730469,-0.11035156,137.03125,-83.0,6.40625
457,-0.9501953,-0.33789062,0.0703125,73.34375,-23.8125,24.34375
458,-1.0263672,-0.05078125,-0.14648438,-3.84375,-5.5,-8.8125
459,-0.94921875,-0.2939453,0.17089844,-76.125,39.78125,-29.3125
460,-0.7285156,-0.09375,0.13378906,-38.6875,16.53125,-19.71875
461,-0.66796875,-0.1796875,0.12402344,-15.15625,11.96875,5.84375
462,-0.62890625,-0.064453125,-0.12695312,-30.78125,7.3125,17.5625
463,-1.7939453,-0.20800781,0.21289062,-39.5,49.6875,22.21875
464,-0.86328125,-0.6074219,-0.12402344,-29.4375,-48.96875,13.34375
465,-0.38378906,0.07910156,-0.12402344,22.53125,-18.6875,-16.90625
466,-1.1933594,-0.6230469,-0.17285156,-0.96875,58.03125,27.03125
467,-1.0322266,-0.37695312,0.055664062,-9.78125,28.6875,-5.3125
468,-0.85058594,-0.06933594,0.0625,0.0625,24.03125,-1.09375
469,-1.0205078,-0.1875,0.25195312,-11.53125,20.25,-1.21875
470,-1.1298828,-0.45996094,0.35839844,-11.96875,-17.9375,-7.15625
471,-0.96191406,-0.62597656,0.0859375,46.5,-78.375,-13.625
472,-0.9638672,-0.11035156,-0.20605469,93.625,-90.59375,-11.0
473,-0.98339844,-0.27441406,0.043945312,80.4375,-7.625,24.78125
474,-1.0380859,-0.28808594,-0.0009765625,-16.53125,6.71875,-14.0625
475,-0.85253906,-0.13378906,0.1015625,-35.78125,26.96875,-30.84375
476,-0.83691406,-0.109375,0.1171875,-8.25,34.3125,-7.40625
477,-0.8564453,-0.18164062,0.19921875,-8.125,13.5,0.71875
478,-0.78027344,-0.07714844,0.040039062,-32.90625,-7.9375,-2.5
479,-0.6298828,-0.12792969,-0.12597656,-30.34375,-4.75,12.625
480,-1.9248047,-1.0673828,0.4765625,-47.5,62.6875,1.21875
481,-0.7001953,-0.3173828,-0.7636719,-18.0,-77.46875,3.15625
482,-0.33398438,0.19726562,0.08496094,53.71875,11.59375,-0.625
483,-1.5175781,-0.5488281,-0.15332031,-26.5625,63.59375,12.3125
484,-0.92578125,-0.5292969,0.125,-34.1875,12.8125,-6.71875
485,-0.81347656,0.020507812,0.16699219,1.9375,33.4375,-8.75
486,-1.0595703,-0.34472656,0.33691406,-21.96875,-3.375,-8.25
487,-1.1025391,-0.5751953,0.0234375,28.1875,-50.0625,-6.53125
488,-1.0751953,-0.24902344,-0.0703125,109.375,-47.84375,10.125
489,-0.82128906,-0.32910156,0.041015625,32.53125,-4.21875,6.03125
490,-0.98535156,-0.2783203,-0.028320312,-27.34375,24.71875,-12.28125
491,-0.8720703,-0.20410156,0.21875,-42.25,27.03125,-26.9375
492,-0.734375,-0.13085938,0.115234375,-4.71875,15.0625,2.6875
493,-0.71191406,-0.17285156,0.049804688,-21.125,5.90625,14.6875
494,-0.75097656,0.024414062,-0.051757812,-42.71875,-11.25,13.125
495,-1.9892578,-0.55078125,0.46484375,-13.9375,22.34375,29.96875
496,-0.6308594,-0.36523438,-0.53125,-31.0625,-90.6875,-12.46875
497,-0.51171875,-0.24121094,-0.076171875,22.53125,23.1875,17.1875
498,-1.3779297,-0.60058594,-0.057617188,-16.65625,57.0625,-5.375
499,-0.93652344,-0.17773438,0.13574219,-7.34375,18.375,-13.0625
500,-0.8330078,-0.061523438,0.21386719,4.6875,18.5625,2.625
501,-1.0830078,-0.46777344,0.36328125,-8.1875,-16.71875,-9.90625
502,-1.0849609,-0.515625,-0.12011719,61.03125,-64.21875,-17.59375
503,-0.8300781,-0.20605469,-0.13183594,56.4375,-31.8125,-5.5
504,-0.9707031,-0.115234375,-0.018554688,3.84375,12.4375,-16.1875
505,-1.0322266,-0.3017578,0.0859375,14.71875,29.15625,8.71875
506,-1.0585938,-0.23046875,0.19433594,8.125,12.5625,-6.46875
507,-0.875,-0.20898438,0.05078125,0.65625,-0.375,-4.03125
508,-0.7236328,-0.13183594,0.061523438,-4.9375,-5.125,5.96875
509,-0.66503906,-0.07128906,-0.119140625,-36.625,8.0,3.65625
510,-0.95996094,-0.047851562,0.10449219,-50.0625,18.125,3.40625
511,-1.7441406,-0.46289062,0.49316406,-10.5,1.34375,30.03125
512,-0.4375,-0.17089844,-0.23339844,12.03125,-37.40625,4.1875
513,-0.88671875,-0.70703125,-0.14550781,-19.59375,17.34375,24.59375
514,-1.1582031,-0.5419922,0.018554688,-34.125,41.25,-19.0
515,-0.81640625,-0.10253906,-0.06542969,-3.0,7.75,-4.90625
516,-0.9550781,-0.026367188,0.13183594,-3.96875,46.25,2.25
517,-1.1621094,-0.34570312,0.17773438,-25.8125,8.46875,2.0625
518,-0.98046875,-0.42578125,0.21386719,16.40625,-33.75,6.71875
519,-1.0595703,-0.5097656,-0.11621094,71.59375,-50.3125,-2.03125
520,-0.8808594,-0.40527344,0.045898438,87.9375,-24.0625,10.71875
521,-0.9785156,-0.2919922,-0.14941406,49.25,-12.09375,-2.8125
522,-0.9785156,0.03125,0.06542969,-13.1875,12.3125,-21.6875
523,-0.7607422,-0.21582031,0.08300781,-20.6875,8.0625,-15.9375
524,-0.765625,-0.21191406,0.055664062,-18.1875,7.0,-3.375
525,-0.7060547,0.016601562,0.064453125,-28.75,-1.03125,3.15625
526,-1.7548828,-0.17773438,0.4560547,-42.0625,6.34375,17.75
527,-0.87402344,-0.35839844,-0.33496094,-46.5,-69.875,-5.8125
528,-0.52246094,-0.13085938,-0.022460938,27.71875,12.03125,26.65625
529,-1.1953125,-0.8027344,-0.16015625,-36.4375,42.34375,12.375
530,-0.9970703,-0.37402344,0.041992188,-15.6875,27.65625,-7.8125
531,-0.8388672,-0.072265625,-0.0029296875,6.78125,28.4375,-0.0625
532,-0.99902344,-0.2548828,0.16113281,-13.4375,22.03125,5.84375
533,-1.0966797,-0.40820312,0.2890625,-2.625,2.25,2.5
534,-0.96972656,-0.54589844,0.10644531,26.84375,-47.375,-1.90625
535,-1.1171875,-0.29296875,-0.1953125,84.34375,-60.3125,-20.46875
536,-1.0146484,-0.2109375,0.06933594,102.53125,-12.09375,8.0
537,-0.8808594,-0.0625,-0.12988281,32.40625,-30.34375,-7.46875
538,-1.0234375,-0.16015625,0.083984375,-44.0625,22.21875,-17.96875
539,-0.7792969,-0.33203125,0.11230469,-30.09375,14.34375,-30.96875
540,-0.71875,-0.21875,0.18554688,8.40625,1.71875,-6.1875
541,-0.63378906,0.07324219,0.022460938,-21.0,-9.78125,12.5625
542,-1.1025391,-0.03125,0.39257812,-47.0,5.1875,15.5625
543,-1.5019531,-0.6464844,-0.15234375,-40.09375,-34.71875,12.8125
544,-0.30859375,0.1328125,0.051757812,26.25,-12.8125,-3.0625
545,-1.1708984,-0.734375,-0.265625,-3.1875,42.15625,42.15625
546,-1.046875,-0.44726562,0.099609375,-44.75,22.21875,-17.46875
547,-0.8232422,-0.1328125,-0.045898438,17.4375,26.65625,10.4375
548,-0.90722656,-0.140625,0.20605469,-4.65625,27.65625,6.65625
549,-1.1083984,-0.4169922,0.29785156,-5.9375,8.34375,1.34375
550,-0.9394531,-0.49121094,0.13671875,22.875,-41.03125,-0.25
551,-1.0292969,-0.29785156,-0.17089844,103.8125,-62.125,-2.75
552,-1.0419922,-0.18359375,0.19140625,82.40625,-6.53125,12.4375
553,-1.0507812,-0.107421875,-0.087890625,14.875,-7.625,-11.4375
554,-0.9941406,-0.21386719,0.11425781,-34.5625,16.71875,-21.625
555,-0.8779297,-0.17675781,0.12207031,-22.71875,13.25,-27.125
556,-0.8222656,-0.11230469,0.16894531,2.3125,3.40625,-2.75
557,-0.7626953,-0.11230469,0.06738281,-34.625,-6.59375,3.78125
558,-0.640625,-0.1171875,-0.11035156,-43.59375,-7.09375,11.71875
559,-1.5566406,-0.38476562,0.26953125,-50.90625,29.28125,16.59375
560,-0.9111328,-0.4716797,-0.38964844,-29.5,-48.15625,7.25
561,-0.42773438,0.18457031,0.0048828125,0.46875,10.96875,-10.03125
562,-1.3320312,-0.60839844,-0.16113281,-13.875,46.75,28.6875
563,-0.9160156,-0.3779297,0.09472656,-36.125,20.6875,-7.8125
564,-0.87402344,-0.18847656,0.103515625,-12.03125,18.90625,-9.21875
565,-1.0673828,-0.20117188,0.45410156,-22.03125,5.84375,-17.15625
566,-1.1201172,-0.63183594,0.059570312,3.0,-30.03125,-20.75
567,-1.0654297,-0.2685547,-0.1875,128.09375,-74.90625,10.65625
568,-0.88183594,-0.2890625,0.047851562,65.71875,-8.1875,15.96875
569,-1.0751953,-0.2841797,-0.0029296875,-30.78125,15.4375,-21.75
570,-0.8330078,-0.21484375,0.10546875,-33.15625,11.28125,-29.1875
571,-0.6591797,-0.09277344,0.11425781,-8.78125,10.875,-6.65625
572,-0.5576172,-0.10449219,0.005859375,-8.90625,1.65625,22.03125
573,-1.1787109,0.14550781,0.4296875,-3.84375,-0.25,29.15625
574,-1.2929688,-0.71777344,-0.38085938,-70.125,-56.15625,10.25
575,-0.4189453,-0.0625,-0.07421875,23.84375,-29.53125,5.53125
576,-1.2041016,-0.7421875,-0.29296875,0.46875,58.09375,34.90625
577,-1.0869141,-0.47753906,0.12988281,-39.1875,53.9375,-21.625
578,-0.7451172,0.12988281,0.07324219,1.8125,36.625,-5.4375
579,-0.9980469,-0.16601562,0.2529297,1.875,39.0625,14.40625
580,-1.2177734,-0.6972656,0.25,-2.5625,2.0,2.3125
581,-1.0029297,-0.39257812,-0.0234375,85.8125,-84.65625,-1.15625
582,-0.90625,-0.18164062,-0.1796875,106.3125,-59.625,12.125
583,-1.1298828,-0.328125,0.06347656,12.25,9.625,-6.125
584,-0.9326172,0.0087890625,-0.14453125,6.34375,-18.3125,-29.1875
585,-0.625,-0.051757812,-0.029296875,-53.03125,12.15625,-26.3125
586,-0.57128906,-0.19238281,0.032226562,-16.5,31.71875,9.15625
587,-0.66503906,-0.17285156,-0.061523438,14.71875,33.1875,34.71875
588,-1.9892578,-0.23730469,0.35351562,40.71875,111.03125,12.0625
589,-0.70703125,-0.12109375,-0.17773438,-67.03125,-126.71875,-35.03125
590,-0.203125,0.25878906,-0.21484375,28.75,-21.5625,-7.40625
591,-1.3056641,-0.40429688,-0.09277344,-1.21875,119.5,82.09375
592,-1.0039062,-0.6875,0.23828125,-71.78125,-17.71875,-13.125
593,-0.80371094,0.16699219,0.2705078,-4.65625,20.25,-30.03125
594,-1.1416016,-0.45117188,0.3125,-24.78125,-36.125,0.53125
595,-1.1103516,-0.7519531,-0.043945312,69.4375,-94.3125,-5.0625
596,-0.8486328,-0.16601562,-0.2109375,112.1875,-60.625,6.8125
597,-0.9501953,-0.17382812,0.07714844,31.5625,22.53125,-6.0
598,-0.9892578,-0.22363281,0.087890625,-14.78125,19.34375,-11.65625
599,-0.93359375,-0.19824219,0.056640625,-30.875,33.9375,-12.8125
600,-0.9375,-0.26660156,0.14550781,-2.5625,-6.34375,-11.3125
601,-0.7363281,-0.12011719,0.052734375,-7.625,-10.9375,-4.78125
602,-0.7089844,-0.068359375,-0.043945312,-26.5625,3.0,-5.125
603,-0.81152344,-0.044921875,-0.046875,-36.3125,11.21875,4.875
604,-1.9892578,-0.30371094,0.8457031,2.4375,-11.71875,29.15625
605,-0.40234375,-0.15234375,-0.59472656,-22.09375,-70.3125,-4.71875
606,-0.43945312,-0.23730469,0.046875,13.46875,42.90625,42.46875
607,-1.5449219,-1.0380859,0.022460938,-30.34375,55.46875,-5.8125
608,-0.8203125,-0.078125,-0.029296875,-8.625,11.59375,-34.8125
609,-0.8457031,0.08984375,0.18945312,9.34375,44.625,-1.96875
610,-1.1054688,-0.3642578,0.23632812,-68.90625,-3.125,-12.8125
611,-1.1210938,-0.6328125,0.022460938,6.90625,-26.5625,-16.84375
612,-1.0146484,-0.076171875,-0.057617188,66.53125,-49.625,-12.15625
613,-0.89746094,-0.25585938,0.09863281,68.40625,4.625,17.375
614,-1.0458984,-0.4873047,0.14550781,-18.6875,8.71875,6.34375
615,-0.8642578,-0.25878906,0.12402344,1.21875,4.75,-7.6875
616,-0.75683594,-0.23242188,0.16210938,16.90625,2.4375,-2.625
617,-0.7324219,-0.11621094,0.083984375,-6.46875,-3.65625,-1.34375
618,-0.5830078,0.046875,-0.046875,-32.46875,-2.8125,-0.75
619,-1.0644531,-0.0078125,0.29003906,-12.21875,44.1875,10.125
620,-1.8974609,-0.5019531,0.23925781,21.90625,-74.28125,42.09375
621,-0.20410156,0.036132812,-0.21191406,19.78125,-71.125,-2.4375
622,-0.9111328,-0.53808594,-0.115234375,-23.25,59.5625,40.75
623,-1.3759766,-0.63378906,0.19824219,-53.0,50.15625,-22.15625
624,-0.7392578,0.07714844,-0.052734375,-7.4375,16.15625,-25.59375
625,-0.9902344,0.08496094,0.19824219,-4.21875,61.59375,-2.03125
626,-1.1259766,-0.3515625,0.15917969,-53.28125,2.0,0.34375
627,-1.0126953,-0.41503906,0.10253906,10.125,-31.5,7.125
628,-0.8984375,-0.46875,-0.02734375,48.40625,-45.09375,2.5625
629,-1.0087891,-0.578125,-0.11425781,42.28125,-11.28125,-1.53125
630,-1.046875,-0.41503906,0.022460938,74.75,5.84375,-6.25
631,-1.1367188,0.15332031,0.12207031,9.34375,-15.6875,-34.8125
632,-0.7128906,-0.15917969,-0.09667969,5.4375,-7.875,-3.0625
633,-0.72753906,-0.5048828,0.02734375,-4.53125,14.34375,7.75
634,-0.73339844,-0.20800781,0.005859375,-10.5,6.21875,-1.53125
635,-0.60839844,0.09765625,-0.034179688,-12.15625,-1.09375,2.96875
636,-1.2666016,0.09277344,0.54589844,21.65625,38.375,16.34375
637,-1.8046875,-0.6699219,-0.17285156,-56.34375,-89.53125,18.0
638,-0.107421875,0.09472656,-0.3701172,-8.25,-91.96875,0.90625
639,-0.7890625,-0.66015625,-0.14941406,56.09375,107.46875,69.375
640,-1.4980469,-0.74902344,0.26464844,-58.40625,48.8125,-12.65625
641,-0.6796875,0.27148438,-0.055664062,-1.71875,21.3125,-36.3125
642,-0.9355469,0.21972656,0.25097656,-7.5625,49.8125,-0.75
643,-1.125,-0.48242188,0.31640625,-41.5625,-12.40625,4.5625
644,-1.1298828,-0.69921875,-0.052734375,5.125,-44.875,-0.125
645,-1.109375,-0.42285156,-0.1640625,80.5625,-42.0,-2.03125
646,-0.78027344,-0.32910156,0.05078125,43.875,6.53125,-6.90625
647,-1.0253906,-0.056640625,-0.021484375,10.125,12.03125,-23.03125
648,-0.82714844,-0.0009765625,0.09667969,-6.59375,11.21875,-14.71875
649,-0.67871094,-0.3720703,-0.041015625,-8.625,9.6875,-10.3125
650,-0.6669922,-0.026367188,0.029296875,-29.78125,-4.875,-0.6875
651,-0.7783203,0.33691406,0.265625,-21.5625,-16.3125,15.4375
652,-1.9892578,-0.76171875,0.5419922,-28.03125,-45.78125,37.40625
653,-0.30273438,-0.2841797,-0.56347656,-11.65625,-96.3125,-11.78125
654,-0.59277344,-0.54785156,-0.1171875,3.15625,54.375,30.75
655,-1.4726562,-0.51953125,0.123046875,-45.34375,54.6875,-16.375
656,-0.7705078,0.02734375,0.016601562,6.03125,13.96875,-11.0
657,-0.97265625,0.025390625,0.27539062,2.0625,36.375,8.84375
658,-1.046875,-0.5253906,0.37402344,-24.125,-20.375,4.875
659,-1.0351562,-0.71484375,0.020507812,23.5625,-59.6875,-13.125
660,-1.0117188,-0.091796875,-0.30273438,128.21875,-84.0625,-2.875
661,-1.0498047,-0.22558594,0.14453125,21.65625,46.5625,2.1875
662,-1.0927734,-0.25,-0.01953125,-10.0625,15.3125,-18.25
663,-0.89941406,-0.2919922,0.18457031,-35.15625,20.125,-40.96875
664,-0.86035156,-0.11621094,0.14257812,11.21875,7.25,-13.0625
665,-0.64746094,-0.11230469,0.0146484375,15.125,-14.34375,7.6875
666,-0.69433594,0.047851562,-0.12597656,-7.5,-15.6875,18.96875
667,-1.1103516,-0.0048828125,0.3330078,-0.875,23.4375,15.90625
668,-1.9892578,-0.37304688,0.35839844,11.09375,-52.96875,32.9375
669,-0.3017578,0.029296875,-0.3125,-3.96875,-45.84375,-8.875
670,-0.9814453,-0.625,-0.08105469,-36.03125,56.5,40.59375
671,-1.2275391,-0.49609375,0.10253906,-37.25,35.15625,-14.40625
672,-0.8046875,-0.078125,0.0068359375,-6.28125,36.8125,-13.8125
673,-0.92578125,0.11328125,0.20996094,-26.5625,50.90625,-12.59375
674,-1.1103516,-0.3232422,0.3544922,-59.625,-10.375,-1.34375
675,-1.1357422,-0.7138672,0.13378906,4.03125,-55.59375,-11.0625
676,-1.0146484,-0.39160156,-0.20800781,78.65625,-97.21875,-10.5625
677,-0.83496094,-0.265625,-0.06933594,91.0,-40.78125,10.1875
678,-1.078125,-0.27441406,0.14160156,30.28125,-3.78125,-6.65625
679,-0.89941406,-0.14746094,-0.022460938,-22.15625,7.25,-29.5
680,-0.7734375,-0.109375,0.048828125,-25.09375,27.65625,-23.15625
681,-0.7949219,-0.1953125,0.14648438,-21.25,25.875,-5.9375
682,-0.80371094,-0.123046875,0.06738281,-19.21875,5.84375,4.375
683,-0.68847656,-0.0009765625,0.061523438,-27.90625,-0.25,9.5625
684,-1.9892578,-0.515625,1.0712891,3.78125,-9.65625,11.15625
685,-0.59277344,-0.27734375,-0.3330078,-7.875,-47.1875,-11.0
686,-0.63964844,-0.2265625,-0.068359375,3.90625,8.34375,25.1875
687,-1.3349609,-0.8232422,-0.0048828125,-41.4375,37.84375,0.21875
688,-0.9267578,-0.15820312,-0.038085938,-22.65625,31.0625,-16.0
689,-0.8642578,-0.048828125,0.00390625,8.59375,36.625,10.96875
690,-0.98828125,-0.31347656,0.078125,-13.96875,41.875,9.34375
691,-0.9638672,-0.31835938,0.16601562,-22.28125,25.3125,6.40625
692,-1.0039062,-0.38085938,0.30566406,-15.9375,-8.25,10.0
693,-1.0,-0.5625,0.22460938,-16.59375,-51.34375,-9.40625
694,-1.0361328,-0.5683594,-0.15136719,99.25,-53.78125,-8.125
695,-0.8964844,-0.14453125,-0.21972656,130.1875,-36.375,16.59375
696,-1.2226562,-0.1171875,0.2626953,13.46875,2.1875,2.125
697,-0.9589844,-0.041015625,-0.0029296875,-22.59375,-7.34375,-25.53125
698,-0.7421875,-0.3544922,0.044921875,-17.34375,13.3125,-5.3125
699,-0.8183594,-0.32421875,0.09863281,3.96875,4.5625,0.84375
700,-0.6855469,-0.0078125,-0.0087890625,-1.09375,-4.40625,5.65625
701,-0.8144531,0.25195312,0.4765625,-3.0625,-6.28125,16.46875
702,-1.8789062,-0.58203125,-0.2578125,-6.71875,-40.96875,31.375
703,-0.41210938,-0.22851562,0.05859375,31.5625,-30.40625,5.78125
704,-1.0,-0.5859375,-0.11621094,-24.65625,23.8125,15.0625
705,-1.1357422,-0.3701172,0.021484375,-5.4375,31.125,-16.90625
706,-0.9277344,-0.13964844,0.091796875,11.71875,37.34375,11.84375
707,-0.7890625,-0.16503906,0.09667969,-0.75,36.25,5.1875
708,-1.1328125,-0.30273438,0.25,-19.53125,34.96875,-4.46875
709,-1.0009766,-0.25390625,0.3515625,-20.5,-14.71875,-8.96875
710,-1.0175781,-0.39746094,0.0546875,12.03125,-55.65625,-12.9375
711,-1.1816406,-0.25097656,-0.048828125,64.03125,-54.75,-5.8125
712,-0.9658203,-0.3779297,0.13378906,78.96875,-24.84375,5.84375
713,-0.9892578,-0.20410156,0.0,-2.875,1.71875,-25.875
714,-0.78125,-0.07519531,0.051757812,-8.71875,26.1875,-27.84375
715,-0.65527344,-0.3515625,-0.032226562,-30.65625,30.625,-24.71875
716,-0.55859375,0.0087890625,-0.11035156,-29.4375,35.625,6.09375
717,-0.8623047,0.07910156,0.63964844,-0.25,28.5,32.875
718,-1.9892578,-0.640625,0.041992188,-0.125,-48.90625,34.78125
719,-0.14746094,0.038085938,-0.2626953,39.53125,-96.25,-6.28125
720,-0.63183594,-0.23242188,-0.18066406,-29.1875,41.3125,50.03125
721,-1.5966797,-0.8652344,0.2998047,-68.625,65.59375,-6.90625
722,-0.6298828,0.013671875,0.06738281,11.59375,24.53125,-19.84375
723,-1.0107422,-0.05859375,0.4189453,-9.84375,13.84375,7.9375
724,-1.0341797,-0.48339844,0.55078125,-52.125,-53.90625,-23.5
725,-1.1054688,-0.7988281,0.026367188,58.71875,-85.875,-19.84375
726,-0.87109375,-0.3984375,-0.3330078,115.21875,-72.5625,10.5
727,-1.0341797,0.16015625,0.00390625,-13.0625,28.625,-28.21875
728,-1.2402344,-0.025390625,0.2705078,4.75,20.3125,-8.8125
729,-0.8955078,-0.140625,0.1015625,-56.21875,17.6875,-14.0
730,-1.0566406,-0.1953125,0.03125,-44.4375,-6.34375,-9.65625
731,-0.6816406,-0.18652344,0.13378906,-9.15625,-19.84375,-1.65625
732,-0.52246094,-0.068359375,0.024414062,-23.5625,-1.21875,10.1875
733,-0.68847656,-0.14355469,-0.07519531,-29.5,25.9375,15.75
734,-1.9892578,-0.6201172,0.8671875,-53.34375,-0.3125,15.5
735,-0.54785156,-0.036132812,-0.4638672,15.375,-83.25,14.28125
736,-0.27539062,0.017578125,-0.047851562,-22.46875,32.78125,25.8125
737,-1.7226562,-1.1464844,0.048828125,-52.6875,89.78125,-3.4375
738,-0.7451172,-0.15234375,0.051757812,-2.8125,11.71875,-29.625
739,-0.875,-0.036132812,0.15429688,18.78125,31.5625,6.15625
740,-1.1210938,-0.24023438,0.4140625,-40.53125,3.59375,-7.46875
741,-1.0957031,-0.69628906,0.06738281,2.1875,-40.96875,-5.0625
742,-1.0058594,-0.3701172,0.026367188,74.875,-49.75,-1.09375
743,-0.9248047,-0.16503906,-0.14648438,69.75,-21.0,6.53125
744,-1.1884766,-0.48632812,0.36132812,-16.5,23.6875,-14.78125
745,-0.79296875,-0.111328125,0.06933594,12.09375,-0.5,-48.21875
746,-0.42578125,0.08300781,-0.15332031,6.59375,-0.375,-17.71875
747,-0.46972656,-0.0078125,-0.087890625,-32.21875,16.46875,15.75
748,-0.7988281,0.109375,0.19921875,-26.96875,12.5,15.1875
749,-1.9892578,-0.90625,0.15136719,-53.21875,-106.875,26.28125
750,-0.06347656,-0.037109375,-0.23632812,30.75,-122.875,-5.25
751,-0.66308594,-0.5175781,-0.37402344,-7.4375,57.78125,61.75
752,-1.8251953,-0.9316406,0.3779297,-72.9375,125.96875,-27.0
753,-0.5419922,0.10644531,-0.045898438,-15.09375,1.53125,-34.125
754,-0.78125,0.091796875,0.2421875,17.5625,39.84375,10.96875
755,-1.2597656,-0.5957031,0.23144531,-64.09375,-1.59375,-20.34375
756,-0.9765625,-0.60253906,-0.23242188,39.4375,-47.84375,3.78125
757,-0.8720703,-0.044921875,-0.041992188,54.1875,-20.15625,-7.21875
758,-0.9707031,-0.19042969,0.08300781,77.8125,18.125,24.65625
759,-1.0126953,-0.36914062,0.19042969,-29.90625,3.65625,-10.1875
