sample_no,accel_x,accel_y,accel_z,gyro_x,gyro_y,gyro_z
0,0.10253906,-0.0064086914,-0.97052,0.234375,-0.984375,0.078125
1,0.10058594,-0.006164551,-0.97491455,0.53125,-0.671875,0.125
2,0.10107422,-0.0051879883,-0.973938,0.109375,-0.890625,0.21875
3,0.10498047,-0.0095825195,-0.96881104,-0.09375,-0.828125,0.21875
4,0.103515625,-0.0051879883,-0.9680786,-0.390625,-1.046875,0.21875
5,0.09887695,-0.0064086914,-0.9714966,-0.140625,-0.984375,0.234375
6,0.1003418,-0.0044555664,-0.97198486,-1.171875,-1.65625,0.125
7,0.1015625,-0.0071411133,-0.9668579,-0.734375,-1.609375,0.171875
8,0.1015625,-0.0115356445,-0.96539307,0.59375,-0.828125,0.296875
9,0.10571289,-6.1035156e-05,-0.97613525,0.921875,-0.671875,0.25
10,0.09643555,-0.0076293945,-0.97198486,0.90625,-0.703125,0.15625
11,0.10107422,-0.008117676,-0.9714966,0.8125,-0.578125,0.1875
12,0.09741211,-0.006164551,-0.97491455,0.703125,-0.515625,0.140625
13,0.103271484,-0.003967285,-0.9673462,0.4375,-0.640625,0.15625
14,0.09667969,0.0006713867,-0.9680786,0.34375,-0.734375,0.171875
15,0.10473633,-0.003967285,-0.97003174,0.484375,-0.671875,0.234375
16,0.10131836,-0.0012817383,-0.975647,0.234375,-0.734375,0.1875
17,0.10131836,-0.0051879883,-0.9714966,-0.171875,-1.125,0.0625
18,0.10180664,-0.003479004,-0.96661377,-0.234375,-1.25,0.234375
19,0.095703125,-0.0029907227,-0.9741821,-0.046875,-1.1875,0.203125
20,0.099609375,-0.00030517578,-0.9727173,-0.21875,-1.140625,0.3125
21,0.09814453,-0.0029907227,-0.9758911,-0.53125,-1.0,0.28125
22,0.1015625,-0.0032348633,-0.9702759,-0.40625,-0.734375,0.21875
23,0.095703125,-0.0017700195,-0.96710205,-0.15625,-0.75,0.125
24,0.09716797,-0.004699707,-0.9685669,-0.296875,-0.375,0.171875
25,0.10131836,-0.0029907227,-0.9768677,-0.046875,-0.921875,0.25
26,0.100097656,-0.007385254,-0.9729614,-0.0625,-1.203125,0.171875
27,0.09790039,-0.0071411133,-0.9763794,-0.078125,-1.3125,0.234375
28,0.095214844,-0.005432129,-0.9734497,0.171875,-1.578125,0.15625
29,0.09375,-0.008361816,-0.9685669,0.15625,-1.640625,0.296875
30,0.09667969,-0.0049438477,-0.9714966,-0.09375,-1.828125,0.34375
31,0.09716797,-0.0044555664,-0.9702759,0.15625,-1.296875,0.109375
32,0.10498047,-6.1035156e-05,-0.9763794,0.5625,-1.03125,0.15625
33,0.09667969,-0.0037231445,-0.972229,0.65625,-0.875,0.203125
34,0.09643555,-0.0029907227,-0.9714966,0.296875,-0.859375,0.109375
35,0.09448242,-0.0037231445,-0.9697876,0.3125,-1.171875,0.109375
36,0.099365234,-0.009338379,-0.96954346,0.015625,-1.0,0.140625
37,0.10131836,-0.003967285,-0.9727173,-0.0625,-1.140625,0.171875
38,0.103759766,-0.0025024414,-0.9734497,-0.484375,-1.078125,0.03125
39,0.10180664,-0.006164551,-0.97076416,-0.78125,-0.953125,0.15625
40,0.09814453,-0.0005493164,-0.97125244,-0.65625,-1.15625,0.203125
41,0.09692383,-0.0095825195,-0.9710083,-0.359375,-1.203125,0.171875
42,0.091308594,-0.0037231445,-0.9717407,-0.234375,-1.140625,0.203125
43,0.09765625,-0.009338379,-0.9729614,-0.109375,-1.203125,0.3125
44,0.10058594,0.00018310547,-0.96954346,-0.046875,-0.890625,0.15625
45,0.099853516,-0.0064086914,-0.973938,-0.015625,-0.609375,0.171875
46,0.096191406,-0.008117676,-0.97491455,-0.015625,-0.765625,0.171875
47,0.0925293,-0.009094238,-0.97052,0.171875,-1.140625,0.234375
48,0.095947266,-0.0064086914,-0.972229,0.203125,-1.421875,0.234375
49,0.1003418,-0.008361816,-0.9685669,0.1875,-1.390625,0.328125
50,0.09887695,-0.0071411133,-0.96954346,0.265625,-1.4375,0.328125
51,0.103515625,-0.011291504,-0.9680786,0.453125,-1.40625,0.09375
52,0.09716797,-0.0068969727,-0.9717407,0.4375,-1.28125,0.203125
53,0.09741211,-0.002746582,-0.9673462,0.328125,-1.0625,0.28125
54,0.09887695,-0.007385254,-0.9680786,0.359375,-1.171875,0.375
55,0.09887695,-0.003479004,-0.97052,0.125,-1.109375,0.25
56,0.09326172,-0.004211426,-0.9727173,0.359375,-1.03125,0.234375
57,0.100097656,-0.007873535,-0.9690552,0.546875,-1.015625,0.171875
58,0.10205078,-0.0010375977,-0.9697876,0.328125,-0.890625,0.109375
59,0.09326172,-0.0005493164,-0.97613525,0.109375,-0.9375,0.15625
60,0.09814453,-0.011047363,-0.97442627,-0.09375,-0.859375,0.3125
61,0.10058594,0.001159668,-0.9717407,-0.4375,-1.0,0.234375
62,0.0949707,-0.00079345703,-0.9771118,-0.671875,-0.578125,0.171875
63,0.09375,-0.0032348633,-0.97906494,0.0625,-0.265625,0.140625
64,0.092041016,0.0006713867,-0.97491455,0.3125,-0.40625,0.109375
65,0.09106445,0.00091552734,-0.97320557,0.3125,-0.9375,0.28125
66,0.09008789,-0.0076293945,-0.96954346,0.125,-1.328125,0.125
67,0.09692383,-0.005432129,-0.9741821,0.140625,-1.59375,0.25
68,0.09375,-0.013244629,-0.97662354,0.125,-1.625,0.296875
69,0.09863281,-0.006652832,-0.9663696,-0.15625,-1.703125,0.3125
70,0.09692383,-0.006164551,-0.96539307,0.03125,-1.453125,0.0625
71,0.099121094,-0.008605957,-0.9729614,0.59375,-1.03125,0.0625
72,0.095947266,-0.0037231445,-0.9758911,0.5625,-1.0625,0.1875
73,0.095947266,-0.0022583008,-0.97320557,0.390625,-1.40625,0.140625
74,0.09887695,-0.0010375977,-0.96539307,0.21875,-1.171875,0.28125
75,0.095947266,0.0004272461,-0.97125244,0.15625,-1.046875,0.265625
76,0.09863281,0.0016479492,-0.973938,0.25,-1.03125,0.15625
77,0.103515625,-0.006164551,-0.9746704,0.03125,-1.015625,0.140625
78,0.09790039,-0.002746582,-0.9734497,0.03125,-0.734375,0.3125
79,0.1027832,0.0018920898,-0.96466064,-0.015625,-0.796875,0.3125
80,0.099609375,-0.0025024414,-0.97662354,-0.15625,-0.765625,0.28125
81,0.09692383,0.0016479492,-0.97369385,-0.171875,-0.75,0.25
82,0.09667969,-0.009094238,-0.9697876,0.125,-0.375,0.109375
83,0.092285156,-0.0037231445,-0.97247314,0.0625,-0.796875,0.109375
84,0.09326172,-0.0095825195,-0.9729614,0.09375,-1.234375,0.1875
85,0.09765625,-0.0015258789,-0.972229,-0.1875,-1.4375,0.359375
86,0.09008789,-0.00592041,-0.9751587,0.015625,-1.421875,0.203125
87,0.09814453,-0.0032348633,-0.9714966,-0.15625,-1.578125,0.1875
88,0.0949707,-0.002746582,-0.9727173,0.015625,-1.515625,0.21875
89,0.099609375,0.001159668,-0.97052,0.265625,-1.28125,0.203125
90,0.095703125,-0.0029907227,-0.9714966,0.203125,-1.28125,0.140625
91,0.099121094,-6.1035156e-05,-0.9690552,0.234375,-1.203125,0.25
92,0.09887695,-0.00030517578,-0.9717407,0.25,-1.265625,0.265625
93,0.103027344,0.002380371,-0.97735596,0.171875,-1.125,0.125
94,0.09887695,-0.005432129,-0.98028564,0.21875,-1.0,0.171875
95,0.09765625,-0.0022583008,-0.97125244,0.203125,-1.0,0.1875
96,0.099609375,-0.0015258789,-0.97003174,0.1875,-0.984375,0.171875
97,0.09326172,-6.1035156e-05,-0.9697876,0.046875,-1.015625,0.234375
98,0.09301758,0.002380371,-0.97076416,0.0,-0.890625,0.25
99,0.10205078,-0.0020141602,-0.9714966,-0.21875,-1.015625,0.28125
100,0.09692383,-0.0044555664,-0.9680786,-0.265625,-0.625,0.015625
101,0.0949707,-0.006652832,-0.97735596,-0.046875,-0.421875,0.140625
102,0.095214844,-0.0010375977,-0.97247314,-0.078125,-0.6875,0.140625
103,0.09643555,-0.004699707,-0.97247314,0.09375,-1.03125,0.234375
104,0.092041016,-0.0051879883,-0.9685669,-0.0625,-1.078125,0.203125
105,0.09106445,-0.002746582,-0.97442627,-0.109375,-1.359375,0.21875
106,0.09667969,-0.0025024414,-0.9758911,-0.046875,-1.390625,0.09375
107,0.099853516,0.0021362305,-0.9729614,0.109375,-1.578125,0.125
108,0.095947266,0.0006713867,-0.9734497,0.0,-1.5,0.203125
109,0.095214844,0.0028686523,-0.9714966,0.1875,-1.28125,0.171875
110,0.092041016,-0.0005493164,-0.9729614,0.203125,-1.09375,0.1875
111,0.10253906,-0.0012817383,-0.96832275,0.296875,-1.296875,0.34375
112,0.10205078,0.0045776367,-0.972229,0.203125,-1.375,0.171875
113,0.095458984,-0.0049438477,-0.9734497,0.109375,-1.25,0.1875
114,0.09472656,-6.1035156e-05,-0.9780884,0.15625,-1.1875,0.140625
115,0.099853516,-0.0029907227,-0.9734497,0.015625,-1.046875,0.3125
116,0.10107422,-0.006164551,-0.97198486,0.171875,-1.046875,-0.046875
117,0.099609375,-0.0044555664,-0.96588135,0.0625,-0.953125,0.265625
118,0.103271484,0.00018310547,-0.97369385,0.0,-0.890625,0.15625
119,0.09057617,-0.0022583008,-0.96832275,-0.09375,-0.625,0.203125
120,0.09082031,-0.0015258789,-0.972229,-0.09375,-0.390625,0.328125
121,0.09106445,0.0026245117,-0.97906494,-0.140625,-0.828125,0.25
122,0.103271484,-0.0056762695,-0.973938,-0.234375,-1.28125,0.21875
123,0.095947266,-0.00079345703,-0.97735596,-0.359375,-1.046875,0.1875
124,0.09082031,-6.1035156e-05,-0.9734497,-0.140625,-1.171875,0.140625
125,0.09838867,-0.0068969727,-0.97003174,-0.046875,-1.1875,0.296875
126,0.09814453,-0.008850098,-0.9680786,0.125,-1.140625,0.28125
127,0.09692383,0.00018310547,-0.9714966,0.203125,-1.53125,0.25
128,0.099365234,-0.003479004,-0.9751587,0.09375,-1.515625,0.203125
129,0.091796875,-0.0032348633,-0.97613525,0.21875,-1.359375,0.140625
130,0.095947266,-0.006164551,-0.97491455,0.453125,-1.21875,0.15625
131,0.09765625,-0.005432129,-0.9727173,0.28125,-1.46875,0.125
132,0.099609375,-0.0029907227,-0.97198486,0.203125,-1.4375,0.125
133,0.09326172,0.0033569336,-0.96759033,-0.0625,-1.28125,0.0625
134,0.092041016,-0.004699707,-0.9685669,0.046875,-1.140625,0.234375
135,0.10205078,0.0038452148,-0.9697876,0.140625,-0.875,0.09375
136,0.09643555,-0.010070801,-0.97052,0.09375,-0.875,0.171875
137,0.10424805,0.0004272461,-0.9710083,0.296875,-0.828125,0.234375
138,0.09863281,-0.0032348633,-0.97076416,0.203125,-0.6875,0.125
139,0.09448242,-0.0029907227,-0.973938,-0.046875,-0.5,0.171875
140,0.095214844,-0.0022583008,-0.973938,-0.109375,-0.765625,0.28125
141,0.0925293,-0.0049438477,-0.9734497,-0.03125,-0.8125,0.15625
142,0.09643555,-0.0056762695,-0.9763794,-0.125,-1.09375,0.0625
143,0.096191406,-0.0005493164,-0.9697876,-0.328125,-1.234375,0.171875
144,0.09350586,-0.0049438477,-0.97540283,-0.28125,-1.21875,0.203125
145,0.095947266,-0.0049438477,-0.97442627,-0.0625,-1.203125,0.15625
146,0.092041016,0.0014038086,-0.97857666,-0.015625,-1.4375,0.125
147,0.092041016,-0.0017700195,-0.97442627,0.0,-1.453125,0.15625
148,0.091796875,-0.0049438477,-0.9768677,-0.03125,-1.453125,0.28125
149,0.09716797,-0.00592041,-0.9644165,0.140625,-1.140625,0.1875
150,0.09741211,-6.1035156e-05,-0.972229,0.328125,-1.078125,0.21875
151,0.10620117,-0.009094238,-0.9729614,0.21875,-1.25,0.109375
152,0.09399414,-0.003479004,-0.9678345,0.09375,-1.34375,0.140625
153,0.09375,0.001159668,-0.9678345,0.125,-1.125,0.21875
154,0.099121094,-0.004699707,-0.9768677,0.234375,-0.96875,0.234375
155,0.09790039,0.0045776367,-0.9702759,0.15625,-0.9375,0.25
156,0.095214844,-0.0029907227,-0.97369385,0.15625,-0.875,0.28125
157,0.095947266,-0.00079345703,-0.9710083,0.03125,-0.671875,0.21875
158,0.09716797,0.00018310547,-0.9783325,-0.046875,-0.53125,0.265625
159,0.09667969,-0.0012817383,-0.9729614,0.234375,-0.34375,0.140625
160,0.09741211,-0.0022583008,-0.9717407,0.078125,-0.703125,0.03125
161,0.09643555,-0.003967285,-0.97491455,0.03125,-1.125,0.28125
162,0.09790039,-6.1035156e-05,-0.9729614,-0.109375,-1.34375,0.234375
163,0.09277344,-0.0020141602,-0.97125244,-0.046875,-1.5,0.28125
164,0.099609375,0.00018310547,-0.9710083,-0.1875,-1.71875,0.21875
165,0.09814453,0.0004272461,-0.97052,-0.21875,-1.640625,0.1875
166,0.1015625,-0.00030517578,-0.96881104,-0.03125,-1.1875,0.109375
167,0.095703125,0.00018310547,-0.96954346,0.28125,-1.125,0.3125
168,0.09838867,-0.0012817383,-0.9661255,0.28125,-0.9375,0.03125
169,0.095458984,-0.0025024414,-0.9717407,0.0625,-1.046875,0.1875
170,0.095458984,-0.004211426,-0.972229,0.125,-1.203125,0.203125
171,0.09667969,-0.0044555664,-0.972229,0.140625,-0.953125,0.140625
172,0.096191406,-0.0020141602,-0.97076416,0.234375,-1.078125,0.25
173,0.09716797,-0.0037231445,-0.9734497,-0.453125,-1.0,0.40625
174,0.1015625,0.0006713867,-0.97247314,-0.328125,-1.203125,0.109375
175,0.1003418,-0.0032348633,-0.97320557,-0.1875,-1.046875,0.171875
176,0.09375,-0.0095825195,-0.9702759,-0.015625,-1.046875,0.1875
177,0.09741211,-0.0071411133,-0.9714966,-0.09375,-1.21875,0.140625
178,0.09863281,-0.006164551,-0.9741821,0.0625,-1.15625,0.171875
179,0.10058594,-0.0071411133,-0.9746704,0.140625,-1.078125,0.21875
180,0.10473633,-0.0044555664,-0.9729614,0.28125,-1.21875,0.25
181,0.09667969,-0.0049438477,-0.9710083,0.140625,-1.234375,0.171875
182,0.09790039,-0.0032348633,-0.97125244,0.203125,-1.140625,0.15625
183,0.10083008,-0.003479004,-0.97247314,0.265625,-1.3125,0.234375
184,0.09423828,-0.003967285,-0.9734497,0.28125,-1.09375,0.25
185,0.09350586,-0.00079345703,-0.9729614,0.125,-1.015625,0.15625
186,0.0949707,-0.0010375977,-0.9771118,-0.3125,-1.046875,0.203125
187,0.091308594,-0.008605957,-0.97735596,-0.421875,-1.046875,0.1875
188,0.092285156,0.0021362305,-0.9685669,-0.125,-0.984375,0.328125
189,0.099609375,-0.00982666,-0.97540283,-0.078125,-0.859375,0.234375
190,0.09667969,-0.006652832,-0.97369385,0.046875,-0.875,0.1875
191,0.095947266,-0.00030517578,-0.97442627,0.03125,-1.0,0.078125
192,0.09863281,-0.004699707,-0.97076416,0.03125,-1.140625,0.25
193,0.091308594,-0.006164551,-0.97052,0.3125,-1.046875,0.203125
194,0.100097656,-0.009094238,-0.9729614,0.28125,-1.203125,0.21875
195,0.09887695,-0.006164551,-0.9668579,0.3125,-1.296875,0.0625
196,0.09008789,0.0004272461,-0.9746704,0.15625,-1.453125,0.25
197,0.10083008,-0.0032348633,-0.9697876,0.171875,-1.40625,0.140625
198,0.10620117,-0.0015258789,-0.97003174,0.203125,-1.390625,0.28125
199,0.09350586,-0.005432129,-0.9768677,0.09375,-1.09375,0.015625
200,0.10083008,-0.0056762695,-0.97320557,0.15625,-0.859375,0.203125
201,0.10473633,-0.002746582,-0.9741821,-0.078125,-0.796875,0.203125
202,0.0949707,-0.0064086914,-0.97613525,-0.28125,-1.015625,0.3125
203,0.08984375,-0.0051879883,-0.96954346,-0.328125,-1.125,0.28125
204,0.09765625,-0.007385254,-0.9702759,-0.3125,-0.90625,0.234375
205,0.095703125,-0.0068969727,-0.9702759,0.015625,-0.6875,0.09375
206,0.0949707,-0.0022583008,-0.97540283,0.09375,-0.859375,0.3125
207,0.091552734,-0.004699707,-0.9729614,-0.09375,-1.25,0.140625
208,0.09790039,-0.004211426,-0.973938,-0.0625,-1.359375,0.21875
209,0.0949707,-0.003967285,-0.9697876,0.0625,-1.328125,0.1875
210,0.09692383,-0.0115356445,-0.9758911,0.328125,-1.25,0.1875
211,0.099365234,0.00091552734,-0.972229,0.375,-1.1875,0.078125
212,0.09375,-0.003479004,-0.97491455,0.109375,-1.4375,0.046875
213,0.09790039,-0.0015258789,-0.97076416,0.203125,-1.296875,0.234375
214,0.09716797,-0.008361816,-0.97320557,0.40625,-1.171875,0.1875
215,0.099609375,-0.0012817383,-0.97369385,0.4375,-0.859375,0.078125
216,0.09326172,-0.0049438477,-0.97198486,0.21875,-1.046875,0.140625
217,0.103515625,-0.0044555664,-0.9788208,-0.046875,-0.921875,0.28125
218,0.092041016,0.0004272461,-0.9734497,-0.1875,-0.984375,0.28125
219,0.1003418,-0.0051879883,-0.9690552,-0.15625,-1.03125,0.203125
220,0.095703125,0.0006713867,-0.96954346,0.109375,-0.984375,0.203125
221,0.091552734,-0.0056762695,-0.97784424,0.234375,-0.828125,0.140625
222,0.09301758,-0.006652832,-0.975647,0.328125,-1.125,0.203125
223,0.09716797,0.005065918,-0.97320557,0.65625,-0.90625,0.1875
224,0.092285156,0.001159668,-0.97320557,0.859375,-1.234375,0.359375
225,0.095703125,0.0018920898,-0.9636841,1.265625,-1.0625,0.265625
226,0.095703125,0.0021362305,-0.97052,1.078125,-1.390625,0.234375
227,0.09667969,-0.0015258789,-0.97198486,0.8125,-1.421875,0.15625
228,0.099853516,0.0006713867,-0.97198486,0.484375,-1.6875,0.203125
229,0.099609375,0.0038452148,-0.96661377,0.84375,-1.390625,0.171875
230,0.091552734,0.0018920898,-0.96832275,0.4375,-1.34375,0.015625
231,0.09326172,0.0033569336,-0.9692993,0.265625,-1.078125,0.15625
232,0.09741211,0.007507324,-0.9702759,0.0,-1.171875,0.3125
233,0.09448242,0.008483887,-0.9702759,-0.125,-1.25,0.171875
234,0.09838867,0.0018920898,-0.9690552,-0.578125,-1.0,0.140625
235,0.1003418,0.00091552734,-0.96759033,-0.203125,-0.640625,0.046875
236,0.09790039,0.003112793,-0.97369385,-0.390625,-0.109375,0.015625
237,0.09082031,0.0014038086,-0.9771118,-0.46875,-0.28125,0.046875
238,0.095703125,0.0065307617,-0.9751587,-0.6875,-0.390625,0.046875
239,0.09814453,-0.0025024414,-0.97320557,-0.46875,-0.78125,0.15625
240,0.09301758,0.0028686523,-0.96881104,-0.09375,-1.03125,0.171875
241,0.09057617,0.0014038086,-0.9746704,0.296875,-0.921875,0.109375
242,0.09008789,0.0033569336,-0.97491455,0.046875,-1.03125,0.203125
243,0.095703125,0.00091552734,-0.97442627,-0.53125,-0.984375,0.125
244,0.088378906,0.0026245117,-0.9741821,0.6875,-0.8125,0.15625
245,0.08862305,-0.0025024414,-0.9763794,0.4375,-0.90625,0.15625
246,0.091308594,-0.0010375977,-0.97247314,0.15625,-1.21875,0.1875
247,0.0925293,-0.0015258789,-0.9727173,-0.015625,-1.15625,0.265625
248,0.09033203,-0.0017700195,-0.9717407,0.015625,-0.875,0.234375
249,0.08984375,0.00091552734,-0.97613525,0.328125,-0.859375,0.171875
250,0.092285156,0.0036010742,-0.9734497,-0.03125,-1.125,0.15625
251,0.09643555,0.001159668,-0.97125244,-0.109375,-0.984375,0.203125
252,0.08959961,0.001159668,-0.97052,0.015625,-0.84375,0.296875
253,0.087890625,0.0036010742,-0.975647,0.046875,-0.78125,0.0625
254,0.095214844,-0.0051879883,-0.9783325,0.03125,-0.875,0.25
255,0.091552734,0.00579834,-0.97491455,-0.0625,-1.0625,0.140625
256,0.087890625,-0.0010375977,-0.9702759,-0.15625,-0.890625,0.15625
257,0.088134766,-0.0051879883,-0.9702759,-0.171875,-0.703125,0.015625
258,0.087890625,0.0004272461,-0.9727173,-0.140625,-0.828125,0.046875
259,0.0859375,0.0014038086,-0.97320557,-0.25,-0.875,0.171875
260,0.08642578,-0.006164551,-0.97369385,-0.21875,-0.890625,0.03125
261,0.08886719,-0.0032348633,-0.97125244,-0.03125,-0.96875,0.15625
262,0.08911133,-0.006164551,-0.97442627,-0.09375,-1.421875,0.203125
263,0.08569336,-6.1035156e-05,-0.9685669,0.03125,-1.28125,0.265625
264,0.08642578,0.002380371,-0.9751587,0.390625,-1.125,0.0625
265,0.08911133,-0.0015258789,-0.975647,0.234375,-1.25,0.15625
266,0.08959961,-0.0037231445,-0.97125244,0.15625,-1.546875,0.265625
267,0.0847168,0.0026245117,-0.9710083,0.21875,-1.390625,0.1875
268,0.08691406,-0.0029907227,-0.9680786,0.046875,-1.28125,0.125
269,0.08544922,-0.004211426,-0.96759033,-0.046875,-1.046875,0.125
270,0.087890625,-6.1035156e-05,-0.9727173,-0.109375,-1.0625,0.21875
271,0.08886719,-0.007385254,-0.9690552,0.046875,-1.046875,0.1875
272,0.08569336,-0.00030517578,-0.96661377,0.28125,-0.921875,0.203125
273,0.0847168,0.002380371,-0.9656372,0.0625,-0.921875,0.109375
274,0.08862305,0.0040893555,-0.97662354,-0.21875,-0.8125,0.328125
275,0.08935547,0.00018310547,-0.96661377,-0.1875,-1.1875,0.375
276,0.087402344,-0.0049438477,-0.9651489,-0.0625,-0.875,0.1875
277,0.0859375,0.0028686523,-0.9758911,-0.078125,-0.9375,0.203125
278,0.08544922,0.0045776367,-0.9717407,-0.015625,-1.15625,0.25
279,0.087646484,-0.0010375977,-0.973938,-0.09375,-1.15625,0.390625
280,0.08911133,-0.0044555664,-0.97442627,-0.140625,-1.1875,0.203125
281,0.08251953,-0.0029907227,-0.97125244,-0.203125,-0.953125,0.25
282,0.08666992,0.0006713867,-0.97198486,0.046875,-1.296875,0.296875
283,0.08862305,0.0014038086,-0.972229,0.234375,-1.1875,0.328125
284,0.09008789,0.0014038086,-0.96881104,0.203125,-1.34375,0.125
285,0.0859375,0.0018920898,-0.96954346,0.203125,-1.3125,0.15625
286,0.09082031,-0.0005493164,-0.9729614,0.140625,-1.296875,0.109375
287,0.09082031,0.0016479492,-0.97613525,0.171875,-1.203125,0.140625
288,0.0859375,-0.0037231445,-0.97076416,0.109375,-1.046875,0.046875
289,0.095947266,-0.003967285,-0.97613525,0.171875,-1.015625,0.0
290,0.08959961,0.0006713867,-0.96954346,-0.015625,-1.015625,0.09375
291,0.09057617,-0.0025024414,-0.9717407,-0.078125,-0.828125,0.234375
292,0.09326172,0.00091552734,-0.97369385,-0.125,-1.015625,0.171875
293,0.0859375,0.0014038086,-0.96881104,0.0,-1.203125,0.21875
294,0.09008789,0.0016479492,-0.9793091,-0.125,-0.875,0.171875
295,0.08569336,-0.0022583008,-0.9751587,-0.09375,-0.765625,0.109375
296,0.08691406,0.0016479492,-0.97198486,-0.234375,-1.171875,0.171875
297,0.08886719,0.003112793,-0.97052,-0.171875,-1.21875,0.140625
298,0.0859375,-0.0071411133,-0.975647,0.015625,-1.265625,0.28125
299,0.0859375,-0.0056762695,-0.97076416,0.21875,-1.34375,0.09375
300,0.09106445,-0.0020141602,-0.96661377,0.390625,-1.34375,0.171875
301,0.08886719,-0.0012817383,-0.97662354,0.375,-1.34375,0.25
302,0.09350586,0.0040893555,-0.97442627,0.234375,-1.203125,0.234375
303,0.09375,-0.0017700195,-0.9763794,0.296875,-1.1875,0.25
304,0.09716797,-0.0020141602,-0.9714966,0.03125,-1.140625,0.203125
305,0.091308594,0.0028686523,-0.97320557,0.1875,-1.171875,0.21875
306,0.08642578,-0.0017700195,-0.9717407,-0.015625,-1.03125,0.09375
307,0.08862305,-0.004699707,-0.97247314,-0.09375,-1.109375,0.21875
308,0.087890625,0.005065918,-0.9692993,-0.125,-0.78125,0.171875
309,0.083984375,-0.002746582,-0.97320557,-0.296875,-0.53125,0.1875
310,0.0847168,-0.0025024414,-0.9780884,-0.21875,-0.328125,0.21875
311,0.091796875,0.0026245117,-0.9729614,-0.203125,-0.125,0.015625
312,0.084472656,0.00018310547,-0.9768677,-0.203125,0.296875,-0.015625
313,0.08227539,-0.002746582,-0.97613525,-0.3125,-1.4375,0.28125
314,0.08129883,0.0004272461,-0.97198486,-0.21875,-1.6875,0.21875
315,0.08178711,-0.0037231445,-0.975647,0.234375,-1.875,0.171875
316,0.08642578,-0.0071411133,-0.97784424,0.21875,-1.96875,0.203125
317,0.088134766,-0.0017700195,-0.972229,0.234375,-2.046875,0.3125
318,0.091308594,-0.0049438477,-0.96710205,0.0,-1.75,0.453125
319,0.08935547,0.0021362305,-0.97052,0.390625,-1.296875,0.28125
320,0.0859375,-0.0022583008,-0.97320557,0.203125,-1.296875,0.203125
321,0.09326172,0.00018310547,-0.97198486,0.171875,-1.15625,0.21875
322,0.08984375,-0.0017700195,-0.97442627,0.09375,-1.09375,0.140625
323,0.08959961,-0.0068969727,-0.97442627,0.015625,-1.0,0.09375
324,0.09082031,-0.0029907227,-0.97198486,0.03125,-0.875,0.1875
325,0.09082031,0.0021362305,-0.97076416,0.21875,-0.890625,0.265625
326,0.09277344,-0.002746582,-0.9727173,0.1875,-0.921875,0.1875
327,0.09448242,-0.0095825195,-0.9714966,0.0625,-0.9375,0.0625
328,0.08862305,-0.0010375977,-0.9697876,0.0,-0.75,0.1875
329,0.09106445,-6.1035156e-05,-0.97491455,-0.15625,-0.21875,0.1875
330,0.080566406,-0.0012817383,-0.9793091,0.0625,-0.4375,0.125
331,0.09057617,0.00091552734,-0.97784424,-0.078125,-0.921875,0.09375
332,0.08886719,-0.003479004,-0.9729614,-0.234375,-1.609375,0.125
333,0.08935547,-0.008361816,-0.9714966,-0.140625,-1.453125,0.140625
334,0.087402344,-0.0044555664,-0.9746704,-0.203125,-1.53125,0.25
335,0.08935547,-0.0032348633,-0.96661377,0.078125,-1.734375,0.203125
336,0.08886719,-0.0010375977,-0.973938,-0.140625,-1.515625,0.265625
337,0.08935547,-0.004699707,-0.97320557,-0.03125,-1.390625,0.328125
338,0.08959961,-0.003479004,-0.97540283,0.359375,-1.15625,0.234375
339,0.088378906,-0.0022583008,-0.97247314,0.125,-1.3125,0.09375
340,0.08691406,-0.003479004,-0.98443604,0.046875,-1.25,0.25
341,0.08984375,-0.0076293945,-0.97735596,0.109375,-1.125,0.265625
342,0.091796875,-0.009094238,-0.97125244,-0.015625,-0.84375,0.359375
343,0.09277344,-0.0076293945,-0.97320557,0.03125,-0.90625,0.109375
344,0.09277344,-0.006164551,-0.97662354,-0.0625,-1.015625,0.265625
345,0.09326172,-0.002746582,-0.97125244,0.0,-1.0,0.21875
346,0.08642578,-0.0020141602,-0.97662354,-0.0625,-0.9375,0.109375
347,0.095458984,-0.0022583008,-0.97052,0.0,-0.828125,0.265625
348,0.08935547,-0.0005493164,-0.97320557,0.046875,-0.578125,0.25
349,0.087402344,-0.0022583008,-0.9768677,-0.109375,-0.640625,0.25
350,0.087890625,-0.0012817383,-0.97052,-0.046875,-0.65625,0.03125
351,0.08666992,-0.008605957,-0.9734497,0.015625,-0.765625,0.078125
352,0.0859375,-0.0071411133,-0.9729614,0.0,-1.046875,0.15625
353,0.08227539,-0.00030517578,-0.97003174,0.0,-1.125,0.25
354,0.083984375,-0.0010375977,-0.9758911,0.25,-1.296875,0.21875
355,0.08935547,0.00018310547,-0.972229,0.15625,-1.359375,0.21875
356,0.09057617,-0.0017700195,-0.9690552,0.0625,-1.46875,0.296875
357,0.091308594,-0.0056762695,-0.97052,0.125,-1.421875,0.21875
358,0.087646484,-0.006164551,-0.9734497,0.15625,-1.328125,0.265625
359,0.08105469,-0.0071411133,-0.9776001,0.15625,-1.296875,0.328125
360,0.08984375,-0.0015258789,-0.96661377,0.15625,-1.265625,0.234375
361,0.088134766,0.0014038086,-0.9741821,-0.03125,-1.25,0.09375
362,0.08569336,-0.0037231445,-0.9697876,0.21875,-1.0625,0.171875
363,0.09472656,0.0006713867,-0.97540283,0.265625,-0.78125,0.046875
364,0.091796875,-0.0044555664,-0.9746704,0.25,-0.6875,0.21875
365,0.08691406,-0.0068969727,-0.9746704,0.125,-0.921875,0.0625
366,0.09057617,0.0006713867,-0.9771118,0.125,-0.859375,0.28125
367,0.08544922,-0.0015258789,-0.97003174,0.03125,-0.984375,0.15625
368,0.08642578,-0.003967285,-0.97857666,-0.15625,-1.078125,0.125
369,0.08959961,-0.0025024414,-0.97052,-0.4375,-1.09375,0.265625
370,0.09008789,-0.006164551,-0.9780884,-0.59375,-1.1875,-0.046875
371,0.09326172,-0.0010375977,-0.97784424,-0.21875,-1.125,-0.078125
372,0.0871582,-0.003479004,-0.9729614,0.109375,-1.125,0.15625
373,0.0859375,-0.0025024414,-0.9741821,-0.078125,-1.09375,0.015625
374,0.091552734,-0.0056762695,-0.9776001,-0.015625,-1.0625,0.1875
375,0.09106445,-0.0022583008,-0.97491455,0.03125,-1.03125,0.21875
376,0.08618164,-0.008850098,-0.9751587,0.03125,-1.046875,0.234375
377,0.091796875,-0.005432129,-0.97052,0.0,-1.453125,0.203125
378,0.087890625,-0.011779785,-0.97198486,0.015625,-1.390625,0.203125
379,0.0925293,-0.0037231445,-0.9702759,0.0625,-1.296875,0.265625
380,0.09301758,-0.0051879883,-0.97125244,0.03125,-1.515625,0.328125
381,0.095458984,-0.0056762695,-0.97662354,0.125,-1.40625,0.234375
382,0.091552734,-0.007873535,-0.9734497,0.109375,-1.21875,0.125
383,0.091552734,0.002380371,-0.975647,0.0,-1.03125,0.203125
384,0.080566406,-0.008850098,-0.9734497,0.1875,-1.109375,0.140625
385,0.09423828,-0.00592041,-0.97491455,0.0625,-0.984375,0.203125
386,0.09082031,-0.007873535,-0.9734497,0.0625,-0.875,0.125
387,0.09082031,-0.0095825195,-0.97369385,-0.015625,-0.71875,0.109375
388,0.087646484,-0.0071411133,-0.97735596,-0.28125,-0.4375,0.15625
389,0.08935547,-0.0068969727,-0.97540283,-0.15625,-0.421875,0.140625
390,0.087890625,-0.005432129,-0.97052,-0.03125,-0.53125,0.03125
391,0.08935547,-0.008117676,-0.9758911,-0.203125,-0.765625,0.15625
392,0.084228516,-0.006164551,-0.97442627,-0.03125,-1.3125,0.234375
393,0.088378906,-0.0029907227,-0.9746704,0.140625,-1.546875,0.296875
394,0.08666992,-0.0068969727,-0.97198486,0.046875,-1.890625,0.25
395,0.08911133,-0.003479004,-0.9649048,0.0625,-1.953125,0.359375
396,0.08886719,-0.0064086914,-0.9697876,0.03125,-1.625,0.234375
397,0.09399414,-0.010314941,-0.97125244,0.125,-1.296875,0.078125
398,0.09033203,-0.005432129,-0.9771118,0.4375,-1.09375,0.21875
399,0.0871582,-0.005432129,-0.9729614,0.4375,-1.203125,0.125
400,0.092041016,-0.007873535,-0.9727173,0.046875,-1.171875,0.171875
401,0.096191406,-0.0020141602,-0.9780884,0.109375,-1.296875,0.296875
402,0.09277344,0.001159668,-0.97491455,0.109375,-0.984375,0.140625
403,0.092285156,-0.002746582,-0.9702759,0.171875,-0.890625,0.28125
404,0.09667969,-0.006164551,-0.9702759,0.25,-0.890625,0.1875
405,0.09448242,0.001159668,-0.9661255,0.078125,-0.859375,0.109375
406,0.087890625,-0.0029907227,-0.9697876,-0.21875,-0.96875,0.0625
407,0.08666992,-0.008605957,-0.9771118,-0.15625,-0.71875,0.140625
408,0.08862305,-0.0029907227,-0.9710083,-0.078125,-0.546875,0.265625
409,0.087890625,-0.007385254,-0.973938,-0.234375,-0.53125,0.078125
410,0.0847168,-0.004699707,-0.9710083,-0.125,-0.859375,0.28125
411,0.088134766,-0.0017700195,-0.973938,-0.140625,-1.296875,0.265625
412,0.08666992,-0.0037231445,-0.97784424,-0.015625,-1.34375,0.21875
413,0.0859375,-0.00030517578,-0.9746704,0.1875,-1.40625,0.28125
414,0.08496094,-0.006164551,-0.972229,0.3125,-1.5,0.234375
415,0.09863281,-0.0015258789,-0.9771118,-0.03125,-1.671875,0.296875
416,0.09448242,-0.0071411133,-0.9763794,0.203125,-1.796875,0.171875
417,0.087890625,-0.006164551,-0.975647,0.28125,-1.296875,0.078125
418,0.0859375,-0.003967285,-0.97198486,0.234375,-1.09375,0.0625
419,0.09301758,-0.008117676,-0.97491455,0.140625,-1.125,0.078125
420,0.092041016,-0.00030517578,-0.9717407,0.0,-1.296875,0.140625
421,0.087646484,-0.008361816,-0.9714966,0.03125,-1.078125,0.21875
422,0.09301758,-0.00079345703,-0.96661377,0.171875,-1.0,0.171875
423,0.091796875,-0.007873535,-0.97076416,0.03125,-0.90625,0.0625
424,0.088378906,-0.0012817383,-0.97052,-0.03125,-0.84375,0.390625
425,0.092041016,-0.0044555664,-0.9746704,-0.21875,-0.578125,0.09375
426,0.091552734,-0.0037231445,-0.9685669,0.03125,-0.59375,0.265625
427,0.08642578,-0.0049438477,-0.9800415,-0.03125,-0.71875,0.140625
428,0.08959961,-0.0010375977,-0.9710083,0.03125,-1.09375,0.03125
429,0.088134766,-0.0044555664,-0.97076416,-0.109375,-1.28125,0.078125
430,0.08691406,-0.0076293945,-0.97906494,-0.015625,-1.625,0.296875
431,0.08178711,-0.009094238,-0.9668579,0.046875,-1.390625,0.453125
432,0.092285156,-0.006652832,-0.9741821,0.265625,-1.40625,0.234375
433,0.09448242,-0.00079345703,-0.97247314,0.140625,-1.375,0.125
434,0.09033203,-0.007873535,-0.97003174,0.15625,-1.1875,0.140625
435,0.095947266,-0.0051879883,-0.97491455,0.3125,-1.09375,-0.015625
436,0.0859375,-0.00592041,-0.9710083,0.203125,-1.015625,0.078125
437,0.08862305,-0.006652832,-0.972229,0.28125,-1.203125,0.171875
438,0.083496094,-0.0020141602,-0.97198486,0.078125,-1.0625,0.21875
439,0.08935547,-0.003967285,-0.9710083,0.171875,-0.90625,0.28125
440,0.091308594,-0.0017700195,-0.9680786,0.015625,-1.09375,0.203125
441,0.08886719,-0.003479004,-0.97320557,-0.109375,-0.984375,0.21875
442,0.09301758,-0.011779785,-0.97613525,-0.140625,-0.71875,0.25
443,0.091308594,-0.008605957,-0.9751587,-0.15625,-0.375,0.234375
444,0.09008789,-0.007385254,-0.9758911,0.078125,-0.71875,0.125
445,0.08618164,-0.00592041,-0.9771118,0.046875,-1.0,0.1875
446,0.0871582,-0.0134887695,-0.9741821,-0.03125,-1.28125,0.1875
447,0.088134766,-0.003967285,-0.973938,0.015625,-1.421875,0.171875
448,0.08886719,-0.0032348633,-0.9817505,-0.03125,-1.421875,0.125
449,0.083984375,-0.0025024414,-0.97320557,0.3125,-1.3125,0.1875
450,0.09106445,-0.00030517578,-0.9710083,0.234375,-1.171875,0.3125
451,0.08911133,-0.0029907227,-0.9714966,0.34375,-1.125,0.21875
452,0.08666992,-0.0051879883,-0.9793091,0.125,-1.21875,0.34375
453,0.087890625,-0.0044555664,-0.9771118,0.09375,-1.1875,0.375
454,0.09350586,-0.006652832,-0.97003174,0.09375,-1.09375,0.1875
455,0.08911133,-0.0044555664,-0.96759033,0.09375,-1.046875,0.09375
456,0.09326172,-0.0051879883,-0.9734497,-0.109375,-0.953125,0.1875
457,0.09277344,0.0040893555,-0.97735596,0.171875,-1.0625,0.15625
458,0.09057617,-0.00079345703,-0.9717407,0.0,-1.0,0.0625
459,0.088134766,-6.1035156e-05,-0.97052,-0.046875,-1.015625,0.15625
460,0.09277344,-0.0017700195,-0.973938,-0.203125,-0.859375,0.1875
461,0.08642578,-0.0068969727,-0.9741821,-0.171875,-0.734375,0.15625
462,0.08227539,0.0028686523,-0.9771118,0.015625,-0.796875,0.15625
463,0.083740234,-0.0044555664,-0.97906494,0.0625,-1.109375,0.234375
464,0.083984375,-0.004211426,-0.97735596,-0.109375,-1.296875,0.21875
465,0.095947266,-0.0015258789,-0.9741821,0.0,-1.375,0.109375
466,0.08496094,-0.0020141602,-0.9793091,0.078125,-1.59375,0.28125
467,0.08984375,-0.0017700195,-0.9741821,0.140625,-1.71875,0.28125
468,0.087402344,-0.002746582,-0.96759033,0.1875,-1.640625,0.421875
469,0.09399414,-0.017150879,-0.9734497,0.0,-1.34375,0.203125
470,0.09008789,-0.0064086914,-0.9661255,0.359375,-1.34375,0.109375
471,0.09350586,-0.0076293945,-0.97613525,0.15625,-1.3125,0.15625
472,0.09008789,-0.002746582,-0.9795532,0.0625,-1.25,0.1875
473,0.08935547,-0.0037231445,-0.97125244,0.015625,-1.125,0.125
474,0.0925293,-0.0017700195,-0.9702759,0.0625,-0.953125,0.265625
475,0.09106445,-0.0022583008,-0.9729614,0.140625,-0.828125,0.25
476,0.09716797,-0.006164551,-0.97613525,0.03125,-0.671875,0.1875
477,0.09277344,-0.0056762695,-0.9763794,-0.109375,-0.4375,0.21875
478,0.0871582,-0.008361816,-0.972229,-0.203125,-0.734375,0.203125
479,0.0847168,-0.007385254,-0.9780884,0.109375,-0.96875,0.15625
480,0.08935547,-0.0095825195,-0.97003174,-0.0625,-1.140625,0.125
481,0.08911133,-0.008605957,-0.9717407,-0.15625,-1.203125,0.28125
482,0.088378906,-0.00030517578,-0.9734497,0.0,-1.1875,0.140625
483,0.09082031,-0.0064086914,-0.9741821,0.109375,-1.375,0.25
484,0.09082031,-0.00982666,-0.97369385,0.03125,-1.46875,0.109375
485,0.088378906,-0.0068969727,-0.97662354,0.03125,-1.640625,0.265625
486,0.08959961,-0.003967285,-0.9741821,0.0,-1.453125,0.21875
487,0.09277344,-0.0049438477,-0.973938,0.046875,-1.28125,0.21875
488,0.08984375,-0.0064086914,-0.9680786,0.109375,-1.25,0.234375
489,0.09667969,-0.002746582,-0.972229,0.265625,-1.15625,0.078125
490,0.09375,-0.007385254,-0.9758911,0.03125,-1.078125,0.078125
491,0.09277344,-0.0049438477,-0.97125244,0.125,-1.109375,0.125
492,0.0949707,-0.0015258789,-0.9771118,0.109375,-1.078125,0.25
493,0.091552734,-0.0012817383,-0.96954346,0.109375,-0.828125,0.109375
494,0.091796875,-0.004699707,-0.97052,0.25,-0.890625,0.265625
495,0.09106445,-0.004211426,-0.97320557,0.0,-0.890625,0.140625
496,0.091552734,-0.005432129,-0.97076416,0.03125,-0.65625,0.0625
497,0.0847168,-0.0071411133,-0.9758911,-0.1875,-0.859375,0.171875
498,0.09472656,-0.005432129,-0.9758911,-0.03125,-0.765625,0.296875
499,0.08300781,-0.004699707,-0.9710083,-0.046875,-0.875,0.21875
500,0.087890625,-0.0071411133,-0.9734497,-0.0625,-0.984375,0.125
501,0.088134766,-0.008361816,-0.97662354,-0.03125,-1.265625,0.125
502,0.087646484,-0.005432129,-0.97198486,0.15625,-1.21875,0.1875
503,0.08862305,-0.006164551,-0.97320557,0.109375,-1.453125,0.25
504,0.092285156,-0.0032348633,-0.96881104,0.0,-1.765625,0.09375
505,0.08886719,-0.008850098,-0.9780884,0.125,-1.515625,0.140625
506,0.08935547,-0.0056762695,-0.9680786,0.078125,-1.28125,0.1875
507,0.08984375,-0.00079345703,-0.9668579,0.171875,-1.25,0.15625
508,0.09887695,-0.007385254,-0.97198486,0.0,-1.265625,0.109375
509,0.08886719,-0.006164551,-0.9783325,0.0625,-1.234375,0.203125
510,0.0949707,-0.0037231445,-0.9729614,0.109375,-1.203125,0.15625
511,0.09106445,-0.0068969727,-0.9697876,0.078125,-0.875,0.15625
512,0.091552734,-0.0017700195,-0.9741821,0.15625,-0.765625,0.1875
513,0.09301758,-0.008850098,-0.9710083,-0.0625,-0.53125,0.21875
514,0.092285156,-0.003479004,-0.9741821,-0.265625,-0.265625,0.15625
515,0.0847168,-0.0037231445,-0.9763794,-0.046875,-0.515625,0.078125
516,0.08691406,-0.003479004,-0.9729614,0.0625,-0.796875,0.109375
517,0.087402344,-0.009094238,-0.9763794,-0.09375,-0.96875,0.15625
518,0.08959961,-0.0076293945,-0.97125244,-0.109375,-1.328125,0.25
519,0.0847168,-0.0025024414,-0.973938,-0.015625,-1.6875,0.265625
520,0.08935547,-0.0015258789,-0.9710083,0.171875,-1.484375,0.21875
521,0.09277344,0.0004272461,-0.975647,-0.03125,-1.515625,0.203125
522,0.09301758,-0.009338379,-0.98028564,-0.078125,-1.5,0.125
523,0.08886719,-0.0025024414,-0.9727173,0.109375,-1.421875,0.078125
524,0.09008789,-0.0051879883,-0.9729614,0.0625,-1.296875,0.203125
525,0.08862305,-0.009094238,-0.9710083,0.203125,-1.265625,0.234375
526,0.09106445,-0.011047363,-0.973938,0.171875,-1.078125,0.09375
527,0.09106445,-0.0032348633,-0.97247314,0.140625,-1.140625,0.1875
528,0.09106445,-0.0049438477,-0.97247314,0.046875,-0.71875,0.1875
529,0.091552734,-0.0049438477,-0.9751587,-0.078125,-0.5625,0.171875
530,0.08886719,-0.0032348633,-0.9758911,0.09375,-0.46875,0.109375
531,0.09082031,-0.00592041,-0.96832275,-0.109375,-0.484375,0.109375
532,0.09008789,-0.006164551,-0.96881104,-0.03125,-0.78125,0.140625
533,0.08618164,-0.009338379,-0.96759033,0.109375,-1.140625,0.203125
534,0.08911133,-0.007873535,-0.97125244,0.03125,-1.359375,0.21875
535,0.087646484,-0.005432129,-0.9714966,0.0625,-1.640625,0.109375
536,0.087890625,-0.0037231445,-0.9702759,0.015625,-1.390625,0.234375
537,0.0949707,-0.0095825195,-0.97735596,0.0625,-1.484375,0.296875
538,0.09423828,-0.006652832,-0.96954346,-0.015625,-1.453125,0.21875
539,0.09667969,-0.003479004,-0.9729614,-0.109375,-1.328125,0.28125
540,0.09057617,-0.008605957,-0.9800415,0.09375,-1.46875,0.203125
541,0.09375,-0.0051879883,-0.975647,0.0,-1.328125,0.21875
542,0.09423828,-0.008361816,-0.97540283,0.046875,-1.0625,0.125
543,0.09423828,-0.0049438477,-0.96832275,0.015625,-0.828125,0.109375
544,0.09301758,-0.010559082,-0.9685669,0.203125,-0.890625,0.3125
545,0.0949707,-0.011291504,-0.97662354,-0.078125,-0.5625,0.21875
546,0.09399414,-0.008117676,-0.9649048,-0.046875,-0.640625,0.1875
547,0.08911133,-0.01373291,-0.97857666,-0.03125,-0.5625,0.140625
548,0.0847168,-0.009094238,-0.9727173,0.09375,-0.78125,0.15625
549,0.091796875,-0.008605957,-0.972229,0.03125,-0.9375,0.1875
550,0.0949707,-0.003479004,-0.9710083,0.0,-1.203125,0.1875
551,0.09082031,-0.009338379,-0.97540283,0.078125,-1.484375,0.21875
552,0.09350586,-0.008605957,-0.9758911,0.03125,-1.5,0.25
553,0.09301758,-0.0076293945,-0.97125244,0.015625,-1.578125,0.3125
554,0.09033203,-0.006652832,-0.9771118,0.078125,-1.4375,0.125
555,0.092285156,-0.0029907227,-0.96954346,0.015625,-1.34375,0.234375
556,0.099609375,-0.0064086914,-0.97491455,0.0,-1.390625,0.203125
557,0.09033203,-0.012023926,-0.9710083,0.015625,-1.296875,0.21875
558,0.08959961,-0.008117676,-0.97247314,0.0,-1.09375,0.140625
559,0.08959961,-0.0044555664,-0.9741821,0.140625,-0.96875,0.296875
560,0.08984375,-0.010314941,-0.96832275,0.0,-0.828125,0.125
561,0.08935547,-0.008361816,-0.9734497,-0.078125,-0.640625,0.125
562,0.092041016,-0.009338379,-0.9697876,-0.015625,-0.640625,0.109375
563,0.088378906,-0.0115356445,-0.97857666,-0.109375,-0.46875,0.234375
564,0.09643555,-0.0134887695,-0.9800415,-0.046875,-0.703125,0.171875
565,0.09814453,-0.0037231445,-0.9727173,0.078125,-0.96875,0.125
566,0.09277344,-0.008605957,-0.9768677,-0.0625,-0.9375,0.078125
567,0.08984375,-0.007873535,-0.9746704,0.125,-1.265625,0.328125
568,0.091552734,-0.004211426,-0.9734497,0.15625,-1.4375,0.234375
569,0.08325195,-0.0064086914,-0.97540283,0.15625,-1.703125,0.390625
570,0.09350586,-0.0068969727,-0.9734497,0.078125,-1.71875,0.234375
571,0.09057617,-0.005432129,-0.973938,0.015625,-1.609375,0.265625
572,0.08959961,-0.0056762695,-0.97320557,-0.046875,-1.53125,0.296875
573,0.09008789,-0.0076293945,-0.96954346,0.015625,-1.234375,0.171875
574,0.09375,-0.004211426,-0.97857666,0.09375,-1.3125,0.171875
575,0.10058594,-0.0037231445,-0.97442627,0.140625,-0.921875,0.203125
576,0.09008789,-0.008605957,-0.97076416,0.09375,-1.015625,0.265625
577,0.08862305,-0.0071411133,-0.9727173,-0.28125,-0.5,0.21875
578,0.08959961,-0.0015258789,-0.973938,-0.015625,-0.53125,0.171875
579,0.09033203,-0.0017700195,-0.9746704,-0.140625,-0.5625,0.078125
580,0.09057617,-0.010559082,-0.9776001,0.015625,-0.625,0.046875
581,0.09350586,-0.007385254,-0.9702759,-0.03125,-0.65625,0.03125
582,0.09375,-0.009338379,-0.97540283,0.0,-1.15625,0.15625
583,0.087646484,-0.010314941,-0.97076416,0.21875,-1.609375,0.140625
584,0.08544922,-0.0020141602,-0.97247314,0.109375,-1.8125,0.359375
585,0.09326172,-0.010070801,-0.9714966,-0.03125,-1.609375,0.265625
586,0.091308594,-0.014465332,-0.973938,0.203125,-1.609375,0.265625
587,0.09448242,-0.005432129,-0.9717407,0.140625,-1.625,0.046875
588,0.091308594,-0.0051879883,-0.97613525,-0.015625,-1.265625,0.203125
589,0.09399414,0.00018310547,-0.97052,0.046875,-1.203125,0.171875
590,0.09472656,-0.0029907227,-0.97613525,0.109375,-1.078125,0.203125
591,0.095947266,-0.014953613,-0.97052,0.1875,-0.84375,0.265625
592,0.095458984,-0.0051879883,-0.97076416,0.203125,-0.71875,0.015625
593,0.0949707,-0.004211426,-0.9729614,0.046875,-0.484375,0.15625
594,0.08911133,-0.008361816,-0.9702759,-0.15625,-0.390625,0.265625
595,0.09277344,-0.006164551,-0.97198486,-0.109375,-0.65625,0.0625
596,0.091552734,-0.010559082,-0.96954346,-0.203125,-0.78125,0.15625
597,0.08911133,-0.010803223,-0.9729614,0.125,-0.96875,0.109375
598,0.08544922,-0.00079345703,-0.9746704,-0.0625,-1.125,0.0625
599,0.08959961,-0.004211426,-0.97198486,0.71875,-0.828125,-0.015625
600,0.08569336,-0.003479004,-0.97369385,1.03125,-1.125,0.109375
601,0.0925293,-0.0029907227,-0.972229,1.296875,-1.140625,0.328125
602,0.08862305,-0.0076293945,-0.97003174,0.609375,-1.65625,0.203125
603,0.09106445,-0.0044555664,-0.9727173,0.34375,-1.796875,0.171875
604,0.091308594,-0.002746582,-0.9734497,0.296875,-1.640625,0.203125
605,0.09106445,-0.0029907227,-0.97320557,0.34375,-1.1875,0.15625
606,0.08935547,-0.003479004,-0.9673462,0.734375,-0.796875,0.109375
607,0.08691406,0.00018310547,-0.9734497,0.40625,-0.6875,0.078125
608,0.0949707,-0.0015258789,-0.97442627,0.453125,-0.96875,0.078125
609,0.08935547,0.0026245117,-0.97442627,0.0,-0.703125,0.203125
610,0.0871582,0.00018310547,-0.97198486,0.015625,-0.421875,0.265625
611,0.091552734,-0.003967285,-0.975647,-0.21875,-0.046875,0.09375
612,0.08178711,0.00018310547,-0.97784424,-0.15625,-0.4375,0.015625
613,0.08911133,-0.0044555664,-0.97540283,-0.34375,-0.6875,0.125
614,0.07910156,0.0045776367,-0.9710083,-0.21875,-1.046875,0.1875
615,0.091796875,-0.008850098,-0.9729614,-0.03125,-1.828125,0.25
616,0.084228516,0.004333496,-0.97320557,0.59375,-1.09375,0.34375
617,0.088378906,-0.0020141602,-0.9771118,0.59375,-1.078125,0.234375
618,0.08129883,0.0014038086,-0.9758911,0.546875,-1.1875,0.28125
619,0.09106445,0.0036010742,-0.9680786,0.328125,-0.9375,0.203125
620,0.09277344,0.003112793,-0.9751587,0.09375,-0.859375,0.125
621,0.08666992,-0.0015258789,-0.9734497,0.03125,-0.84375,-0.140625
622,0.084228516,0.0006713867,-0.975647,-0.109375,-0.78125,0.078125
623,0.08154297,-0.0044555664,-0.973938,0.171875,-1.0,0.140625
624,0.088378906,0.001159668,-0.98101807,0.046875,-0.984375,0.203125
625,0.08251953,0.0038452148,-0.9729614,-0.140625,-1.125,0.328125
626,0.0859375,0.0040893555,-0.9771118,-0.28125,-0.765625,0.21875
627,0.08251953,-0.00079345703,-0.97613525,-0.328125,-0.796875,0.28125
628,0.088134766,0.002380371,-0.97540283,-0.15625,-1.03125,0.015625
629,0.08691406,-0.0017700195,-0.9741821,-0.109375,-1.15625,0.0
630,0.08081055,-0.007873535,-0.9788208,-0.078125,-1.40625,0.328125
631,0.07910156,-0.007873535,-0.9812622,-0.015625,-1.4375,0.078125
632,0.08496094,-0.0015258789,-0.9697876,-0.09375,-1.5,0.21875
633,0.087402344,-0.00030517578,-0.9697876,0.109375,-1.21875,0.078125
634,0.083984375,-0.0012817383,-0.97320557,0.1875,-1.203125,0.21875
635,0.087402344,-0.0076293945,-0.9697876,-0.03125,-1.375,0.21875
636,0.092041016,-0.003479004,-0.97540283,0.03125,-1.515625,0.171875
637,0.08325195,-0.0022583008,-0.972229,0.078125,-1.28125,0.15625
638,0.08691406,-0.0022583008,-0.9663696,0.09375,-1.0,0.140625
639,0.08300781,-0.004211426,-0.9663696,0.125,-0.609375,0.0625
640,0.08496094,-0.004699707,-0.9776001,-0.046875,-0.75,0.109375
641,0.08618164,0.00018310547,-0.97369385,0.09375,-0.84375,0.140625
642,0.08862305,-0.0012817383,-0.97247314,0.125,-1.0,0.234375
643,0.08569336,0.004333496,-0.9751587,0.15625,-0.96875,0.25
644,0.0847168,-6.1035156e-05,-0.9776001,-0.078125,-0.90625,0.1875
645,0.08105469,-0.0020141602,-0.9783325,0.015625,-0.390625,0.0625
646,0.080078125,0.0006713867,-0.9729614,0.0625,-0.171875,0.15625
647,0.08276367,0.0006713867,-0.97979736,0.015625,-0.765625,0.21875
648,0.08227539,-0.0017700195,-0.98687744,-0.046875,-0.9375,-0.015625
649,0.07885742,0.0033569336,-0.97247314,-0.1875,-1.4375,0.296875
650,0.084228516,0.0038452148,-0.97076416,0.15625,-1.578125,0.171875
651,0.079589844,0.001159668,-0.9805298,0.109375,-1.8125,0.15625
652,0.08935547,-0.0029907227,-0.97003174,0.140625,-1.84375,0.203125
653,0.08520508,-0.0037231445,-0.9714966,0.171875,-1.578125,0.21875
654,0.083984375,0.0014038086,-0.97247314,0.078125,-1.234375,0.234375
655,0.08618164,0.00091552734,-0.9690552,0.109375,-0.984375,0.171875
656,0.083740234,-0.0012817383,-0.9727173,0.171875,-1.015625,-0.03125
657,0.08129883,0.0033569336,-0.97320557,0.125,-1.03125,0.015625
658,0.07446289,-0.0044555664,-0.97003174,0.125,-1.109375,0.1875
659,0.08325195,0.001159668,-0.97125244,0.171875,-1.0,0.1875
660,0.091308594,-0.0020141602,-0.9746704,0.03125,-1.015625,0.1875
661,0.08642578,-0.0005493164,-0.9771118,0.0625,-0.890625,0.171875
662,0.08618164,0.0004272461,-0.96881104,0.0625,-0.75,0.109375
663,0.08251953,-0.003479004,-0.9714966,0.0,-0.859375,-0.015625
664,0.084228516,-0.0025024414,-0.97613525,-0.234375,-1.109375,0.265625
665,0.087646484,0.0028686523,-0.9710083,-0.015625,-1.4375,0.1875
666,0.08251953,-0.00079345703,-0.97491455,-0.140625,-1.1875,0.234375
667,0.083984375,-0.0020141602,-0.9751587,0.015625,-0.96875,0.015625
668,0.08276367,-0.003967285,-0.97857666,-0.046875,-1.328125,0.28125
669,0.08496094,-0.0051879883,-0.97198486,0.171875,-1.34375,0.15625
670,0.08618164,-0.0022583008,-0.9663696,0.125,-1.3125,0.171875
671,0.087402344,-0.00079345703,-0.9763794,0.0,-1.15625,0.125
672,0.08642578,-0.003479004,-0.9788208,0.28125,-1.125,0.0625
673,0.083496094,-0.0037231445,-0.975647,0.21875,-1.25,0.125
674,0.0871582,0.0028686523,-0.9758911,0.046875,-1.296875,0.21875
675,0.08911133,-0.0049438477,-0.9678345,0.078125,-1.109375,0.15625
676,0.08203125,-0.0010375977,-0.97662354,0.078125,-1.234375,0.359375
677,0.08959961,-0.00030517578,-0.972229,0.140625,-1.109375,0.296875
678,0.08642578,0.0014038086,-0.96954346,0.046875,-0.921875,0.34375
679,0.08276367,-0.004211426,-0.9710083,0.234375,-0.9375,0.015625
680,0.08251953,-0.0012817383,-0.97369385,0.109375,-0.90625,0.1875
681,0.0847168,-0.0044555664,-0.98150635,0.0625,-0.828125,0.15625
682,0.08276367,0.0016479492,-0.97735596,-0.234375,-0.921875,0.390625
683,0.08251953,0.0016479492,-0.973938,-0.1875,-1.15625,0.125
684,0.08081055,0.0004272461,-0.97613525,-0.078125,-1.171875,0.375
685,0.092041016,0.0053100586,-0.97442627,-0.015625,-1.34375,0.234375
686,0.08105469,-0.0068969727,-0.96759033,-0.125,-1.25,0.15625
687,0.088134766,-0.0051879883,-0.97442627,-0.140625,-1.375,0.15625
688,0.08129883,-0.0005493164,-0.9741821,-0.03125,-1.21875,0.140625
689,0.08959961,-0.004699707,-0.9702759,0.296875,-1.15625,0.203125
690,0.08251953,-0.00079345703,-0.97491455,0.234375,-1.046875,0.078125
691,0.08569336,0.002380371,-0.97735596,0.328125,-1.234375,0.203125
692,0.08569336,0.0021362305,-0.9741821,0.109375,-1.09375,0.28125
693,0.08569336,-6.1035156e-05,-0.9741821,-0.015625,-1.09375,0.109375
694,0.08129883,-0.0020141602,-0.97540283,0.0,-1.03125,0.1875
695,0.083740234,-0.00079345703,-0.9710083,0.0625,-1.03125,0.109375
696,0.08227539,0.0018920898,-0.97198486,0.03125,-0.96875,0.234375
697,0.084228516,-0.003479004,-0.97198486,0.125,-0.9375,0.15625
698,0.08203125,-0.003967285,-0.9710083,-0.078125,-0.96875,0.265625
699,0.0847168,-0.0020141602,-0.97125244,-0.046875,-1.078125,0.15625
700,0.08618164,0.0045776367,-0.9727173,-0.078125,-0.796875,0.03125
701,0.08569336,-0.004211426,-0.9717407,-0.015625,-0.84375,0.078125
702,0.084472656,0.0006713867,-0.97320557,0.0625,-1.078125,0.25
703,0.087890625,0.0004272461,-0.9758911,0.078125,-1.203125,0.296875
704,0.0793457,-0.0029907227,-0.97613525,0.1875,-1.171875,0.140625
705,0.083496094,0.0016479492,-0.96832275,0.15625,-1.15625,0.234375
706,0.084228516,-0.0020141602,-0.97369385,0.15625,-1.171875,0.09375
707,0.083496094,0.006286621,-0.97003174,0.140625,-1.078125,0.265625
708,0.087646484,0.00018310547,-0.97613525,0.015625,-1.359375,0.125
709,0.08325195,0.003112793,-0.97784424,0.140625,-1.359375,0.046875
710,0.08666992,0.0018920898,-0.9710083,0.03125,-1.203125,0.34375
711,0.083984375,-0.0037231445,-0.9776001,0.109375,-0.96875,0.171875
712,0.08178711,0.0016479492,-0.97320557,-0.09375,-1.046875,0.140625
713,0.09277344,-0.0029907227,-0.97442627,0.0625,-0.90625,0.0625
714,0.08496094,-0.004211426,-0.9727173,-0.046875,-0.921875,0.1875
715,0.08666992,0.0026245117,-0.972229,-0.03125,-1.0,0.234375
716,0.08276367,-0.006164551,-0.9685669,-0.09375,-0.921875,0.046875
717,0.08520508,-0.0017700195,-0.97491455,-0.015625,-0.328125,0.21875
718,0.083496094,-0.0049438477,-0.97784424,-0.046875,-0.359375,0.0625
719,0.08544922,-0.0064086914,-0.97052,-0.109375,-0.953125,0.078125
720,0.080566406,-0.0056762695,-0.97857666,0.015625,-1.34375,0.25
721,0.07861328,-0.0051879883,-0.9702759,0.21875,-1.421875,0.234375
722,0.08276367,-0.00592041,-0.9800415,0.140625,-1.78125,0.296875
723,0.083984375,-0.004211426,-0.97369385,0.140625,-1.875,0.1875
724,0.08300781,-0.0017700195,-0.97540283,0.078125,-1.53125,0.359375
725,0.083984375,-0.0022583008,-0.9727173,0.171875,-1.203125,0.21875
726,0.083984375,0.0004272461,-0.9763794,0.0625,-1.234375,0.234375
727,0.079833984,0.004333496,-0.9746704,-0.015625,-1.4375,-0.0625
728,0.07910156,-0.003967285,-0.97125244,0.109375,-1.359375,0.296875
729,0.08251953,-0.0010375977,-0.97076416,0.0625,-1.0,0.046875
730,0.08251953,-0.004699707,-0.9702759,0.078125,-1.015625,0.109375
731,0.08251953,0.0014038086,-0.9697876,0.109375,-0.90625,0.21875
732,0.08203125,-0.004699707,-0.97247314,0.0,-0.875,0.296875
733,0.08935547,-0.0020141602,-0.9741821,-0.234375,-0.71875,0.140625
734,0.08959961,0.0048217773,-0.9661255,-0.078125,-0.421875,0.140625
735,0.08129883,-0.0044555664,-0.97491455,0.046875,-0.71875,0.171875
736,0.08154297,-0.0032348633,-0.973938,-0.015625,-0.78125,0.09375
737,0.079589844,0.0006713867,-0.96954346,-0.28125,-1.0,0.09375
738,0.08129883,0.00091552734,-0.97320557,-0.03125,-1.0625,0.15625
739,0.083496094,0.0018920898,-0.97125244,0.1875,-1.125,0.015625
740,0.080566406,-0.0049438477,-0.97540283,0.0625,-1.46875,0.359375
741,0.08666992,-0.0044555664,-0.97369385,0.171875,-1.453125,0.171875
742,0.07885742,0.004333496,-0.9771118,0.09375,-1.703125,0.34375
743,0.07910156,0.0018920898,-0.97198486,0.15625,-1.59375,0.34375
744,0.08300781,0.0006713867,-0.9714966,0.0625,-1.4375,0.296875
745,0.08203125,0.001159668,-0.97369385,0.046875,-1.265625,0.34375
746,0.08496094,-0.003479004,-0.9780884,0.234375,-1.171875,0.109375
747,0.09033203,-0.003479004,-0.9692993,-0.03125,-1.03125,0.109375
748,0.08203125,-0.0095825195,-0.9758911,0.015625,-1.046875,0.140625
749,0.0847168,0.001159668,-0.9729614,0.171875,-1.015625,0.25
750,0.08105469,-0.0068969727,-0.97784424,-0.046875,-0.65625,0.0625
751,0.0847168,-0.0064086914,-0.98028564,0.046875,-0.25,0.140625
752,0.084472656,-0.0010375977,-0.97125244,0.046875,-0.625,0.015625
753,0.08569336,-0.00079345703,-0.9714966,-0.046875,-0.6875,0.03125
754,0.08178711,-0.0020141602,-0.97662354,-0.1875,-0.8125,0.171875
755,0.080566406,-0.0020141602,-0.9685669,-0.0625,-1.03125,0.046875
756,0.084228516,-0.004211426,-0.97442627,0.03125,-1.234375,0.140625
757,0.08666992,-0.006652832,-0.9734497,0.140625,-1.5,0.15625
758,0.083984375,0.0021362305,-0.97247314,0.125,-1.703125,0.171875
759,0.08129883,0.002380371,-0.97076416,0.15625,-1.765625,0.328125
