sample_no,accel_x,accel_y,accel_z,gyro_x,gyro_y,gyro_z
0,0.11621094,-0.0051879883,-0.95196533,-2.453125,-0.5,-0.59375
1,0.1159668,-0.013244629,-0.9451294,-0.984375,0.4375,-0.609375
2,0.11767578,-0.012268066,-0.94488525,2.390625,2.703125,-0.515625
3,0.11694336,-0.0064086914,-0.94366455,5.265625,4.453125,-0.578125
4,0.111816406,0.0004272461,-0.9378052,6.65625,5.546875,-0.5
5,0.1081543,0.0138549805,-0.97491455,5.0625,5.953125,-0.640625
6,0.100097656,0.018493652,-0.96099854,3.3125,5.03125,-0.703125
7,0.09887695,0.024597168,-0.95977783,2.015625,4.09375,-0.6875
8,0.09057617,0.025817871,-0.9529419,1.234375,3.140625,-0.65625
9,0.09301758,0.026062012,-0.9553833,1.546875,2.859375,-0.640625
10,0.09008789,0.027770996,-0.9573364,1.375,2.53125,-0.65625
11,0.08691406,0.023376465,-0.9649048,0.140625,2.265625,-0.65625
12,0.08618164,0.027526855,-0.9685669,-1.75,1.328125,-0.875
13,0.09008789,0.0289917,-0.94537354,-2.5625,0.640625,-0.5625
14,0.084228516,0.018005371,-0.9636841,-3.546875,0.28125,-0.5625
15,0.09643555,0.018493652,-0.95977783,-3.421875,-0.96875,-0.515625
16,0.09399414,0.010925293,-0.9492798,-2.671875,-0.546875,-0.515625
17,0.103027344,0.014099121,-0.9483032,-2.859375,-0.171875,-0.71875
18,0.10595703,0.0099487305,-0.9487915,-2.359375,-0.46875,-0.546875
19,0.10620117,-6.1035156e-05,-0.9578247,-2.25,-0.1875,-0.578125
20,0.1159668,-0.004211426,-0.9475708,-1.96875,0.15625,-0.546875
21,0.111816406,0.0018920898,-0.9446411,-0.28125,1.203125,-0.65625
22,0.11328125,-0.0012817383,-0.94903564,2.296875,3.203125,-0.59375
23,0.10253906,0.00018310547,-0.95025635,4.546875,4.171875,-0.46875
24,0.1027832,0.0138549805,-0.9495239,5.28125,4.640625,-0.421875
25,0.09887695,0.01361084,-0.956604,4.21875,5.1875,-0.640625
26,0.0949707,0.027770996,-0.96221924,2.71875,4.0,-0.5625
27,0.095214844,0.02947998,-0.96221924,1.375,2.6875,-0.734375
28,0.092041016,0.023132324,-0.9541626,1.21875,2.015625,-0.5625
29,0.08935547,0.020446777,-0.9512329,1.640625,1.796875,-0.515625
30,0.0871582,0.024108887,-0.96295166,1.03125,2.0625,-0.609375
31,0.09472656,0.021911621,-0.9649048,-0.125,2.296875,-0.578125
32,0.09106445,0.019714355,-0.97491455,-2.78125,1.328125,-0.71875
33,0.09350586,0.024597168,-0.9614868,-4.875,0.046875,-0.625
34,0.0949707,0.020446777,-0.95147705,-4.453125,-1.453125,-0.71875
35,0.09863281,0.022644043,-0.95098877,-4.40625,-1.96875,-0.5
36,0.10205078,0.0018920898,-0.9468384,-3.25,-1.65625,-0.5625
37,0.10107422,0.0040893555,-0.94610596,-3.65625,-1.53125,-0.53125
38,0.111083984,-0.0044555664,-0.9522095,-3.546875,-1.6875,-0.640625
39,0.11767578,-0.008361816,-0.94903564,-2.875,-1.390625,-0.625
40,0.11816406,-0.009338379,-0.94610596,-2.28125,-0.578125,-0.421875
41,0.11987305,-0.014465332,-0.94317627,-1.328125,0.28125,-0.46875
42,0.125,-0.011047363,-0.94415283,0.0625,1.296875,-0.578125
43,0.119628906,-0.008605957,-0.94317627,3.015625,3.15625,-0.453125
44,0.11669922,-0.010070801,-0.94610596,4.53125,4.859375,-0.4375
45,0.1184082,-0.007385254,-0.940979,5.9375,6.40625,-0.4375
46,0.10424805,0.009216309,-0.9595337,5.171875,7.046875,-0.515625
47,0.09643555,0.012145996,-0.96173096,3.203125,5.375,-0.75
48,0.096191406,0.016540527,-0.9631958,1.15625,3.015625,-0.609375
49,0.099609375,0.015563965,-0.94854736,0.703125,2.171875,-0.59375
50,0.09692383,0.020690918,-0.95269775,1.5,2.53125,-0.53125
51,0.09375,0.0211792,-0.9541626,1.03125,2.34375,-0.578125
52,0.0925293,0.019714355,-0.96539307,-0.640625,2.03125,-0.671875
53,0.09692383,0.019470215,-0.9685669,-2.609375,0.796875,-0.765625
54,0.091796875,0.01776123,-0.9619751,-3.6875,-0.640625,-0.71875
55,0.10083008,0.01361084,-0.9507446,-3.25,-0.5,-0.53125
56,0.10180664,0.004333496,-0.9468384,-2.859375,-0.234375,-0.5625
57,0.1015625,0.0026245117,-0.9561157,-2.65625,-0.234375,-0.484375
58,0.11206055,-0.0015258789,-0.9536743,-2.84375,-0.84375,-0.640625
59,0.111083984,-0.010803223,-0.9468384,-2.515625,-0.625,-0.5625
60,0.11035156,-0.01373291,-0.94903564,-1.828125,-0.40625,-0.5625
61,0.122558594,-0.005432129,-0.9558716,-1.96875,-0.359375,-0.515625
62,0.11767578,-0.010803223,-0.94659424,-0.9375,0.296875,-0.625
63,0.12182617,-0.0095825195,-0.94366455,0.515625,1.515625,-0.46875
64,0.122558594,-0.008605957,-0.9402466,2.65625,3.546875,-0.546875
65,0.114746094,-0.0029907227,-0.93927,4.40625,4.75,-0.5
66,0.10839844,0.005065918,-0.9534302,5.140625,5.46875,-0.53125
67,0.103759766,0.012390137,-0.9558716,3.890625,4.96875,-0.609375
68,0.10083008,0.008239746,-0.9553833,1.734375,3.234375,-0.78125
69,0.1015625,0.007751465,-0.9421997,1.0,2.015625,-0.640625
70,0.10205078,0.008239746,-0.9619751,1.359375,2.328125,-0.625
71,0.10180664,0.014831543,-0.95684814,1.96875,2.671875,-0.6875
72,0.09790039,0.016296387,-0.958313,1.28125,2.265625,-0.59375
73,0.095703125,0.020202637,-0.9644165,-1.015625,2.203125,-0.578125
74,0.10083008,0.016296387,-0.97076416,-3.234375,0.171875,-0.703125
75,0.09790039,0.00970459,-0.96832275,-4.578125,-0.4375,-0.609375
76,0.103759766,0.0079956055,-0.9507446,-3.40625,-1.015625,-0.375
77,0.107666016,0.003112793,-0.95098877,-2.84375,-0.453125,-0.53125
78,0.10864258,-0.0025024414,-0.95147705,-2.4375,-0.65625,-0.515625
79,0.114990234,-0.007385254,-0.95269775,-2.921875,-1.09375,-0.4375
80,0.11450195,-0.0071411133,-0.9434204,-2.625,-1.3125,-0.5
81,0.1262207,-0.012268066,-0.94610596,-1.84375,-0.546875,-0.625
82,0.1262207,-0.010559082,-0.9483032,-1.8125,-0.203125,-0.5
83,0.12475586,-0.015197754,-0.94537354,-0.484375,0.765625,-0.546875
84,0.1274414,-0.012023926,-0.9475708,1.65625,2.625,-0.609375
85,0.1237793,-0.01373291,-0.9434204,3.40625,4.4375,-0.4375
86,0.11791992,-0.0076293945,-0.9458618,5.078125,5.234375,-0.4375
87,0.11230469,0.00018310547,-0.9536743,4.34375,5.390625,-0.640625
88,0.1081543,0.008728027,-0.9624634,2.890625,4.53125,-0.515625
89,0.111816406,0.005065918,-0.95880127,1.609375,2.921875,-0.625
90,0.09887695,0.012878418,-0.9500122,1.3125,2.375,-0.703125
91,0.10522461,0.008483887,-0.9492798,1.875,2.734375,-0.546875
92,0.1027832,0.018737793,-0.95513916,1.234375,2.5,-0.609375
93,0.1027832,0.016784668,-0.96954346,-0.875,2.03125,-0.625
94,0.1003418,0.01361084,-0.9546509,-3.65625,0.65625,-0.734375
95,0.10644531,0.0060424805,-0.9649048,-3.640625,0.25,-0.515625
96,0.107421875,0.0028686523,-0.9522095,-2.0625,-0.015625,-0.53125
97,0.103027344,-0.0010375977,-0.95318604,-1.859375,0.4375,-0.625
98,0.11230469,-0.0017700195,-0.9536743,-1.78125,0.046875,-0.53125
99,0.114990234,-0.0029907227,-0.9524536,-2.484375,-0.203125,-0.515625
100,0.11816406,-0.008850098,-0.9512329,-2.234375,-0.65625,-0.4375
101,0.11743164,-0.008361816,-0.94854736,-1.96875,-0.859375,-0.609375
102,0.11816406,-0.009338379,-0.94610596,-1.953125,-0.921875,-0.46875
103,0.12524414,-0.00982666,-0.9402466,-0.828125,0.140625,-0.640625
104,0.12475586,-0.017150879,-0.9434204,0.984375,1.375,-0.5
105,0.12475586,-0.012023926,-0.9480591,3.296875,3.78125,-0.453125
106,0.119140625,-0.008117676,-0.94781494,4.796875,5.40625,-0.53125
107,0.10961914,0.00091552734,-0.9570923,4.828125,4.875,-0.53125
108,0.114990234,0.012634277,-0.9573364,3.203125,3.875,-0.75
109,0.11035156,0.009460449,-0.95977783,0.96875,2.484375,-0.640625
110,0.11279297,0.008728027,-0.9458618,0.8125,1.984375,-0.578125
111,0.109375,0.008728027,-0.9529419,1.984375,2.28125,-0.59375
112,0.10620117,0.012634277,-0.9573364,2.109375,2.9375,-0.40625
113,0.10864258,0.005554199,-0.9651489,0.53125,2.640625,-0.59375
114,0.099121094,0.011169434,-0.9612427,-2.3125,1.171875,-0.765625
115,0.103515625,0.018981934,-0.9578247,-3.625,0.265625,-0.671875
116,0.107421875,0.008972168,-0.94488525,-3.359375,-0.234375,-0.578125
117,0.104003906,0.0040893555,-0.94976807,-1.953125,0.078125,-0.59375
118,0.11376953,-0.0044555664,-0.94732666,-2.34375,0.609375,-0.59375
119,0.11669922,-0.0051879883,-0.9536743,-2.1875,0.140625,-0.625
120,0.111572266,-0.004211426,-0.95318604,-2.609375,-0.03125,-0.4375
121,0.12109375,-0.010803223,-0.9602661,-2.40625,-0.359375,-0.46875
122,0.11987305,-0.01739502,-0.9475708,-1.703125,-0.265625,-0.40625
123,0.1262207,-0.01763916,-0.942688,-0.5625,0.953125,-0.578125
124,0.13085938,-0.012512207,-0.9505005,2.234375,3.09375,-0.453125
125,0.11767578,-0.012023926,-0.94488525,4.296875,4.625,-0.40625
126,0.115722656,-0.0020141602,-0.9434204,5.8125,5.71875,-0.4375
127,0.11206055,0.0053100586,-0.9624634,4.0625,5.453125,-0.5
128,0.103027344,0.010192871,-0.96173096,1.78125,3.359375,-0.65625
129,0.103759766,0.013122559,-0.9561157,0.703125,1.796875,-0.78125
130,0.10131836,0.00579834,-0.95880127,0.734375,1.34375,-0.59375
131,0.110839844,0.011413574,-0.94732666,1.8125,1.84375,-0.484375
132,0.10522461,0.015319824,-0.95977783,1.859375,2.640625,-0.671875
133,0.10546875,0.01751709,-0.9678345,-0.65625,1.640625,-0.78125
134,0.104003906,0.010437012,-0.96588135,-3.875,-0.046875,-0.59375
135,0.107421875,0.008239746,-0.9487915,-3.59375,-0.328125,-0.65625
136,0.107177734,0.002380371,-0.9483032,-2.734375,-0.265625,-0.53125
137,0.11230469,0.0026245117,-0.9546509,-2.09375,0.609375,-0.703125
138,0.11376953,-0.004699707,-0.9507446,-2.25,0.71875,-0.546875
139,0.11987305,-0.0049438477,-0.95025635,-2.546875,0.1875,-0.640625
140,0.1171875,-0.0095825195,-0.9480591,-2.71875,-0.46875,-0.515625
141,0.12182617,-0.01373291,-0.9595337,-2.21875,-0.078125,-0.5625
142,0.11743164,-0.019104004,-0.9558716,-2.09375,-0.265625,-0.59375
143,0.12939453,-0.02154541,-0.9456177,-1.515625,0.203125,-0.4375
144,0.12231445,-0.0178833,-0.9446411,0.046875,2.0,-0.640625
145,0.12182617,-0.014709473,-0.93829346,3.1875,3.921875,-0.65625
146,0.12207031,-0.015930176,-0.93048096,5.0,4.796875,-0.5
147,0.119384766,-0.008605957,-0.94610596,5.4375,5.375,-0.515625
148,0.11010742,0.00091552734,-0.96051025,3.421875,3.921875,-0.6875
149,0.10473633,0.0060424805,-0.96173096,1.375,2.265625,-0.640625
150,0.10571289,0.012145996,-0.95196533,1.078125,1.8125,-0.609375
151,0.1027832,0.0060424805,-0.9534302,1.875,2.046875,-0.5625
152,0.11279297,0.0119018555,-0.9517212,2.09375,2.390625,-0.5625
153,0.10668945,0.012634277,-0.95977783,1.5625,2.921875,-0.609375
154,0.107177734,0.010437012,-0.9673462,-0.96875,1.5625,-0.671875
155,0.104003906,0.014099121,-0.97906494,-4.71875,-0.34375,-0.71875
156,0.10522461,0.002380371,-0.94610596,-4.640625,-1.171875,-0.609375
157,0.107910156,-0.0022583008,-0.94195557,-3.28125,-1.03125,-0.5625
158,0.119384766,-0.0064086914,-0.9458618,-2.5,0.109375,-0.640625
159,0.11376953,-0.009094238,-0.9505005,-1.578125,0.703125,-0.625
160,0.11401367,-0.009338379,-0.94903564,-2.296875,0.53125,-0.640625
161,0.12011719,-0.014953613,-0.9500122,-2.328125,-0.1875,-0.46875
162,0.123535156,-0.008850098,-0.9439087,-1.765625,0.03125,-0.53125
163,0.12451172,-0.022277832,-0.9439087,-1.875,-0.203125,-0.375
164,0.12524414,-0.020568848,-0.9463501,-1.09375,0.46875,-0.5
165,0.13061523,-0.022521973,-0.94415283,0.3125,1.890625,-0.609375
166,0.1303711,-0.02130127,-0.93829346,3.96875,4.140625,-0.46875
167,0.12011719,-0.011291504,-0.9414673,5.53125,5.109375,-0.484375
168,0.12402344,-0.0115356445,-0.95269775,5.375,5.796875,-0.578125
169,0.111328125,0.0045776367,-0.96759033,3.375,4.28125,-0.6875
170,0.107910156,0.008972168,-0.95440674,1.359375,2.609375,-0.59375
171,0.114746094,0.005554199,-0.95147705,1.359375,1.71875,-0.640625
172,0.1105957,0.007507324,-0.9541626,2.078125,2.203125,-0.546875
173,0.11254883,0.014099121,-0.958313,1.578125,2.390625,-0.671875
174,0.10620117,0.008972168,-0.9668579,-0.65625,1.515625,-0.796875
175,0.10668945,0.010192871,-0.96173096,-3.75,-0.25,-0.84375
176,0.11328125,0.0038452148,-0.9507446,-4.390625,-1.421875,-0.65625
177,0.11621094,-0.0012817383,-0.93927,-4.46875,-2.203125,-0.5
178,0.11694336,-0.0178833,-0.9500122,-3.84375,-1.734375,-0.4375
179,0.12548828,-0.015686035,-0.9512329,-3.03125,-0.859375,-0.5625
180,0.12524414,-0.01763916,-0.94903564,-2.90625,-0.515625,-0.703125
181,0.13500977,-0.023010254,-0.9495239,-2.53125,-0.328125,-0.484375
182,0.13256836,-0.02178955,-0.94610596,-1.96875,0.125,-0.515625
183,0.13598633,-0.026428223,-0.9417114,-1.109375,0.59375,-0.609375
184,0.14013672,-0.027648926,-0.94659424,-0.296875,1.671875,-0.5625
185,0.14038086,-0.024963379,-0.9446411,0.984375,2.921875,-0.59375
186,0.12890625,-0.02520752,-0.93634033,4.46875,4.765625,-0.578125
187,0.13110352,-0.018127441,-0.94122314,5.515625,5.96875,-0.375
188,0.123046875,-0.0076293945,-0.9463501,5.984375,5.609375,-0.453125
189,0.115722656,-0.0049438477,-0.9692993,3.90625,4.34375,-0.5625
190,0.114990234,-0.0022583008,-0.9702759,1.34375,2.46875,-0.71875
191,0.11352539,-0.004211426,-0.9524536,0.96875,1.84375,-0.53125
192,0.1159668,-0.0015258789,-0.9456177,2.15625,2.375,-0.59375
193,0.114990234,0.004333496,-0.9570923,2.625,3.21875,-0.53125
194,0.11352539,0.008239746,-0.95880127,0.609375,2.171875,-0.65625
195,0.114746094,0.0038452148,-0.98809814,-4.5625,0.359375,-0.84375
196,0.1159668,0.00579834,-0.954895,-4.328125,-1.53125,-0.71875
197,0.11791992,-0.0022583008,-0.9331665,-2.609375,-1.265625,-0.578125
198,0.123046875,-0.006652832,-0.9495239,-1.875,0.234375,-0.515625
199,0.13305664,-0.008605957,-0.95513916,-1.53125,0.9375,-0.640625
200,0.1262207,-0.017150879,-0.94976807,-2.21875,0.625,-0.765625
201,0.12402344,-0.013977051,-0.944397,-1.625,0.96875,-0.578125
202,0.12817383,-0.015930176,-0.9475708,-1.734375,1.28125,-0.546875
203,0.12426758,-0.0154418945,-0.95318604,-1.109375,0.8125,-0.46875
204,0.12426758,-0.024719238,-0.9541626,-0.921875,0.921875,-0.46875
205,0.12866211,-0.022766113,-0.94659424,-0.015625,1.65625,-0.546875
206,0.13232422,-0.016174316,-0.94366455,2.28125,2.859375,-0.34375
207,0.12011719,-0.015197754,-0.9468384,3.625,4.78125,-0.515625
208,0.12109375,-0.012268066,-0.944397,5.140625,4.28125,-0.390625
209,0.11743164,-0.0025024414,-0.95562744,3.53125,3.375,-0.546875
210,0.11352539,0.005065918,-0.9602661,1.703125,1.515625,-0.625
211,0.12207031,-0.0012817383,-0.9492798,2.09375,1.171875,-0.59375
212,0.11425781,0.0065307617,-0.9483032,3.09375,1.8125,-0.515625
213,0.118896484,0.0099487305,-0.95196533,2.84375,1.9375,-0.34375
214,0.11645508,0.016540527,-0.9561157,2.265625,2.875,-0.546875
215,0.11401367,0.012634277,-0.9585571,-0.28125,3.453125,-0.703125
216,0.11352539,0.011169434,-0.9780884,-4.640625,1.40625,-1.171875
217,0.11352539,0.00579834,-0.95513916,-5.359375,-1.1875,-0.734375
218,0.12524414,-0.0012817383,-0.93634033,-3.40625,-1.53125,-0.578125
219,0.12207031,-0.004211426,-0.94732666,-2.625,-0.1875,-0.4375
220,0.13061523,-0.012268066,-0.9434204,-2.53125,0.3125,-0.71875
221,0.12792969,-0.015930176,-0.9558716,-2.390625,0.453125,-0.640625
222,0.13012695,-0.016906738,-0.9468384,-2.34375,0.015625,-0.609375
223,0.12890625,-0.020324707,-0.9536743,-2.015625,0.171875,-0.5
224,0.13208008,-0.018127441,-0.9553833,-1.71875,0.390625,-0.5
225,0.12939453,-0.021057129,-0.9529419,-1.375,0.390625,-0.671875
226,0.1328125,-0.020568848,-0.9439087,-0.140625,1.671875,-0.640625
227,0.13696289,-0.018615723,-0.93927,2.6875,4.078125,-0.40625
228,0.123291016,-0.016906738,-0.93414307,5.484375,6.25,-0.421875
229,0.122802734,0.00091552734,-0.95196533,6.828125,6.53125,-0.375
230,0.11303711,0.001159668,-0.9602661,4.703125,5.5,-0.734375
231,0.10668945,0.0048217773,-0.96539307,2.125,3.75,-0.609375
232,0.10498047,0.0099487305,-0.94854736,1.125,2.140625,-0.640625
233,0.106933594,0.010437012,-0.94659424,2.03125,2.375,-0.390625
234,0.104003906,0.007507324,-0.95391846,2.65625,3.1875,-0.625
235,0.10083008,0.012878418,-0.956604,1.515625,2.921875,-0.609375
236,0.10424805,0.010925293,-0.9734497,-2.1875,0.9375,-0.90625
237,0.10961914,0.011657715,-0.97076416,-5.234375,-1.640625,-0.59375
238,0.111816406,0.008972168,-0.9348755,-4.5625,-2.3125,-0.578125
239,0.11767578,-0.006652832,-0.9456177,-3.390625,-1.671875,-0.421875
240,0.1171875,-0.0037231445,-0.9495239,-2.984375,-1.515625,-0.5625
241,0.12426758,-0.010559082,-0.97320557,-4.609375,-1.90625,-0.484375
242,0.12646484,-0.015197754,-0.94122314,-4.0,-1.65625,-0.4375
243,0.13085938,-0.02130127,-0.9480591,-3.25,-1.34375,-0.5625
244,0.1381836,-0.028625488,-0.94122314,-2.484375,-1.09375,-0.453125
245,0.1459961,-0.028625488,-0.94488525,-1.953125,-0.109375,-0.578125
246,0.14770508,-0.036193848,-0.94537354,-1.015625,1.125,-0.5625
247,0.14282227,-0.02520752,-0.9463501,1.453125,3.421875,-0.59375
248,0.1340332,-0.02130127,-0.9434204,5.375,7.609375,-0.515625
249,0.12768555,-0.022033691,-0.928772,8.984375,8.359375,-0.484375
250,0.123046875,0.0018920898,-0.9663696,7.5625,8.09375,-0.328125
251,0.11230469,0.0138549805,-0.96881104,4.09375,4.96875,-0.703125
252,0.111572266,0.008728027,-0.96417236,1.078125,2.78125,-0.734375
253,0.107910156,0.012390137,-0.9468384,1.1875,2.40625,-0.578125
254,0.10449219,0.015075684,-0.9522095,2.265625,2.6875,-0.53125
255,0.110839844,0.010681152,-0.95806885,1.453125,2.15625,-0.640625
256,0.10424805,0.011657715,-0.972229,-1.59375,0.59375,-0.703125
257,0.10913086,0.010681152,-0.96099854,-5.53125,-2.140625,-0.59375
258,0.10888672,0.0036010742,-0.9546509,-5.96875,-2.703125,-0.578125
259,0.12133789,-0.0015258789,-0.9458618,-4.21875,-2.71875,-0.59375
260,0.12402344,-0.009094238,-0.93536377,-3.703125,-3.359375,-0.578125
261,0.13305664,-0.011779785,-0.9714966,-5.765625,-4.390625,-0.75
262,0.14355469,-0.034240723,-0.94122314,-5.90625,-4.1875,-0.84375
263,0.15234375,-0.031555176,-0.94415283,-3.859375,-2.90625,-0.5625
264,0.15307617,-0.038635254,-0.94000244,-2.84375,-1.046875,-0.625
265,0.15942383,-0.046936035,-0.94488525,-2.5,-0.328125,-0.609375
266,0.16210938,-0.042785645,-0.94000244,-1.578125,0.890625,-0.640625
267,0.16137695,-0.042785645,-0.9439087,1.015625,5.296875,-0.75
268,0.14892578,-0.039367676,-0.9302368,8.296875,11.09375,-0.46875
269,0.13061523,-0.026672363,-0.92388916,12.21875,11.3125,-0.390625
270,0.1237793,-0.00592041,-0.9668579,9.5625,10.234375,-0.53125
271,0.11206055,0.003112793,-0.989563,3.640625,5.546875,-0.578125
272,0.11645508,0.0053100586,-0.9573364,-0.3125,2.21875,-0.421875
273,0.10839844,0.004333496,-0.93463135,1.5,2.40625,-0.484375
274,0.10986328,0.010437012,-0.94317627,3.078125,2.921875,-0.546875
275,0.1081543,0.0067749023,-0.96099854,1.953125,3.078125,-0.625
276,0.10961914,0.0138549805,-0.97076416,-1.375,0.109375,-0.78125
277,0.1081543,0.008239746,-0.94903564,-5.359375,-1.84375,-0.796875
278,0.115478516,-0.00030517578,-0.9529419,-5.359375,-2.8125,-0.625
279,0.12402344,-0.0051879883,-0.95196533,-4.140625,-2.828125,-0.515625
280,0.119140625,-0.012023926,-0.95098877,-3.921875,-3.1875,-0.546875
281,0.13842773,-0.0178833,-0.95684814,-5.4375,-3.59375,-0.65625
282,0.140625,-0.032043457,-0.95758057,-5.8125,-3.765625,-0.65625
283,0.1508789,-0.038635254,-0.9534302,-5.421875,-4.140625,-0.515625
284,0.1652832,-0.04107666,-0.93878174,-4.25,-2.953125,-0.5
285,0.16381836,-0.042541504,-0.9397583,-3.453125,-1.515625,-0.546875
286,0.17016602,-0.04815674,-0.940979,-1.15625,0.828125,-0.671875
287,0.15942383,-0.04864502,-0.9307251,2.453125,6.578125,-0.625
288,0.15209961,-0.041809082,-0.9216919,8.0625,10.359375,-0.515625
289,0.13891602,-0.026916504,-0.9434204,11.046875,12.0,-0.546875
290,0.12426758,-0.0115356445,-0.9561157,9.59375,10.046875,-0.5
291,0.11694336,-0.00592041,-0.9788208,5.5,7.109375,-0.609375
292,0.115722656,0.0014038086,-0.9627075,1.9375,3.6875,-0.515625
293,0.111816406,0.001159668,-0.944397,1.140625,2.75,-0.609375
294,0.10864258,0.008483887,-0.94854736,1.71875,2.5625,-0.53125
295,0.110839844,0.009460449,-0.9570923,0.734375,1.09375,-0.703125
296,0.1184082,0.0053100586,-0.97442627,-4.140625,-0.671875,-0.71875
297,0.11352539,-0.002746582,-0.94781494,-5.234375,-2.875,-0.765625
298,0.12158203,-0.0068969727,-0.95147705,-5.015625,-2.5,-0.71875
299,0.12915039,-0.022033691,-0.9404907,-3.84375,-2.328125,-0.515625
300,0.13696289,-0.016418457,-0.95562744,-4.09375,-1.515625,-0.5625
301,0.13256836,-0.027893066,-0.9380493,-4.09375,-2.015625,-0.578125
302,0.14550781,-0.03643799,-0.9470825,-3.546875,-1.171875,-0.59375
303,0.14233398,-0.030334473,-0.9414673,-2.203125,-0.109375,-0.46875
304,0.14892578,-0.04107666,-0.95147705,-2.0,-0.0625,-0.46875
305,0.14990234,-0.03302002,-0.9429321,-1.15625,1.328125,-0.59375
306,0.15209961,-0.034484863,-0.9397583,-0.40625,2.171875,-0.546875
307,0.14868164,-0.042785645,-0.9429321,0.765625,3.5625,-0.421875
308,0.14794922,-0.04473877,-0.9429321,3.515625,5.984375,-0.6875
309,0.13354492,-0.03277588,-0.9324341,7.453125,8.84375,-0.609375
310,0.12451172,-0.019836426,-0.9360962,9.84375,8.234375,-0.359375
311,0.118652344,-0.007385254,-0.9692993,6.703125,7.5625,-0.625
312,0.109375,0.0014038086,-0.97320557,2.796875,4.546875,-0.71875
313,0.103759766,0.0040893555,-0.9558716,1.40625,2.796875,-0.453125
314,0.10644531,0.0065307617,-0.9483032,1.65625,2.6875,-0.640625
315,0.107910156,-0.0020141602,-0.9595337,1.59375,2.5625,-0.640625
316,0.10620117,0.008239746,-0.95928955,0.46875,1.71875,-0.609375
317,0.107421875,0.009216309,-0.96954346,-2.640625,-0.015625,-0.6875
318,0.107666016,0.0036010742,-0.9656372,-5.15625,-1.703125,-0.59375
319,0.11987305,-0.0064086914,-0.9463501,-4.875,-2.546875,-0.453125
320,0.11743164,-0.014709473,-0.9517212,-4.09375,-2.328125,-0.375
321,0.12597656,-0.016418457,-0.95147705,-3.375,-1.296875,-0.5625
322,0.12719727,-0.027160645,-0.9451294,-3.140625,-0.921875,-0.609375
323,0.1352539,-0.027893066,-0.95758057,-3.078125,-0.40625,-0.671875
324,0.13305664,-0.032287598,-0.9517212,-1.875,-0.40625,-0.71875
325,0.13916016,-0.031555176,-0.94244385,-1.375,0.296875,-0.484375
326,0.14257812,-0.033996582,-0.9522095,-1.046875,1.4375,-0.5625
327,0.14013672,-0.031066895,-0.94000244,1.546875,3.671875,-0.53125
328,0.1352539,-0.018615723,-0.94366455,5.1875,7.34375,-0.515625
329,0.12231445,-0.019592285,-0.92803955,8.71875,8.640625,-0.734375
330,0.11401367,-0.0056762695,-0.9614868,8.609375,8.171875,-0.65625
331,0.10473633,0.005065918,-0.9668579,4.796875,5.953125,-0.703125
332,0.107177734,0.005065918,-0.96417236,1.5625,2.984375,-0.734375
333,0.1003418,0.011169434,-0.9522095,0.640625,1.921875,-0.734375
334,0.10107422,0.011169434,-0.94537354,2.140625,2.28125,-0.375
335,0.09863281,0.011657715,-0.95684814,1.734375,2.796875,-0.546875
336,0.10083008,0.012145996,-0.9546509,1.109375,2.328125,-0.6875
337,0.10131836,0.0099487305,-0.9673462,-1.390625,0.71875,-0.671875
338,0.095703125,0.010437012,-0.958313,-4.625,-1.03125,-0.765625
339,0.10620117,0.0065307617,-0.95269775,-4.8125,-2.015625,-0.640625
340,0.11669922,-0.0032348633,-0.9463501,-3.0625,-1.515625,-0.484375
341,0.114990234,-0.00030517578,-0.9480591,-2.859375,-0.5,-0.5
342,0.119384766,-0.010803223,-0.9522095,-2.6875,-0.765625,-0.578125
343,0.119384766,-0.0115356445,-0.95025635,-2.609375,-0.421875,-0.59375
344,0.1274414,-0.014465332,-0.9517212,-2.625,-0.46875,-0.578125
345,0.12915039,-0.020812988,-0.9495239,-1.546875,-0.265625,-0.546875
346,0.12670898,-0.023010254,-0.9507446,-1.6875,0.796875,-0.515625
347,0.13085938,-0.02545166,-0.9524536,-0.046875,2.609375,-0.515625
348,0.12792969,-0.0256958,-0.93634033,2.890625,4.890625,-0.484375
349,0.111083984,-0.013000488,-0.9402466,6.15625,7.421875,-0.578125
350,0.11010742,-0.0029907227,-0.9414673,7.328125,6.359375,-0.4375
351,0.10473633,0.014343262,-0.96661377,4.671875,4.875,-0.609375
352,0.10644531,0.0079956055,-0.96343994,2.078125,2.40625,-0.640625
353,0.10424805,0.010437012,-0.9522095,0.953125,1.4375,-0.53125
354,0.1015625,0.011169434,-0.95318604,1.640625,1.734375,-0.5
355,0.10131836,0.01727295,-0.9524536,2.359375,2.3125,-0.546875
356,0.103271484,0.014831543,-0.9631958,1.375,2.59375,-0.65625
357,0.10913086,0.014343262,-0.9558716,0.578125,1.921875,-0.828125
358,0.10546875,0.010925293,-0.9644165,-1.96875,0.265625,-0.671875
359,0.103027344,0.009460449,-0.9602661,-4.578125,-0.96875,-0.609375
360,0.10449219,0.007019043,-0.9470825,-4.25,-1.03125,-0.5
361,0.11230469,0.005065918,-0.9463501,-2.953125,-0.234375,-0.40625
362,0.111816406,0.0018920898,-0.94854736,-1.828125,0.09375,-0.5625
363,0.11010742,-0.005432129,-0.94903564,-2.09375,0.453125,-0.59375
364,0.11694336,-0.009338379,-0.95269775,-2.734375,0.265625,-0.609375
365,0.11767578,-0.0071411133,-0.93878174,-1.796875,0.15625,-0.59375
366,0.12231445,-0.008850098,-0.95269775,-1.390625,0.71875,-0.5
367,0.12426758,-0.0056762695,-0.9536743,-0.28125,2.046875,-0.453125
368,0.12402344,-0.013977051,-0.94854736,2.375,3.71875,-0.546875
369,0.11230469,-0.009338379,-0.9385376,4.671875,5.65625,-0.421875
370,0.109375,-0.0017700195,-0.9365845,6.09375,5.453125,-0.375
371,0.107177734,0.007751465,-0.96661377,4.1875,4.78125,-0.4375
372,0.1003418,0.013366699,-0.9507446,2.15625,2.75,-0.671875
373,0.10131836,0.014587402,-0.9558716,1.46875,1.796875,-0.53125
374,0.1003418,0.011657715,-0.9446411,2.140625,2.3125,-0.6875
375,0.095214844,0.01751709,-0.95196533,3.375,3.046875,-0.6875
376,0.10083008,0.017028809,-0.95977783,2.125,3.46875,-0.703125
377,0.099853516,0.022399902,-0.95684814,0.21875,2.625,-0.703125
378,0.09326172,0.02142334,-0.9639282,-2.515625,0.8125,-0.875
379,0.09716797,0.022155762,-0.9585571,-4.578125,-0.765625,-0.640625
380,0.10253906,0.016052246,-0.94976807,-4.0625,-1.171875,-0.453125
381,0.10058594,0.0053100586,-0.9429321,-2.921875,-0.921875,-0.546875
382,0.10546875,0.0028686523,-0.94732666,-2.015625,0.296875,-0.640625
383,0.10620117,0.0021362305,-0.9541626,-2.109375,0.515625,-0.515625
384,0.10546875,-0.0017700195,-0.9492798,-1.703125,0.734375,-0.46875
385,0.1081543,-0.00592041,-0.95684814,-0.390625,1.625,-0.484375
386,0.107910156,-0.0025024414,-0.95147705,0.328125,2.0,-0.53125
387,0.106933594,0.00091552734,-0.9356079,2.625,4.34375,-0.40625
388,0.10205078,0.0018920898,-0.9439087,3.90625,5.0625,-0.484375
389,0.09375,0.012145996,-0.9512329,4.5,4.40625,-0.5
390,0.09643555,0.018249512,-0.9619751,3.171875,3.453125,-0.734375
391,0.09326172,0.0211792,-0.9627075,1.625,2.0625,-0.640625
392,0.08959961,0.020446777,-0.9558716,1.8125,1.671875,-0.46875
393,0.09277344,0.024841309,-0.9524536,3.015625,2.515625,-0.578125
394,0.09741211,0.020935059,-0.95098877,3.671875,2.453125,-0.78125
395,0.09301758,0.032409668,-0.96417236,2.609375,2.453125,-0.453125
396,0.08959961,0.030212402,-0.9546509,1.28125,2.375,-0.421875
397,0.08886719,0.035583496,-0.9561157,-0.671875,2.390625,-0.734375
398,0.087402344,0.034362793,-0.96710205,-3.953125,0.921875,-0.84375
399,0.087646484,0.03314209,-0.95269775,-4.25,0.109375,-0.703125
400,0.095214844,0.019470215,-0.9505005,-2.578125,0.453125,-0.765625
401,0.09741211,0.01751709,-0.94537354,-1.59375,1.265625,-0.578125
402,0.09277344,0.013122559,-0.9541626,-2.015625,1.09375,-0.578125
403,0.09301758,0.019470215,-0.95562744,-2.15625,0.671875,-0.546875
404,0.10229492,0.013122559,-0.95196533,-1.890625,0.3125,-0.53125
405,0.09741211,0.007751465,-0.95513916,-1.9375,0.203125,-0.53125
406,0.1003418,0.008972168,-0.9475708,-1.390625,0.546875,-0.546875
407,0.10253906,0.007751465,-0.94659424,0.0,1.609375,-0.5625
408,0.10498047,0.008972168,-0.9463501,2.015625,2.4375,-0.53125
409,0.09277344,0.012145996,-0.9456177,2.984375,2.90625,-0.453125
410,0.092041016,0.020935059,-0.95147705,3.765625,3.59375,-0.484375
411,0.099121094,0.019958496,-0.9553833,3.1875,3.140625,-0.578125
412,0.0925293,0.027770996,-0.9507446,2.625,1.953125,-0.546875
413,0.099853516,0.027770996,-0.9578247,2.34375,1.65625,-0.484375
414,0.09326172,0.030212402,-0.9534302,2.9375,1.53125,-0.53125
415,0.09667969,0.030944824,-0.9631958,2.6875,1.4375,-0.3125
416,0.09838867,0.031677246,-0.96539307,1.1875,2.09375,-0.546875
417,0.095947266,0.03289795,-0.96661377,-1.921875,2.84375,-0.8125
418,0.088134766,0.035339355,-0.9573364,-3.984375,1.40625,-0.875
419,0.09301758,0.02557373,-0.94854736,-3.78125,0.703125,-0.875
420,0.09448242,0.026550293,-0.95635986,-2.703125,0.625,-0.625
421,0.09399414,0.018737793,-0.95147705,-2.625,0.703125,-0.609375
422,0.10424805,0.0211792,-0.95025635,-2.671875,0.421875,-0.703125
423,0.10449219,0.012878418,-0.9524536,-2.171875,0.640625,-0.578125
424,0.1015625,0.01751709,-0.95269775,-2.203125,0.375,-0.609375
425,0.10668945,0.008239746,-0.94610596,-0.921875,0.8125,-0.546875
426,0.103759766,0.008483887,-0.9487915,0.0625,1.265625,-0.609375
427,0.10620117,0.01361084,-0.9468384,1.90625,1.859375,-0.40625
428,0.10498047,0.013366699,-0.94195557,3.34375,2.75,-0.59375
429,0.099853516,0.018493652,-0.9524536,3.6875,3.640625,-0.5625
430,0.1003418,0.024597168,-0.96881104,2.90625,3.234375,-0.6875
431,0.099609375,0.024108887,-0.9644165,2.28125,2.15625,-0.546875
432,0.09106445,0.024597168,-0.9536743,2.703125,0.6875,-0.296875
433,0.09350586,0.028015137,-0.95440674,2.5625,-0.78125,-0.203125
434,0.103271484,0.036315918,-0.9570923,2.65625,-0.875,-0.125
435,0.10424805,0.040222168,-0.95391846,2.046875,0.6875,-0.25
436,0.111328125,0.039733887,-0.95635986,0.28125,2.46875,-0.53125
437,0.10424805,0.045837402,-0.960022,-1.9375,3.265625,-0.890625
438,0.10449219,0.02923584,-0.9585571,-3.625,2.484375,-0.90625
439,0.096191406,0.038513184,-0.96417236,-2.796875,2.234375,-0.84375
440,0.1081543,0.027770996,-0.9507446,-2.9375,1.796875,-1.0
441,0.103027344,0.024841309,-0.9421997,-3.1875,1.46875,-0.890625
442,0.10522461,0.023376465,-0.9570923,-3.0625,1.265625,-0.703125
443,0.103515625,0.011169434,-0.96295166,-3.0,0.703125,-0.671875
444,0.099853516,0.010925293,-0.9495239,-1.4375,0.8125,-0.6875
445,0.10229492,0.0079956055,-0.9475708,-1.265625,0.984375,-0.484375
446,0.10424805,0.012145996,-0.9512329,-0.75,1.0625,-0.375
447,0.104003906,0.009216309,-0.9512329,0.34375,1.5,-0.453125
448,0.10449219,0.014587402,-0.9421997,1.875,2.46875,-0.640625
449,0.10205078,0.013122559,-0.9458618,3.125,2.203125,-0.46875
450,0.10473633,0.015075684,-0.96099854,2.5625,2.140625,-0.59375
451,0.10449219,0.020935059,-0.958313,2.640625,1.046875,-0.421875
452,0.10498047,0.024597168,-0.9573364,2.09375,0.171875,-0.390625
453,0.107177734,0.03338623,-0.95025635,2.3125,-0.578125,-0.171875
454,0.11401367,0.035095215,-0.9612427,2.75,-0.171875,-0.15625
455,0.11621094,0.038513184,-0.9536743,2.0625,-0.40625,-0.15625
456,0.11328125,0.038513184,-0.9590454,1.40625,1.15625,-0.21875
457,0.11303711,0.04168701,-0.9561157,-0.1875,2.5,-0.671875
458,0.11328125,0.032409668,-0.95684814,-2.265625,3.09375,-0.75
459,0.10839844,0.036071777,-0.95635986,-2.59375,2.15625,-0.703125
460,0.11303711,0.03289795,-0.9483032,-1.859375,1.625,-0.6875
461,0.111328125,0.029968262,-0.954895,-3.1875,1.84375,-0.8125
462,0.1105957,0.01727295,-0.9536743,-3.53125,2.234375,-0.96875
463,0.10620117,0.022155762,-0.9487915,-3.09375,2.796875,-0.984375
464,0.107421875,0.016784668,-0.95391846,-2.453125,2.4375,-0.8125
465,0.10473633,0.012390137,-0.9480591,-1.171875,1.984375,-0.78125
466,0.10668945,0.011169434,-0.95318604,-0.9375,1.515625,-0.65625
467,0.107177734,0.008972168,-0.95562744,0.34375,1.21875,-0.640625
468,0.103271484,0.011413574,-0.94317627,2.234375,1.40625,-0.484375
469,0.10961914,0.015808105,-0.9470825,3.921875,1.578125,-0.40625
470,0.11035156,0.019958496,-0.96295166,3.484375,0.75,-0.34375
471,0.10498047,0.022644043,-0.9553833,3.28125,0.765625,-0.15625
472,0.11328125,0.031677246,-0.95196533,3.53125,0.390625,-0.125
473,0.11401367,0.03338623,-0.9524536,3.140625,-0.328125,-0.359375
474,0.1171875,0.050964355,-0.9561157,2.84375,-1.1875,0.0625
475,0.12084961,0.04559326,-0.9505005,2.359375,-0.796875,-0.078125
476,0.12451172,0.04510498,-0.9595337,2.046875,0.03125,-0.265625
477,0.1328125,0.04852295,-0.9536743,1.453125,0.890625,-0.328125
478,0.12524414,0.047790527,-0.95635986,-0.234375,3.125,-0.6875
479,0.123046875,0.050720215,-0.9627075,-2.046875,4.234375,-0.796875
480,0.11791992,0.043151855,-0.9590454,-3.015625,3.921875,-0.96875
481,0.11743164,0.04095459,-0.9505005,-2.40625,4.484375,-1.03125
482,0.10888672,0.034362793,-0.95880127,-3.21875,4.234375,-0.96875
483,0.10620117,0.030944824,-0.9536743,-3.734375,3.71875,-1.25
484,0.11352539,0.0289917,-0.95391846,-4.1875,2.15625,-1.0625
485,0.10229492,0.015563965,-0.94317627,-3.578125,1.265625,-0.859375
486,0.11010742,0.01776123,-0.9429321,-2.5625,0.71875,-0.6875
487,0.11621094,0.015563965,-0.9480591,-1.296875,0.9375,-0.65625
488,0.10961914,0.012634277,-0.9451294,0.640625,1.140625,-0.515625
489,0.103271484,0.014343262,-0.9480591,3.03125,2.640625,-0.53125
490,0.10253906,0.015075684,-0.9512329,3.65625,2.5625,-0.265625
491,0.10913086,0.022399902,-0.9578247,3.546875,2.984375,-0.328125
492,0.103515625,0.028259277,-0.9553833,3.015625,1.96875,-0.296875
493,0.10253906,0.03656006,-0.9627075,2.859375,0.671875,-0.25
494,0.10595703,0.03753662,-0.9558716,2.53125,-0.1875,-0.3125
495,0.109375,0.04095459,-0.9541626,2.125,-0.96875,-0.15625
496,0.11254883,0.046569824,-0.95025635,1.640625,-0.359375,-0.1875
497,0.119628906,0.04437256,-0.96466064,1.046875,2.09375,-0.421875
498,0.11328125,0.04046631,-0.9649048,-1.65625,3.34375,-0.8125
499,0.111816406,0.04144287,-0.9541626,-2.625,3.578125,-0.90625
500,0.10424805,0.03753662,-0.9480591,-2.34375,3.953125,-0.6875
501,0.107177734,0.036315918,-0.95562744,-2.28125,3.59375,-0.9375
502,0.09448242,0.031677246,-0.9524536,-2.765625,3.140625,-1.03125
503,0.099121094,0.029968262,-0.9500122,-3.125,2.3125,-0.921875
504,0.10058594,0.020690918,-0.95684814,-2.578125,1.71875,-1.0
505,0.09643555,0.018249512,-0.95758057,-1.96875,1.234375,-0.8125
506,0.10107422,0.016296387,-0.94854736,-1.75,0.96875,-0.6875
507,0.103271484,0.015808105,-0.9468384,-1.171875,0.84375,-0.46875
508,0.10644531,0.014587402,-0.94537354,-0.09375,1.21875,-0.53125
509,0.10595703,0.024108887,-0.9446411,1.890625,1.84375,-0.421875
510,0.10205078,0.018005371,-0.94195557,2.359375,1.265625,-0.40625
511,0.107421875,0.026550293,-0.95684814,2.21875,1.296875,-0.453125
512,0.10961914,0.026794434,-0.9456177,2.6875,0.6875,-0.421875
513,0.10571289,0.02923584,-0.9570923,2.734375,0.453125,-0.28125
514,0.107177734,0.03265381,-0.9505005,2.96875,-0.015625,-0.203125
515,0.110839844,0.040222168,-0.94903564,3.078125,0.15625,-0.3125
516,0.115234375,0.040222168,-0.9578247,2.03125,1.3125,-0.21875
517,0.11206055,0.039978027,-0.9602661,0.171875,2.40625,-0.421875
518,0.106933594,0.043884277,-0.96466064,-0.734375,3.578125,-0.671875
519,0.11206055,0.039245605,-0.95758057,-1.53125,3.453125,-0.78125
520,0.10888672,0.04119873,-0.95025635,-1.796875,3.6875,-0.765625
521,0.100097656,0.040222168,-0.9507446,-2.390625,2.96875,-0.96875
522,0.095947266,0.035339355,-0.9541626,-3.328125,2.09375,-1.0
523,0.10058594,0.030212402,-0.95391846,-3.125,1.828125,-0.953125
524,0.103271484,0.018249512,-0.95025635,-2.59375,1.328125,-0.71875
525,0.099853516,0.025817871,-0.96051025,-1.96875,0.984375,-0.640625
526,0.099121094,0.022888184,-0.95635986,-1.859375,0.671875,-0.5625
527,0.10131836,0.019226074,-0.94610596,-1.609375,0.296875,-0.625
528,0.1015625,0.014587402,-0.9483032,-1.328125,0.546875,-0.421875
529,0.107666016,0.014343262,-0.95147705,-0.515625,0.703125,-0.546875
530,0.10595703,0.013366699,-0.94610596,1.0,1.546875,-0.578125
531,0.107177734,0.019714355,-0.94415283,2.046875,2.140625,-0.53125
532,0.11230469,0.029968262,-0.9536743,1.875,-0.359375,-0.4375
533,0.12084961,0.03778076,-0.95758057,0.84375,1.234375,-0.46875
534,0.11791992,0.038513184,-0.95562744,-0.75,2.765625,-0.625
535,0.11669922,0.035827637,-0.958313,-2.359375,3.0,-0.6875
536,0.10961914,0.035339355,-0.94903564,-2.046875,3.390625,-0.875
537,0.111816406,0.035095215,-0.95513916,-2.0625,3.40625,-0.8125
538,0.10620117,0.024597168,-0.9505005,-1.9375,3.546875,-0.90625
539,0.11035156,0.023620605,-0.9558716,-2.5625,2.578125,-0.859375
540,0.1081543,0.021911621,-0.9468384,-2.5625,2.28125,-0.828125
541,0.10571289,0.02142334,-0.95928955,-1.71875,2.0625,-0.734375
542,0.10253906,0.015319824,-0.9507446,-1.671875,1.3125,-0.625
543,0.103515625,0.012634277,-0.95147705,-1.125,1.359375,-0.546875
544,0.107177734,0.014587402,-0.94488525,-0.8125,1.328125,-0.34375
545,0.10644531,0.012634277,-0.9429321,0.796875,1.4375,-0.515625
546,0.10253906,0.0138549805,-0.94903564,2.59375,1.671875,-0.296875
547,0.10058594,0.019714355,-0.958313,2.828125,1.28125,-0.40625
548,0.103759766,0.023132324,-0.9524536,2.4375,0.796875,-0.390625
549,0.10595703,0.028747559,-0.9507446,2.546875,0.640625,-0.359375
550,0.10668945,0.03314209,-0.9534302,2.265625,-0.6875,-0.140625
551,0.11352539,0.035827637,-0.96173096,1.875,-1.234375,-0.171875
552,0.11743164,0.038269043,-0.94854736,1.671875,-1.328125,-0.28125
553,0.12182617,0.03656006,-0.960022,1.34375,0.0625,-0.28125
554,0.12402344,0.028503418,-0.95269775,0.359375,2.515625,-0.515625
555,0.123046875,0.035827637,-0.9627075,-1.765625,4.1875,-0.84375
556,0.11425781,0.031433105,-0.9561157,-2.0,4.28125,-1.046875
557,0.1105957,0.034851074,-0.9446411,-1.96875,3.890625,-0.890625
558,0.10839844,0.02947998,-0.94415283,-2.1875,3.421875,-0.984375
559,0.10986328,0.02532959,-0.95440674,-2.078125,3.0,-0.890625
560,0.09887695,0.018981934,-0.95513916,-3.125,1.546875,-0.9375
561,0.103027344,0.014831543,-0.9505005,-2.390625,1.65625,-0.734375
562,0.10571289,0.016296387,-0.954895,-2.28125,1.390625,-0.65625
563,0.107177734,0.016052246,-0.9434204,-1.453125,1.25,-0.609375
564,0.103759766,0.015808105,-0.95147705,-0.65625,1.390625,-0.5625
565,0.11230469,0.010192871,-0.944397,-0.140625,1.46875,-0.6875
566,0.11010742,0.008483887,-0.94317627,1.5625,1.78125,-0.375
567,0.11279297,0.018493652,-0.9483032,2.328125,1.71875,-0.46875
568,0.10473633,0.019470215,-0.9522095,2.578125,1.21875,-0.390625
569,0.10229492,0.02947998,-0.95440674,2.484375,0.78125,-0.484375
570,0.111083984,0.030700684,-0.9529419,2.59375,0.34375,-0.484375
571,0.10961914,0.031677246,-0.9546509,2.515625,-0.484375,-0.265625
572,0.11450195,0.03314209,-0.9507446,2.609375,-0.75,-0.28125
573,0.12426758,0.03729248,-0.9522095,2.234375,-0.40625,-0.234375
574,0.11694336,0.04119873,-0.96099854,2.03125,0.359375,-0.28125
575,0.12451172,0.04071045,-0.9512329,1.25,1.421875,-0.34375
576,0.12036133,0.047790527,-0.94976807,0.53125,2.640625,-0.5
577,0.12402344,0.04486084,-0.96295166,-1.078125,4.34375,-0.796875
578,0.110839844,0.04071045,-0.95635986,-2.421875,4.734375,-1.015625
579,0.107177734,0.035095215,-0.95318604,-2.09375,4.609375,-1.046875
580,0.10595703,0.03729248,-0.95269775,-2.515625,3.71875,-1.0
581,0.09838867,0.03363037,-0.9585571,-1.671875,3.0,-0.921875
582,0.09790039,0.032409668,-0.9500122,-1.515625,2.3125,-0.71875
583,0.104003906,0.028259277,-0.94659424,-0.375,2.453125,-0.703125
584,0.095458984,0.022888184,-0.9483032,0.015625,2.34375,-0.53125
585,0.10498047,0.026794434,-0.9553833,-0.140625,2.21875,-0.5625
586,0.095458984,0.029724121,-0.9451294,1.03125,1.609375,-0.53125
587,0.10180664,0.031433105,-0.94781494,1.78125,0.515625,-0.4375
588,0.10083008,0.031677246,-0.95928955,1.765625,-1.578125,-0.46875
589,0.10961914,0.031921387,-0.9612427,1.421875,-1.546875,-0.3125
590,0.10839844,0.03778076,-0.94854736,1.984375,-1.3125,-0.25
591,0.11376953,0.042663574,-0.94976807,2.125,-1.65625,-0.171875
592,0.12426758,0.039245605,-0.95269775,1.640625,-1.875,-0.21875
593,0.1237793,0.046325684,-0.95758057,1.25,-2.40625,-0.171875
594,0.13476562,0.047546387,-0.94537354,1.859375,-0.9375,-0.078125
595,0.13427734,0.04559326,-0.96343994,1.328125,1.109375,-0.15625
596,0.13598633,0.051208496,-0.95391846,-0.53125,2.609375,-0.625
597,0.12792969,0.04925537,-0.9570923,-1.484375,4.171875,-0.796875
598,0.12426758,0.047302246,-0.95758057,-1.65625,4.328125,-0.84375
599,0.1237793,0.045837402,-0.9517212,-1.765625,5.203125,-1.09375
600,0.11791992,0.03753662,-0.95806885,-2.6875,5.46875,-1.046875
601,0.104003906,0.03338623,-0.9487915,-3.09375,4.984375,-1.140625
602,0.106933594,0.03289795,-0.94366455,-2.796875,4.3125,-1.125
603,0.10644531,0.026794434,-0.95318604,-2.890625,2.8125,-0.953125
604,0.10864258,0.023620605,-0.94854736,-2.890625,0.796875,-0.78125
605,0.10620117,0.022399902,-0.9512329,-2.296875,0.8125,-0.578125
606,0.10449219,0.02532959,-0.9487915,-1.296875,0.921875,-0.484375
607,0.107666016,0.020935059,-0.9338989,0.078125,1.296875,-0.609375
608,0.10888672,0.018005371,-0.94488525,1.890625,1.9375,-0.359375
609,0.10644531,0.018981934,-0.9517212,2.8125,1.59375,-0.421875
610,0.10571289,0.023864746,-0.95928955,2.796875,1.625,-0.484375
611,0.10864258,0.024353027,-0.96099854,2.125,0.921875,-0.46875
612,0.107666016,0.036071777,-0.9570923,3.0625,0.109375,-0.28125
613,0.114990234,0.03753662,-0.954895,1.8125,-1.09375,-0.28125
614,0.12011719,0.03704834,-0.9446411,2.28125,-0.890625,-0.28125
615,0.12207031,0.043151855,-0.9541626,1.984375,-0.21875,-0.328125
616,0.119628906,0.043640137,-0.9522095,2.0,0.71875,-0.296875
617,0.123291016,0.05340576,-0.96417236,1.09375,1.703125,-0.4375
618,0.12695312,0.055114746,-0.95635986,0.171875,3.1875,-0.5625
619,0.122802734,0.049743652,-0.9534302,-1.625,3.78125,-0.625
620,0.118652344,0.043640137,-0.9512329,-2.546875,4.140625,-0.828125
621,0.109375,0.044128418,-0.9524536,-2.09375,4.515625,-0.90625
622,0.11401367,0.035583496,-0.9492798,-2.890625,4.46875,-1.015625
623,0.104003906,0.034362793,-0.9536743,-3.15625,3.109375,-1.125
624,0.10205078,0.028503418,-0.95196533,-3.078125,2.125,-0.96875
625,0.10571289,0.028015137,-0.9470825,-2.28125,1.234375,-0.6875
626,0.09692383,0.025817871,-0.9446411,-1.3125,1.25,-0.484375
627,0.10180664,0.019714355,-0.94610596,-0.375,1.734375,-0.515625
628,0.099365234,0.021911621,-0.94854736,1.53125,1.640625,-0.484375
629,0.100097656,0.030212402,-0.94903564,3.015625,2.078125,-0.40625
630,0.10473633,0.03387451,-0.9529419,2.90625,1.546875,-0.5625
631,0.10522461,0.027770996,-0.95684814,2.390625,0.921875,-0.40625
632,0.10180664,0.042907715,-0.9512329,2.625,0.453125,-0.421875
633,0.10180664,0.04095459,-0.95440674,2.03125,-0.59375,-0.25
634,0.107910156,0.04827881,-0.9517212,2.0625,-0.984375,-0.0625
635,0.11645508,0.04852295,-0.9534302,2.171875,-1.109375,-0.21875
636,0.1171875,0.049987793,-0.9495239,1.78125,-0.15625,-0.21875
637,0.11791992,0.050231934,-0.9602661,1.1875,1.8125,-0.3125
638,0.12207031,0.04876709,-0.9512329,0.140625,3.5625,-0.46875
639,0.11694336,0.051940918,-0.9656372,-2.15625,4.765625,-0.953125
640,0.111572266,0.04949951,-0.9541626,-2.578125,4.609375,-0.890625
641,0.10644531,0.04852295,-0.94854736,-2.125,4.421875,-1.015625
642,0.10449219,0.04876709,-0.95928955,-2.453125,4.015625,-0.96875
643,0.10083008,0.04437256,-0.9541626,-3.15625,3.390625,-0.984375
644,0.10083008,0.034362793,-0.958313,-2.875,1.984375,-1.015625
645,0.09838867,0.027526855,-0.9434204,-2.3125,1.46875,-0.828125
646,0.09790039,0.03289795,-0.93341064,-1.046875,0.984375,-0.6875
647,0.09716797,0.0289917,-0.9573364,0.75,1.796875,-0.546875
648,0.09790039,0.030944824,-0.94976807,1.78125,1.734375,-0.5
649,0.104003906,0.03387451,-0.9553833,2.734375,1.28125,-0.421875
650,0.10522461,0.034606934,-0.9529419,2.4375,0.71875,-0.453125
651,0.09765625,0.04437256,-0.9573364,2.6875,0.09375,-0.359375
652,0.109375,0.04071045,-0.95269775,3.09375,-0.78125,-0.234375
653,0.111083984,0.050720215,-0.94781494,2.5625,-1.71875,0.03125
654,0.115234375,0.046325684,-0.9529419,1.96875,-2.25,-0.078125
655,0.119384766,0.050231934,-0.9524536,1.8125,-1.4375,-0.25
656,0.11743164,0.055847168,-0.95635986,1.78125,0.609375,-0.171875
657,0.12084961,0.055358887,-0.958313,0.125,3.171875,-0.578125
658,0.11767578,0.05682373,-0.9710083,-0.84375,4.3125,-0.6875
659,0.111083984,0.049987793,-0.95147705,-2.40625,4.71875,-0.921875
660,0.107177734,0.047790527,-0.9522095,-2.640625,4.390625,-0.796875
661,0.107666016,0.047302246,-0.9517212,-2.375,3.46875,-0.9375
662,0.10644531,0.044128418,-0.9451294,-3.15625,2.90625,-1.0
663,0.10620117,0.030944824,-0.95318604,-3.609375,2.546875,-1.03125
664,0.10180664,0.035339355,-0.95147705,-2.90625,1.828125,-0.90625
665,0.099121094,0.02923584,-0.9500122,-3.296875,1.171875,-0.875
666,0.10253906,0.02947998,-0.94659424,-2.40625,0.84375,-0.78125
667,0.1027832,0.026794434,-0.9483032,-1.234375,0.6875,-0.5625
668,0.10986328,0.02508545,-0.9500122,1.046875,1.328125,-0.5625
669,0.10668945,0.022888184,-0.95196533,3.265625,2.28125,-0.28125
670,0.10205078,0.0289917,-0.9541626,3.171875,1.65625,-0.296875
671,0.10839844,0.030456543,-0.95977783,2.4375,1.0,-0.453125
672,0.10913086,0.03387451,-0.95684814,2.109375,0.15625,-0.265625
673,0.107177734,0.039489746,-0.9534302,2.375,-1.09375,-0.140625
674,0.11767578,0.04852295,-0.9561157,2.5625,-1.296875,-0.125
675,0.12207031,0.047546387,-0.9595337,1.96875,-0.9375,-0.1875
676,0.12231445,0.05218506,-0.9524536,1.21875,0.546875,-0.21875
677,0.12695312,0.050476074,-0.9636841,0.015625,2.703125,-0.546875
678,0.11450195,0.047302246,-0.95635986,-1.296875,4.875,-0.703125
679,0.119140625,0.050476074,-0.9612427,-1.90625,4.890625,-0.796875
680,0.104003906,0.046325684,-0.960022,-2.078125,4.515625,-0.921875
681,0.11303711,0.043151855,-0.96661377,-2.703125,3.921875,-1.0
682,0.099609375,0.034851074,-0.95513916,-3.859375,3.21875,-1.125
683,0.10058594,0.030944824,-0.9507446,-3.53125,2.453125,-0.859375
684,0.10131836,0.02923584,-0.95269775,-2.6875,1.609375,-0.9375
685,0.10083008,0.025817871,-0.944397,-1.4375,0.890625,-0.734375
686,0.10546875,0.028259277,-0.94488525,0.453125,1.5,-0.5625
687,0.10180664,0.0289917,-0.95196533,2.140625,2.46875,-0.546875
688,0.095214844,0.02557373,-0.95880127,3.078125,2.21875,-0.484375
689,0.09863281,0.031921387,-0.95928955,2.75,1.921875,-0.453125
690,0.09863281,0.035827637,-0.95440674,1.5625,0.984375,-0.53125
691,0.10205078,0.039245605,-0.9602661,0.5625,0.140625,-0.53125
692,0.10498047,0.036071777,-0.9529419,0.65625,-0.53125,-0.40625
693,0.10595703,0.042419434,-0.9495239,1.109375,-1.265625,-0.375
694,0.10961914,0.039001465,-0.9546509,1.65625,-1.203125,-0.09375
695,0.11767578,0.046081543,-0.9500122,1.578125,-0.84375,-0.265625
696,0.12109375,0.050476074,-0.96173096,0.96875,0.59375,-0.3125
697,0.12231445,0.047058105,-0.9614868,0.359375,2.25,-0.453125
698,0.11767578,0.050964355,-0.95635986,-0.6875,3.109375,-0.859375
699,0.1159668,0.054138184,-0.9673462,-2.1875,3.84375,-0.796875
700,0.10644531,0.043640137,-0.9507446,-2.6875,4.578125,-0.859375
701,0.107177734,0.042907715,-0.95562744,-2.28125,5.046875,-0.953125
702,0.099365234,0.03729248,-0.94976807,-2.828125,4.390625,-1.046875
703,0.10180664,0.031433105,-0.9536743,-2.75,2.78125,-0.953125
704,0.10253906,0.02923584,-0.9439087,-2.578125,1.25,-0.734375
705,0.09863281,0.030212402,-0.95269775,-1.53125,0.890625,-0.703125
706,0.09887695,0.025817871,-0.95513916,-0.484375,0.65625,-0.515625
707,0.103271484,0.02508545,-0.95025635,1.03125,1.015625,-0.453125
708,0.10058594,0.024841309,-0.9483032,2.453125,1.5,-0.453125
709,0.10668945,0.018981934,-0.9500122,2.6875,1.109375,-0.359375
710,0.10522461,0.030944824,-0.95928955,2.515625,0.671875,-0.40625
711,0.10620117,0.038513184,-0.9631958,2.0625,0.09375,-0.265625
712,0.10668945,0.043640137,-0.95635986,1.28125,-0.9375,-0.328125
713,0.111572266,0.039001465,-0.9529419,1.03125,-1.578125,-0.34375
714,0.11791992,0.044128418,-0.9483032,0.96875,-1.828125,-0.21875
715,0.12084961,0.038024902,-0.9507446,1.4375,-0.40625,-0.25
716,0.12231445,0.04949951,-0.9570923,1.765625,0.984375,-0.203125
717,0.13232422,0.049743652,-0.95635986,0.015625,2.203125,-0.3125
718,0.12011719,0.0446167,-0.9553833,-0.4375,4.25,-0.625
719,0.10913086,0.043395996,-0.96099854,-1.875,5.046875,-0.90625
720,0.10888672,0.050231934,-0.9507446,-1.78125,4.859375,-0.921875
721,0.10668945,0.047302246,-0.9578247,-2.390625,4.671875,-0.796875
722,0.10522461,0.039733887,-0.9595337,-2.359375,4.171875,-0.96875
723,0.10229492,0.03363037,-0.95391846,-3.203125,2.96875,-1.0
724,0.103027344,0.026306152,-0.9536743,-2.875,2.03125,-0.8125
725,0.1027832,0.027526855,-0.9561157,-2.640625,0.703125,-0.796875
726,0.10449219,0.022155762,-0.9512329,-1.578125,0.71875,-0.625
727,0.103759766,0.025817871,-0.9458618,0.046875,0.671875,-0.59375
728,0.09887695,0.02923584,-0.942688,2.03125,1.109375,-0.453125
729,0.10888672,0.02923584,-0.95758057,2.21875,0.984375,-0.390625
730,0.1015625,0.031677246,-0.9529419,2.171875,0.65625,-0.34375
731,0.10839844,0.029724121,-0.95391846,2.046875,0.171875,-0.34375
732,0.111816406,0.04119873,-0.96173096,1.890625,0.125,-0.375
733,0.115722656,0.04510498,-0.95318604,2.53125,-0.6875,-0.21875
734,0.123046875,0.04071045,-0.95391846,1.671875,-1.59375,-0.328125
735,0.12451172,0.041931152,-0.9439087,1.921875,-1.296875,-0.28125
736,0.122802734,0.046081543,-0.95513916,1.0625,0.875,-0.421875
737,0.12841797,0.043151855,-0.95440674,0.125,2.671875,-0.5
738,0.12231445,0.043884277,-0.96173096,-1.546875,4.09375,-0.734375
739,0.119140625,0.04437256,-0.95635986,-1.890625,3.859375,-0.734375
740,0.12158203,0.04437256,-0.9456177,-1.84375,4.109375,-0.71875
741,0.11035156,0.038024902,-0.95440674,-1.953125,4.359375,-1.0
742,0.1081543,0.04071045,-0.94976807,-2.28125,3.984375,-0.859375
743,0.10620117,0.034118652,-0.9614868,-3.875,1.859375,-1.09375
744,0.10571289,0.0289917,-0.95513916,-4.296875,0.046875,-0.96875
745,0.11450195,0.028015137,-0.9558716,-4.03125,-0.953125,-0.8125
746,0.10668945,0.019714355,-0.9439087,-2.78125,-0.796875,-0.59375
747,0.11425781,0.013122559,-0.9434204,-1.015625,-0.109375,-0.71875
748,0.12182617,0.0211792,-0.9414673,0.21875,1.171875,-0.5625
749,0.11376953,0.02508545,-0.9470825,2.40625,2.1875,-0.4375
750,0.118896484,0.022399902,-0.9546509,3.890625,2.265625,-0.359375
751,0.118652344,0.02947998,-0.9644165,2.890625,1.953125,-0.34375
752,0.11645508,0.028015137,-0.94317627,2.625,0.875,-0.421875
753,0.119140625,0.03289795,-0.9487915,2.1875,0.078125,-0.34375
754,0.12207031,0.036315918,-0.95758057,2.234375,-0.796875,-0.125
755,0.12207031,0.03387451,-0.95196533,2.515625,-0.65625,-0.078125
756,0.123535156,0.042419434,-0.95635986,2.171875,0.5,-0.15625
757,0.12890625,0.039001465,-0.95147705,0.671875,2.46875,-0.5
758,0.125,0.046569824,-0.9619751,-1.203125,4.359375,-0.703125
759,0.11645508,0.038024902,-0.9573364,-2.125,3.9375,-0.984375
760,0.11621094,0.03704834,-0.95318604,-2.640625,4.078125,-1.0
761,0.10864258,0.03387451,-0.95440674,-2.859375,3.09375,-0.921875
