sample_no,accel_x,accel_y,accel_z,gyro_x,gyro_y,gyro_z
0,-0.7109375,-0.059631348,0.8617554,-1.578125,1.328125,-0.578125
1,-0.7180176,-0.038635254,0.86639404,-1.609375,2.296875,-0.671875
2,-0.70751953,-0.042541504,0.8563843,-0.4375,1.921875,-0.34375
3,-0.68969727,-0.034729004,0.8588257,-0.203125,2.390625,-0.546875
4,-0.6923828,-0.030578613,0.8666382,-0.640625,1.875,-0.78125
5,-0.6816406,-0.034484863,0.85565186,-1.953125,3.59375,-0.8125
6,-0.6921387,-0.026428223,0.8900757,-1.953125,3.671875,-0.5
7,-0.67333984,-0.034973145,0.8656616,-2.828125,5.359375,-0.734375
8,-0.67041016,-0.016174316,0.8949585,-2.734375,3.765625,-0.71875
9,-0.670166,-0.011047363,0.91986084,-1.828125,4.421875,-0.484375
10,-0.68896484,-0.03765869,0.91156006,-1.9375,6.734375,-0.390625
11,-0.6530762,-0.028137207,0.86053467,-3.71875,8.265625,-1.046875
12,-0.63500977,0.00091552734,0.87542725,-3.46875,6.6875,-0.71875
13,-0.63427734,0.015563965,0.8908081,-2.78125,3.484375,-0.75
14,-0.6472168,0.0060424805,0.916687,-1.4375,4.0,-0.484375
15,-0.6430664,0.0014038086,0.8986206,-1.109375,5.140625,-0.453125
16,-0.6345215,0.0028686523,0.8978882,-0.671875,4.0625,0.15625
17,-0.6376953,0.009216309,0.91156006,0.171875,4.484375,0.40625
18,-0.6225586,0.0014038086,0.9020386,0.203125,4.84375,0.125
19,-0.6118164,0.009460449,0.9020386,-0.359375,3.765625,-0.28125
20,-0.6220703,0.02166748,0.90789795,0.125,3.03125,0.21875
21,-0.6135254,0.0004272461,0.8991089,0.515625,2.09375,-0.390625
22,-0.6176758,-0.0068969727,0.9008179,-0.125,2.84375,-0.890625
23,-0.6152344,0.012878418,0.89276123,0.890625,2.296875,-0.203125
24,-0.6188965,0.009216309,0.930603,1.71875,0.5625,0.078125
25,-0.61816406,0.012634277,0.9142456,2.53125,-3.359375,0.171875
26,-0.6315918,0.027282715,0.87786865,4.34375,-8.546875,1.203125
27,-0.6286621,0.0119018555,0.84710693,8.96875,-15.53125,2.171875
28,-0.64575195,-0.04034424,0.88275146,3.9375,-12.078125,1.265625
29,-0.6665039,-0.05206299,0.883728,-1.078125,-5.96875,-0.953125
30,-0.6677246,-0.0095825195,0.8800659,-2.046875,-2.9375,-2.34375
31,-0.6730957,-0.020080566,0.90130615,-0.71875,-1.234375,-0.734375
32,-0.67626953,-0.030578613,0.9105835,-0.5625,-1.53125,0.21875
33,-0.6904297,-0.019592285,0.88861084,-0.140625,-0.96875,0.375
34,-0.6772461,-0.023742676,0.8805542,-0.0625,0.546875,0.859375
35,-0.6845703,-0.032043457,0.87835693,1.15625,0.484375,1.25
36,-0.6730957,-0.04083252,0.85443115,-0.078125,0.421875,0.703125
37,-0.6821289,-0.016662598,0.8703003,1.484375,0.453125,0.796875
38,-0.7019043,-0.016906738,0.88201904,2.15625,-0.296875,1.40625
39,-0.65600586,-0.038391113,0.84954834,-2.21875,3.046875,-0.671875
40,-0.70214844,-0.022521973,0.8810425,0.578125,-0.890625,0.0
41,-0.7006836,-0.043762207,0.8890991,0.0625,0.9375,-0.953125
42,-0.6748047,-0.042053223,0.88812256,-2.265625,3.328125,-0.609375
43,-0.69018555,-0.035705566,0.9303589,-2.53125,8.640625,0.796875
44,-0.6677246,-0.02154541,0.89227295,-2.609375,8.4375,0.96875
45,-0.6594238,-0.028137207,0.9032593,-2.21875,11.859375,1.46875
46,-0.64404297,-0.02520752,0.8866577,-1.1875,10.234375,1.546875
47,-0.63427734,-0.034729004,0.8859253,-1.203125,7.21875,0.453125
48,-0.63378906,-0.028137207,0.8932495,-0.828125,6.9375,-0.203125
49,-0.62597656,-0.020324707,0.90423584,-1.203125,6.328125,-0.1875
50,-0.6242676,-0.0032348633,0.90545654,-0.703125,4.953125,-0.390625
51,-0.6101074,-0.008850098,0.91156006,-0.609375,4.40625,-0.53125
52,-0.607666,-0.0076293945,0.9032593,-0.578125,3.125,-0.609375
53,-0.5991211,-0.020324707,0.901062,-1.359375,3.703125,-0.78125
54,-0.5932617,-0.010314941,0.89642334,-1.359375,2.703125,-0.546875
55,-0.6176758,-0.02178955,0.94818115,0.390625,2.28125,-0.171875
56,-0.6101074,-0.023254395,0.91937256,-1.4375,1.46875,-1.359375
57,-0.6064453,-0.0044555664,0.91741943,-0.265625,-0.8125,-0.875
58,-0.6118164,0.008483887,0.92474365,1.109375,-2.984375,0.140625
59,-0.6074219,0.001159668,0.9047241,3.90625,-6.1875,1.40625
60,-0.6281738,-0.01739502,0.8842163,4.4375,-11.46875,1.375
61,-0.63012695,-0.028137207,0.88983154,2.890625,-11.109375,1.40625
62,-0.64453125,-0.03643799,0.887146,1.328125,-7.5,0.984375
63,-0.6489258,-0.027648926,0.8768921,0.21875,-4.984375,-0.78125
64,-0.6621094,-0.022277832,0.8722534,0.09375,-4.515625,-0.828125
65,-0.67993164,-0.031066895,0.8908081,0.109375,-3.28125,-0.703125
66,-0.6760254,-0.03643799,0.90057373,1.28125,-1.828125,-0.125
67,-0.6816406,-0.046936035,0.8829956,0.0625,-1.265625,0.4375
68,-0.67871094,-0.04034424,0.8961792,0.328125,-1.09375,0.1875
69,-0.6645508,-0.024475098,0.86883545,-0.609375,0.1875,0.203125
70,-0.66967773,-0.039855957,0.86883545,0.1875,1.34375,0.578125
71,-0.67626953,-0.026916504,0.8617554,-0.171875,0.234375,0.203125
72,-0.68603516,-0.042297363,0.87713623,0.828125,-0.640625,0.21875
73,-0.6972656,-0.05670166,0.8781128,-0.203125,1.390625,0.421875
74,-0.6796875,-0.035461426,0.8617554,-1.5,1.046875,-0.109375
75,-0.6845703,-0.036193848,0.8786011,-0.921875,2.875,-0.359375
76,-0.68969727,-0.054992676,0.9110718,-0.125,8.578125,1.890625
77,-0.6694336,-0.046691895,0.90545654,-0.578125,9.109375,1.84375
78,-0.6430664,-0.049865723,0.9039917,-0.96875,8.234375,2.078125
79,-0.6520996,-0.046203613,0.90008545,-1.8125,9.34375,1.65625
80,-0.6459961,-0.034484863,0.8986206,-2.21875,10.4375,0.25
81,-0.6311035,-0.028625488,0.88739014,-1.28125,7.09375,0.578125
82,-0.62402344,-0.022277832,0.91033936,-1.171875,5.703125,-0.015625
83,-0.6245117,-0.031555176,0.9057007,-0.984375,5.09375,0.359375
84,-0.6159668,-0.03717041,0.91815186,-0.3125,4.234375,-0.28125
85,-0.6152344,-0.045715332,0.91741943,-0.9375,3.6875,0.109375
86,-0.62109375,-0.0256958,0.9376831,-0.9375,2.703125,-0.265625
87,-0.5996094,-0.016662598,0.92840576,-1.203125,4.453125,-0.734375
88,-0.6020508,-0.046936035,0.93621826,-0.984375,3.421875,-0.640625
89,-0.59716797,-0.018859863,0.916687,-2.6875,1.859375,-1.421875
90,-0.595459,-0.0115356445,0.92303467,-1.578125,0.765625,-0.796875
91,-0.59936523,-0.0049438477,0.9269409,-0.578125,-1.0,-0.09375
92,-0.60961914,-0.016174316,0.93621826,1.1875,-3.03125,-0.09375
93,-0.6081543,-0.0256958,0.9035034,1.890625,-4.96875,0.296875
94,-0.61157227,-0.023986816,0.8890991,2.9375,-9.484375,0.765625
95,-0.6237793,-0.023498535,0.87713623,1.796875,-13.859375,0.109375
96,-0.6381836,-0.026672363,0.8746948,1.34375,-12.40625,-0.640625
97,-0.6760254,-0.02935791,0.8998413,-0.609375,-7.546875,-1.515625
98,-0.6616211,-0.02960205,0.88812256,-1.015625,-3.765625,-1.734375
99,-0.6804199,-0.024475098,0.90130615,1.046875,-2.0,-0.125
100,-0.6833496,0.008483887,0.91522217,1.59375,-0.640625,0.5625
101,-0.6809082,-0.05596924,0.88153076,0.5625,-0.75,0.8125
102,-0.6657715,-0.039611816,0.86346436,-0.796875,0.59375,-0.546875
103,-0.66674805,-0.055480957,0.8759155,-0.09375,1.0625,0.453125
104,-0.6652832,-0.018859863,0.8644409,-0.75,0.375,0.21875
105,-0.6882324,-0.034729004,0.88031006,1.4375,-0.28125,-0.09375
106,-0.67700195,-0.051574707,0.8876343,0.171875,1.15625,0.125
107,-0.6755371,-0.0413208,0.88275146,-1.40625,1.140625,-0.15625
108,-0.6838379,-0.03765869,0.8817749,-2.3125,1.796875,-0.625
109,-0.6911621,-0.06011963,0.9086304,-1.390625,5.203125,0.359375
110,-0.66967773,-0.04425049,0.8912964,-1.625,6.46875,0.59375
111,-0.6813965,-0.04083252,0.90667725,-1.03125,8.59375,1.703125
112,-0.6489258,-0.034484863,0.8900757,-0.40625,7.484375,1.109375
113,-0.6435547,-0.045959473,0.9057007,-0.359375,7.140625,0.390625
114,-0.638916,-0.034484863,0.8912964,-0.625,6.703125,0.859375
115,-0.6381836,-0.030578613,0.9059448,-0.40625,6.578125,1.015625
116,-0.63256836,-0.028869629,0.9086304,-0.46875,5.59375,0.65625
117,-0.6242676,-0.04864502,0.90618896,-0.984375,6.203125,0.265625
118,-0.623291,-0.047668457,0.90301514,-1.484375,5.109375,-0.015625
119,-0.61328125,-0.040100098,0.90179443,-1.90625,5.25,-0.78125
120,-0.60791016,-0.024475098,0.8966675,-1.9375,3.984375,-0.5625
121,-0.6088867,-0.027404785,0.93548584,-0.15625,3.171875,-0.390625
122,-0.61035156,-0.04034424,0.9244995,-1.921875,3.09375,-1.46875
123,-0.6032715,-0.02911377,0.9125366,-1.453125,1.75,-1.234375
124,-0.5991211,-0.010070801,0.9242554,-1.390625,1.640625,-0.9375
125,-0.6022949,-0.0005493164,0.9274292,-0.3125,-0.171875,-0.09375
126,-0.6118164,-0.01763916,0.9269409,1.40625,-2.40625,-0.03125
127,-0.6015625,-0.012512207,0.89886475,0.921875,-4.1875,0.265625
128,-0.611084,-0.022766113,0.8746948,1.640625,-9.4375,0.828125
129,-0.61743164,-0.0256958,0.8739624,0.40625,-13.765625,-0.515625
130,-0.6447754,-0.03741455,0.9035034,-0.453125,-9.296875,-1.0625
131,-0.6621094,-0.023010254,0.88861084,-1.34375,-6.15625,-1.109375
132,-0.66796875,-0.008850098,0.89593506,0.78125,-4.671875,-0.765625
133,-0.66381836,-0.02545166,0.9118042,2.078125,-2.671875,0.40625
134,-0.67749023,-0.04058838,0.88739014,-0.25,-1.25,0.328125
135,-0.6682129,-0.026672363,0.8842163,1.125,-1.03125,0.203125
136,-0.68237305,-0.02178955,0.9039917,2.125,-1.90625,0.953125
137,-0.654541,-0.04083252,0.8551636,-1.078125,1.828125,0.46875
138,-0.6801758,-0.02178955,0.8649292,-0.296875,-1.125,0.765625
139,-0.68652344,-0.023010254,0.87786865,1.171875,0.125,0.265625
140,-0.67333984,-0.039367676,0.87957764,0.359375,1.359375,0.25
141,-0.6828613,-0.02520752,0.8759155,-0.078125,0.6875,0.296875
142,-0.6804199,-0.028869629,0.8817749,-0.1875,1.015625,-0.09375
143,-0.6772461,-0.05645752,0.8932495,-1.453125,3.375,-0.234375
144,-0.673584,-0.038146973,0.899353,-1.96875,4.234375,0.3125
145,-0.6784668,-0.04888916,0.9188843,-1.125,6.65625,1.578125
146,-0.6669922,-0.043762207,0.9130249,-2.015625,7.78125,1.4375
147,-0.65112305,-0.0256958,0.8834839,-2.109375,8.296875,1.21875
148,-0.66015625,-0.024230957,0.8937378,-0.796875,7.5,1.125
149,-0.64501953,-0.030090332,0.8805542,-0.65625,6.953125,0.90625
150,-0.63378906,-0.034729004,0.90423584,-0.34375,5.203125,0.3125
151,-0.6298828,-0.031311035,0.8932495,-0.734375,5.296875,0.171875
152,-0.62109375,-0.035461426,0.8954468,-0.328125,4.234375,-0.0625
153,-0.61499023,-0.035705566,0.89105225,-1.25,3.78125,-0.375
154,-0.62109375,-0.022766113,0.9122925,-1.140625,2.828125,-0.1875
155,-0.6123047,-0.0178833,0.93182373,-1.0625,3.34375,-0.6875
156,-0.6201172,-0.041809082,0.92523193,-1.421875,1.625,-0.859375
157,-0.61816406,-0.028137207,0.9071655,-1.734375,1.40625,-1.171875
158,-0.61279297,-0.011047363,0.9113159,-1.109375,0.25,-0.53125
159,-0.6123047,-0.004211426,0.91326904,0.328125,-1.109375,0.140625
160,-0.6196289,-0.01373291,0.9208374,2.4375,-3.0,0.65625
161,-0.61206055,-0.027648926,0.8817749,2.328125,-5.703125,0.8125
162,-0.62353516,-0.04083252,0.8673706,2.609375,-11.9375,0.734375
163,-0.6530762,-0.04498291,0.8966675,0.984375,-9.953125,-0.140625
164,-0.66064453,-0.04083252,0.89178467,-1.1875,-5.703125,-1.078125
165,-0.66552734,-0.0178833,0.88739014,-1.0,-4.046875,-1.265625
166,-0.67700195,-0.0115356445,0.8937378,0.421875,-2.21875,-0.25
167,-0.67211914,-0.028381348,0.9022827,0.53125,-1.046875,0.125
168,-0.67529297,-0.038391113,0.8756714,-0.203125,-0.65625,-0.109375
169,-0.6677246,-0.041809082,0.8710327,0.0,-0.5,-0.21875
170,-0.6689453,-0.04840088,0.8768921,0.421875,0.65625,-0.078125
171,-0.68847656,-0.025939941,0.8973999,0.875,-0.625,1.21875
172,-0.6591797,-0.028381348,0.85369873,-2.0625,2.546875,-0.1875
173,-0.6850586,-0.028381348,0.8876343,0.234375,-0.296875,0.09375
174,-0.68725586,-0.05279541,0.8991089,0.171875,1.5625,-0.578125
175,-0.67529297,-0.046691895,0.8817749,-2.109375,3.0625,-0.5
176,-0.6779785,-0.014709473,0.88494873,-1.34375,2.390625,0.15625
177,-0.67456055,-0.035705566,0.9003296,0.25,3.796875,0.78125
178,-0.65966797,-0.051330566,0.8864136,-0.796875,4.0625,1.15625
179,-0.6611328,-0.035949707,0.8915405,-1.65625,4.8125,0.765625
180,-0.6520996,-0.03765869,0.89520264,-1.46875,6.765625,0.578125
181,-0.65234375,-0.035461426,0.90179443,-1.46875,7.3125,0.53125
182,-0.6435547,-0.01739502,0.8903198,-1.5625,5.75,0.515625
183,-0.63842773,-0.016418457,0.8998413,-0.625,4.875,0.484375
184,-0.6386719,-0.032287598,0.8908081,-0.65625,4.96875,0.171875
185,-0.62475586,-0.031311035,0.8973999,-0.546875,4.28125,0.015625
186,-0.6188965,-0.029846191,0.9008179,-0.546875,3.34375,-0.109375
187,-0.625,-0.022766113,0.9071655,-0.78125,2.84375,0.203125
188,-0.62646484,-0.022277832,0.91741943,-0.53125,2.578125,-0.203125
189,-0.6191406,-0.031311035,0.8883667,-2.0,3.203125,-0.875
190,-0.6159668,-0.008605957,0.89276123,-1.46875,1.3125,-0.40625
191,-0.61938477,-0.023498535,0.9406128,-0.0625,1.375,-0.4375
192,-0.6213379,-0.046447754,0.9100952,-2.234375,1.34375,-1.046875
193,-0.6184082,-0.0178833,0.9086304,-1.53125,0.953125,-0.9375
194,-0.61865234,0.002380371,0.9110718,-0.4375,-1.265625,-0.59375
195,-0.62646484,0.006286621,0.9137573,1.203125,-2.8125,0.203125
196,-0.6237793,-0.010314941,0.899353,3.234375,-6.203125,1.234375
197,-0.61572266,-0.032287598,0.8744507,2.78125,-9.015625,1.34375
198,-0.65063477,-0.040100098,0.8912964,1.8125,-7.53125,0.953125
199,-0.654541,-0.04449463,0.89105225,0.546875,-4.828125,0.0
200,-0.67089844,-0.039123535,0.8915405,-0.984375,-3.75,-0.421875
201,-0.6640625,-0.0076293945,0.89593506,-1.21875,-2.859375,-0.84375
202,-0.67285156,-0.010803223,0.90057373,0.15625,-2.09375,-0.109375
203,-0.68481445,-0.030578613,0.8851929,-0.25,-0.71875,0.0
204,-0.67041016,-0.028381348,0.8800659,0.171875,-0.859375,-0.171875
205,-0.66796875,-0.035705566,0.8720093,0.140625,0.0,-0.03125
206,-0.6647949,-0.04449463,0.88031006,0.359375,0.640625,0.296875
207,-0.67163086,-0.042785645,0.8563843,-1.25,0.625,0.03125
208,-0.6826172,-0.026916504,0.8878784,-0.109375,0.390625,1.046875
209,-0.6726074,-0.016174316,0.86639404,-1.546875,1.375,-0.421875
210,-0.6882324,-0.034729004,0.883728,0.0,0.125,-0.421875
211,-0.6791992,-0.054992676,0.8915405,-2.25,3.828125,-1.21875
212,-0.6672363,-0.030578613,0.8810425,-3.46875,3.6875,-0.5625
213,-0.670166,-0.022766113,0.90179443,-1.5625,4.953125,0.625
214,-0.6699219,-0.026184082,0.90838623,-0.84375,6.59375,1.125
215,-0.65405273,-0.031555176,0.8817749,-1.375,6.515625,0.671875
216,-0.64941406,-0.028625488,0.8908081,-0.15625,4.53125,0.46875
217,-0.64990234,-0.038146973,0.9130249,-0.078125,4.875,0.28125
218,-0.6381836,-0.026916504,0.89105225,-1.328125,4.53125,0.0
219,-0.6401367,-0.00982666,0.8986206,-0.921875,3.671875,0.34375
220,-0.6452637,-0.011291504,0.8930054,-0.296875,3.390625,0.125
221,-0.63500977,-0.018615723,0.90496826,0.28125,3.515625,0.125
222,-0.63623047,-0.03717041,0.9069214,-0.3125,3.0625,-0.296875
223,-0.6245117,-0.016174316,0.90448,-0.171875,2.015625,-0.4375
224,-0.626709,-0.034484863,0.9071655,-0.046875,1.375,-0.421875
225,-0.63183594,-0.018127441,0.9100952,-0.8125,1.09375,-0.546875
226,-0.62475586,-0.0134887695,0.9052124,-0.203125,0.59375,-0.515625
227,-0.63842773,0.0048217773,0.9179077,1.03125,-2.734375,-0.171875
228,-0.6281738,-0.009338379,0.883728,1.59375,-2.46875,0.6875
229,-0.6381836,-0.020568848,0.87493896,2.890625,-7.765625,1.484375
230,-0.65063477,-0.03375244,0.87493896,3.28125,-10.5625,0.96875
231,-0.6633301,-0.044006348,0.887146,0.28125,-6.0,0.140625
232,-0.6660156,-0.02130127,0.87542725,-1.09375,-3.40625,-0.46875
233,-0.6767578,-0.023742676,0.87664795,-0.109375,-2.1875,-0.65625
234,-0.6801758,-0.039367676,0.89178467,0.046875,0.0,-0.21875
235,-0.67041016,-0.03253174,0.871521,-1.203125,0.6875,-0.125
236,-0.6821289,-0.03668213,0.8739624,-0.203125,-0.1875,0.09375
237,-0.66552734,-0.051330566,0.88275146,0.234375,0.703125,0.28125
238,-0.67407227,-0.039611816,0.88690186,-0.640625,0.609375,0.375
239,-0.6723633,-0.023742676,0.8739624,-0.328125,0.53125,0.515625
240,-0.6711426,-0.027893066,0.8727417,0.515625,1.234375,0.375
241,-0.6711426,-0.040100098,0.87786865,0.25,0.890625,0.5
242,-0.68896484,-0.042541504,0.87420654,-0.15625,0.96875,0.421875
243,-0.67626953,-0.042785645,0.88739014,-0.828125,1.40625,-0.453125
244,-0.6743164,-0.04107666,0.871521,-1.09375,1.125,-0.34375
245,-0.67456055,-0.034973145,0.87615967,-1.390625,1.828125,-0.40625
246,-0.6772461,-0.04888916,0.9047241,-0.953125,4.5625,0.5
247,-0.67749023,-0.045715332,0.9015503,-1.640625,4.359375,0.9375
248,-0.6501465,-0.021057129,0.8900757,-2.890625,8.609375,0.046875
249,-0.68066406,-0.03326416,0.9047241,-0.09375,5.96875,0.640625
250,-0.65185547,-0.04888916,0.8866577,-0.953125,6.65625,-0.59375
251,-0.6347656,-0.025939941,0.88323975,-1.0625,5.34375,0.4375
252,-0.64624023,-0.011291504,0.8915405,-0.53125,4.59375,0.484375
253,-0.63793945,-0.022033691,0.8966675,-0.296875,4.984375,-0.21875
254,-0.6359863,-0.028869629,0.89886475,-0.28125,4.375,0.171875
255,-0.6220703,-0.027404785,0.9071655,-0.828125,3.046875,-0.078125
256,-0.6281738,-0.027893066,0.9147339,-0.5,2.921875,0.15625
257,-0.6230469,-0.030090332,0.90618896,-0.6875,2.703125,-0.265625
258,-0.6171875,-0.022033691,0.9105835,-0.828125,1.921875,-0.078125
259,-0.6320801,-0.018615723,0.9071655,-0.234375,1.03125,-0.171875
260,-0.6257324,-0.024963379,0.9057007,-0.46875,1.5,-0.078125
261,-0.62060547,-0.015686035,0.90838623,-0.453125,0.5,-0.28125
262,-0.6164551,-0.0115356445,0.9125366,0.34375,-2.046875,-0.265625
263,-0.62475586,-0.014465332,0.90301514,1.125,-2.71875,0.265625
264,-0.6254883,-0.01763916,0.8793335,1.625,-5.71875,0.578125
265,-0.6147461,-0.026184082,0.86346436,2.296875,-8.96875,0.34375
266,-0.6520996,-0.05279541,0.8920288,2.265625,-8.46875,1.453125
267,-0.65112305,-0.038146973,0.883728,-0.65625,-4.421875,-0.203125
268,-0.6791992,-0.04034424,0.887146,-1.375,-3.421875,-1.125
269,-0.67163086,-0.026916504,0.89227295,-1.046875,-1.296875,-1.234375
270,-0.6677246,-0.019836426,0.8895874,-0.9375,-0.546875,-0.46875
271,-0.6706543,-0.02130127,0.88275146,-0.765625,-0.5625,-0.28125
272,-0.6838379,-0.028381348,0.89276123,0.203125,-0.59375,0.390625
273,-0.6677246,-0.04498291,0.87615967,-1.046875,0.6875,-0.109375
274,-0.66308594,-0.03326416,0.87957764,-1.375,0.828125,0.375
275,-0.671875,-0.028625488,0.86932373,-0.703125,0.5625,1.09375
276,-0.67333984,-0.023986816,0.8722534,-1.109375,1.546875,0.546875
277,-0.6730957,-0.022521973,0.87420654,-0.8125,0.8125,0.125
278,-0.68188477,-0.01763916,0.8798218,-0.25,0.953125,0.265625
279,-0.6828613,-0.03717041,0.87615967,-0.453125,1.375,0.125
280,-0.6723633,-0.036193848,0.8883667,-1.890625,2.453125,-0.703125
281,-0.6713867,-0.04058838,0.8973999,-2.203125,3.015625,-0.703125
282,-0.6645508,-0.019348145,0.8978882,-2.15625,3.640625,-0.234375
283,-0.66625977,-0.012756348,0.8969116,-1.3125,4.71875,0.53125
284,-0.6591797,-0.031555176,0.89276123,-1.65625,6.84375,0.609375
285,-0.64624023,-0.030090332,0.8685913,-2.203125,6.28125,0.59375
286,-0.65063477,-0.00030517578,0.90618896,-0.78125,4.296875,-0.078125
287,-0.6582031,-0.030334473,0.9039917,-0.921875,5.984375,-0.21875
288,-0.6401367,-0.022766113,0.8810425,-1.53125,5.328125,-0.046875
289,-0.63427734,0.007019043,0.8966675,-0.90625,3.734375,0.03125
290,-0.6357422,0.002380371,0.90057373,-0.15625,3.9375,-0.03125
291,-0.6369629,-0.020324707,0.920105,0.59375,3.421875,-0.25
292,-0.62158203,-0.014953613,0.90618896,-0.65625,3.03125,-0.484375
293,-0.6203613,-0.014221191,0.9171753,-0.234375,1.90625,0.015625
294,-0.6154785,-0.015930176,0.91082764,0.015625,2.203125,0.015625
295,-0.6220703,-0.016906738,0.9122925,0.0,1.90625,-0.21875
296,-0.6191406,-0.0029907227,0.91741943,-0.296875,0.765625,-0.109375
297,-0.62890625,-0.0025024414,0.90740967,0.71875,-0.859375,0.203125
298,-0.61987305,0.0021362305,0.8986206,1.59375,-2.265625,0.40625
299,-0.6220703,-0.013244629,0.8942261,1.796875,-4.421875,0.859375
300,-0.6335449,-0.018615723,0.871521,1.875,-8.109375,1.203125
301,-0.6435547,-0.026916504,0.88494873,1.828125,-9.0625,1.015625
302,-0.65405273,-0.022766113,0.8744507,0.609375,-4.96875,0.15625
303,-0.6867676,-0.035949707,0.89837646,0.296875,-4.34375,0.375
304,-0.66015625,-0.014709473,0.86346436,-1.96875,-0.71875,-1.140625
305,-0.6789551,-0.023986816,0.8998413,0.59375,-2.359375,-0.3125
306,-0.67211914,-0.03717041,0.9015503,0.625,-0.609375,-0.078125
307,-0.6699219,-0.03692627,0.8817749,-0.96875,0.0,0.109375
308,-0.6699219,-0.020812988,0.87005615,-0.5625,-0.328125,0.359375
309,-0.6723633,-0.018127441,0.87835693,0.96875,0.671875,0.765625
310,-0.67041016,-0.0491333,0.8744507,0.578125,0.671875,1.109375
311,-0.6801758,-0.028869629,0.8690796,-0.8125,0.8125,0.5625
312,-0.68408203,-0.022766113,0.8800659,-0.3125,0.953125,0.1875
313,-0.67407227,-0.0335083,0.8707886,-0.5625,1.3125,-0.375
314,-0.67163086,-0.034729004,0.87908936,-0.6875,1.109375,-0.5
315,-0.67871094,-0.03692627,0.89837646,-1.546875,2.140625,-0.328125
316,-0.6723633,-0.04449463,0.8942261,-2.671875,3.953125,-0.078125
317,-0.66503906,-0.03253174,0.89349365,-3.390625,5.328125,-0.484375
318,-0.66064453,-0.010314941,0.8937378,-2.9375,5.3125,-0.265625
319,-0.6687012,-0.010314941,0.89056396,-1.34375,5.546875,0.40625
320,-0.6633301,-0.03741455,0.8915405,-0.640625,4.046875,0.171875
321,-0.65966797,-0.02545166,0.8969116,-0.6875,3.546875,-0.328125
322,-0.6582031,-0.014953613,0.92108154,-0.625,3.046875,-0.09375
323,-0.6245117,-0.0020141602,0.88275146,-1.5,5.125,-0.71875
324,-0.6477051,-0.020324707,0.9215698,-0.1875,2.890625,0.046875
325,-0.64453125,-0.010559082,0.8969116,-1.625,3.609375,-1.015625
326,-0.6333008,-0.0010375977,0.8978882,-1.15625,2.890625,-0.46875
327,-0.6364746,0.007751465,0.9047241,-0.484375,1.796875,-0.234375
328,-0.62890625,-0.013977051,0.9008179,-0.09375,2.078125,-0.140625
329,-0.6315918,-0.018127441,0.90130615,0.328125,1.28125,-0.125
330,-0.63183594,0.0038452148,0.901062,-0.484375,0.390625,-0.078125
331,-0.6364746,-0.003479004,0.9100952,0.875,-1.671875,0.359375
332,-0.62939453,-0.00030517578,0.8883667,2.421875,-2.96875,1.15625
333,-0.63964844,-0.010314941,0.8759155,2.765625,-5.0625,1.734375
334,-0.6413574,-0.023742676,0.8847046,3.671875,-7.96875,2.375
335,-0.657959,-0.038391113,0.8864136,2.34375,-3.59375,0.921875
336,-0.6621094,-0.042541504,0.8812866,0.484375,-1.8125,-0.140625
337,-0.6789551,-0.018859863,0.88446045,-0.53125,-1.765625,-0.34375
338,-0.6652832,-0.008850098,0.8829956,0.296875,-1.78125,-0.03125
339,-0.66967773,-0.018615723,0.8961792,1.34375,-1.859375,0.234375
340,-0.6743164,-0.019104004,0.8864136,-0.09375,-1.40625,0.046875
341,-0.65185547,-0.04058838,0.86590576,-0.578125,0.546875,0.421875
342,-0.6645508,-0.035461426,0.8637085,-0.921875,-0.3125,-0.234375
343,-0.68408203,-0.04888916,0.8727417,0.078125,-0.328125,-0.125
344,-0.6821289,-0.04449463,0.883728,-0.203125,1.640625,0.59375
345,-0.6784668,-0.030334473,0.8678589,-0.9375,0.421875,0.34375
346,-0.6887207,-0.01739502,0.8722534,0.03125,1.28125,0.140625
347,-0.6813965,-0.03302002,0.885437,0.390625,1.34375,0.234375
348,-0.67211914,-0.053771973,0.8961792,-2.546875,3.125,-0.421875
349,-0.6730957,-0.0491333,0.90301514,-4.109375,4.5,-0.65625
350,-0.66918945,-0.021057129,0.8954468,-3.125,3.765625,-0.484375
351,-0.6550293,-0.010070801,0.8842163,-2.390625,2.96875,-0.1875
352,-0.66674805,-0.013244629,0.89764404,-1.71875,3.984375,-0.046875
353,-0.6623535,-0.028625488,0.8998413,-0.9375,6.109375,0.59375
354,-0.65112305,-0.020324707,0.8773804,-1.0625,5.15625,0.5
355,-0.6479492,-0.01739502,0.8847046,-0.96875,3.796875,0.03125
356,-0.64819336,-0.01739502,0.899353,-0.46875,3.828125,-0.140625
357,-0.6472168,-0.011291504,0.88739014,-0.703125,4.15625,-0.28125
358,-0.63549805,-0.008850098,0.8991089,-0.734375,2.875,-0.1875
359,-0.6328125,-0.020568848,0.883728,-1.25,2.96875,-0.546875
360,-0.6364746,-0.010803223,0.89520264,-0.796875,1.8125,-0.4375
361,-0.6386719,-0.016418457,0.914978,-0.640625,3.078125,-0.59375
362,-0.63916016,-0.030334473,0.91082764,-1.5625,2.078125,-0.78125
363,-0.6333008,-0.005432129,0.8981323,-1.59375,2.0,-1.0625
364,-0.63061523,0.011169434,0.9020386,-0.453125,-0.125,-0.28125
365,-0.63720703,0.018493652,0.9039917,1.53125,-2.09375,0.71875
366,-0.6308594,-0.005432129,0.89178467,2.515625,-3.765625,1.15625
367,-0.63720703,-0.02130127,0.8751831,3.4375,-7.171875,1.6875
368,-0.6472168,-0.030578613,0.8822632,2.15625,-6.96875,1.703125
369,-0.65771484,-0.030578613,0.8746948,0.984375,-4.5625,0.578125
370,-0.670166,-0.026184082,0.8822632,-0.03125,-2.65625,-0.21875
371,-0.6743164,-0.014709473,0.88201904,-0.84375,-1.703125,0.03125
372,-0.67700195,-0.010070801,0.8851929,-0.046875,-1.09375,0.4375
373,-0.6826172,-0.02545166,0.8969116,0.859375,-0.1875,0.328125
374,-0.6694336,-0.038635254,0.88494873,0.359375,0.0,0.453125
375,-0.6777344,-0.039123535,0.8776245,0.359375,0.046875,0.28125
376,-0.6711426,-0.0335083,0.8764038,0.296875,0.40625,0.640625
377,-0.6748047,-0.031555176,0.8612671,0.0625,1.046875,1.015625
378,-0.67700195,-0.024719238,0.87542725,0.734375,1.171875,0.671875
379,-0.6838379,-0.020080566,0.8956909,1.75,-0.1875,0.828125
380,-0.6652832,-0.04107666,0.868103,-0.234375,1.78125,0.015625
381,-0.6894531,-0.031555176,0.88153076,0.328125,-0.125,0.1875
382,-0.67578125,-0.051818848,0.8915405,0.03125,1.328125,-0.6875
383,-0.66015625,-0.05596924,0.89349365,-2.6875,2.46875,-0.578125
384,-0.6669922,-0.02911377,0.885437,-4.75,2.59375,-0.640625
385,-0.6682129,-0.022766113,0.883728,-3.578125,4.15625,-0.609375
386,-0.67822266,-0.015686035,0.8961792,-2.46875,5.59375,-0.203125
387,-0.66259766,-0.01763916,0.8903198,-2.34375,5.359375,-0.015625
388,-0.66552734,-0.015197754,0.8883667,-1.046875,3.984375,-0.09375
389,-0.6503906,-0.0256958,0.88861084,-0.46875,3.640625,-0.375
390,-0.64941406,-0.027893066,0.8895874,-1.03125,3.734375,0.109375
391,-0.6508789,-0.0010375977,0.88739014,-0.890625,2.390625,0.234375
392,-0.65234375,-0.0056762695,0.89642334,-0.625,3.53125,0.03125
393,-0.6491699,-0.0134887695,0.89398193,-0.765625,3.65625,-0.015625
394,-0.63305664,-0.018371582,0.90496826,-0.609375,2.9375,-0.328125
395,-0.64208984,-0.020324707,0.9088745,-0.546875,2.578125,-0.140625
396,-0.63671875,-0.01373291,0.90618896,-0.515625,2.015625,-0.171875
397,-0.63793945,-0.0051879883,0.9039917,-0.4375,1.1875,-0.1875
398,-0.6315918,-0.011047363,0.9022827,-0.296875,-0.03125,-0.40625
399,-0.63378906,0.0018920898,0.9215698,-0.46875,-0.921875,-0.46875
400,-0.6220703,0.00091552734,0.88031006,0.203125,-0.796875,-0.234375
401,-0.638916,-0.023742676,0.8878784,2.265625,-3.921875,0.875
402,-0.6477051,-0.027404785,0.8751831,2.34375,-6.25,0.921875
403,-0.6555176,-0.025939941,0.89276123,3.359375,-6.53125,1.703125
404,-0.6628418,-0.02154541,0.8883667,1.5,-3.65625,1.53125
405,-0.6699219,-0.016906738,0.86395264,0.53125,-2.328125,0.28125
406,-0.6791992,-0.023254395,0.88446045,0.703125,-1.765625,-0.09375
407,-0.67529297,-0.023742676,0.8866577,0.265625,-0.109375,0.171875
408,-0.67456055,-0.030578613,0.8800659,-0.109375,-0.15625,0.40625
409,-0.67749023,-0.04083252,0.87908936,0.03125,-0.0625,0.1875
410,-0.66748047,-0.0413208,0.87542725,0.5625,0.484375,0.125
411,-0.66552734,-0.038146973,0.8834839,0.765625,0.890625,0.3125
412,-0.6723633,-0.033996582,0.8764038,0.15625,1.171875,0.9375
413,-0.67211914,-0.035705566,0.871521,-0.21875,0.8125,0.703125
414,-0.6743164,-0.03717041,0.87835693,-0.703125,0.984375,0.171875
415,-0.68530273,-0.0335083,0.87957764,-0.609375,1.078125,0.03125
416,-0.67871094,-0.03668213,0.8864136,-0.671875,0.75,-0.390625
417,-0.67529297,-0.040100098,0.88153076,-1.265625,1.5,-0.375
418,-0.6713867,-0.034240723,0.89642334,-1.875,2.453125,-0.71875
419,-0.6640625,-0.043029785,0.8859253,-2.578125,3.3125,-0.6875
420,-0.66137695,-0.038391113,0.8937378,-2.65625,6.296875,0.390625
421,-0.67163086,-0.013977051,0.8954468,-1.75,5.046875,0.625
422,-0.6608887,-0.039123535,0.8903198,-0.921875,5.09375,-0.28125
423,-0.6442871,-0.034729004,0.8812866,-1.828125,4.75,-0.546875
424,-0.6513672,-0.010559082,0.8915405,-1.09375,3.015625,0.15625
425,-0.6538086,-0.013977051,0.8969116,-0.734375,3.578125,0.546875
426,-0.6452637,-0.018859863,0.90130615,-0.59375,3.890625,0.09375
427,-0.6364746,-0.023498535,0.88934326,-1.390625,3.828125,-0.484375
428,-0.642334,-0.023010254,0.90838623,-1.0,2.8125,-0.078125
429,-0.6411133,-0.020812988,0.90448,-1.015625,2.765625,-0.40625
430,-0.6328125,-0.018127441,0.899353,-1.140625,2.4375,-0.5
431,-0.6345215,-0.0032348633,0.90301514,-1.109375,1.03125,-0.546875
432,-0.64160156,-0.004211426,0.9057007,-1.1875,0.140625,-0.515625
433,-0.63012695,-0.0071411133,0.8932495,-1.015625,-0.296875,-0.671875
434,-0.6364746,-0.0068969727,0.9105835,-0.3125,-1.296875,-0.765625
435,-0.64331055,-0.0076293945,0.89593506,0.34375,-1.09375,0.015625
436,-0.6269531,-0.0049438477,0.88275146,1.578125,-2.625,0.578125
437,-0.6413574,-0.014953613,0.8776245,3.453125,-5.078125,1.6875
438,-0.6657715,-0.02130127,0.90960693,3.765625,-5.09375,2.140625
439,-0.6398926,-0.02960205,0.85931396,-0.21875,-0.734375,0.5
440,-0.6640625,-0.018127441,0.8810425,0.28125,-3.71875,-0.265625
441,-0.68188477,-0.023986816,0.89178467,0.0,-1.296875,-1.03125
442,-0.66259766,-0.022766113,0.89178467,-0.5,0.203125,-0.625
443,-0.6694336,-0.009338379,0.8781128,0.03125,-0.5,-0.0625
444,-0.6616211,-0.026428223,0.88446045,1.34375,-0.28125,0.25
445,-0.6616211,-0.055236816,0.8915405,1.46875,-0.1875,0.703125
446,-0.6665039,-0.03692627,0.87249756,-0.296875,0.53125,0.59375
447,-0.6730957,-0.029846191,0.87298584,-0.015625,0.578125,0.796875
448,-0.6652832,-0.023498535,0.87664795,0.953125,1.0,0.984375
449,-0.67944336,-0.027160645,0.8851929,0.046875,0.84375,0.59375
450,-0.67822266,-0.027404785,0.87542725,0.265625,0.9375,-0.078125
451,-0.68115234,-0.04083252,0.88079834,0.09375,1.765625,-0.28125
452,-0.66967773,-0.04498291,0.8829956,-1.140625,2.3125,-0.40625
453,-0.6711426,-0.04473877,0.90130615,-1.96875,3.21875,-0.140625
454,-0.66845703,-0.03277588,0.90374756,-2.734375,3.859375,0.375
455,-0.66015625,-0.014953613,0.8810425,-3.390625,3.828125,-0.125
456,-0.66381836,-0.0115356445,0.90448,-1.5625,3.90625,-0.15625
457,-0.6538086,-0.021057129,0.87908936,-2.53125,4.421875,-0.703125
458,-0.63500977,-0.023010254,0.87615967,-2.9375,5.3125,0.09375
459,-0.642334,-0.013244629,0.902771,-1.078125,3.046875,-0.15625
460,-0.6435547,-0.026184082,0.88739014,-1.8125,3.171875,-0.796875
461,-0.63549805,-0.020568848,0.89715576,-1.78125,3.546875,-0.390625
462,-0.6435547,0.004333496,0.9081421,-1.46875,2.796875,-0.03125
463,-0.63720703,-0.0056762695,0.90179443,-0.5625,2.734375,-0.015625
464,-0.63623047,-0.022277832,0.91986084,-0.21875,2.265625,-0.28125
465,-0.63427734,-0.016906738,0.8969116,-1.078125,2.078125,-0.671875
466,-0.6364746,-0.006652832,0.9105835,-0.390625,0.5625,-0.1875
467,-0.6347656,-0.006652832,0.9022827,-0.0625,0.34375,-0.078125
468,-0.6298828,-0.0049438477,0.8981323,0.75,-0.671875,0.15625
469,-0.62841797,0.0038452148,0.88616943,1.96875,-2.890625,1.265625
470,-0.6359863,-0.0134887695,0.88031006,2.875,-5.421875,1.8125
471,-0.64501953,-0.021057129,0.8851929,3.03125,-5.65625,2.140625
472,-0.6538086,-0.026672363,0.8930054,1.671875,-3.734375,1.15625
473,-0.67211914,-0.026916504,0.8695679,0.703125,-2.921875,0.5625
474,-0.6682129,-0.016418457,0.87713623,0.359375,-2.5,-0.171875
475,-0.670166,-0.030334473,0.8678589,-0.90625,-0.234375,-0.8125
476,-0.6726074,-0.023254395,0.89349365,-0.078125,-1.515625,0.109375
477,-0.6542969,-0.018127441,0.87615967,-0.28125,0.25,-0.6875
478,-0.6730957,-0.045959473,0.89349365,1.21875,-0.875,0.3125
479,-0.671875,-0.047912598,0.88739014,0.671875,0.40625,0.34375
480,-0.6608887,-0.02960205,0.8722534,-0.140625,0.484375,0.546875
481,-0.6767578,-0.012023926,0.87054443,1.1875,-0.171875,1.015625
482,-0.68774414,-0.024719238,0.88275146,2.796875,0.796875,1.3125
483,-0.68530273,-0.06060791,0.87127686,1.390625,0.546875,0.375
484,-0.68188477,-0.0413208,0.8847046,-0.34375,1.09375,0.1875
485,-0.68237305,-0.041809082,0.88201904,-0.484375,0.921875,-0.171875
486,-0.6765137,-0.03668213,0.87542725,-0.53125,0.96875,-0.265625
487,-0.67211914,-0.047180176,0.89959717,-1.03125,2.078125,-0.03125
488,-0.6772461,-0.05987549,0.8956909,-3.0,3.75,0.15625
489,-0.67163086,-0.034484863,0.89349365,-4.484375,5.171875,-0.3125
490,-0.6689453,-0.012512207,0.8720093,-3.90625,3.90625,-0.671875
491,-0.6706543,-0.014953613,0.88812256,-1.984375,3.609375,-0.203125
492,-0.6621094,-0.02154541,0.8930054,-0.953125,3.21875,0.171875
493,-0.66674805,-0.034484863,0.901062,-0.59375,3.09375,-0.09375
494,-0.6455078,-0.024963379,0.88446045,-1.796875,2.921875,-0.28125
495,-0.6315918,-0.020812988,0.86517334,-3.140625,4.046875,-0.484375
496,-0.65478516,-0.012756348,0.90960693,-0.59375,1.96875,-0.296875
497,-0.6516113,-0.017150879,0.8876343,-1.796875,3.171875,-0.796875
498,-0.6418457,-0.009094238,0.8932495,-1.8125,3.109375,-0.703125
499,-0.6508789,0.0014038086,0.89837646,-1.265625,1.375,-0.515625
500,-0.6401367,-0.014465332,0.9059448,-0.359375,1.6875,-0.703125
501,-0.642334,-0.012023926,0.90789795,-0.65625,1.40625,-0.296875
502,-0.63500977,-0.014953613,0.8908081,-1.71875,1.765625,-0.5625
503,-0.6411133,-0.003967285,0.89593506,-0.1875,-0.140625,-0.015625
504,-0.65063477,0.007751465,0.8944702,1.484375,-2.046875,0.390625
505,-0.6464844,-0.0020141602,0.87249756,2.71875,-2.328125,1.171875
506,-0.65063477,-0.011047363,0.8764038,4.734375,-4.5625,2.34375
507,-0.6574707,-0.030822754,0.88153076,5.1875,-4.6875,2.46875
508,-0.6665039,-0.051330566,0.87298584,3.203125,-2.609375,1.53125
509,-0.6611328,-0.035461426,0.8805542,1.03125,-1.609375,0.3125
510,-0.6755371,-0.022277832,0.8800659,-0.46875,-1.28125,-0.21875
511,-0.6801758,-0.018859863,0.8776245,0.046875,-1.140625,-0.234375
512,-0.65893555,-0.02911377,0.8668823,-0.53125,0.265625,-0.6875
513,-0.66503906,-0.046447754,0.89178467,0.515625,0.375,0.46875
514,-0.6687012,-0.04425049,0.8720093,-1.046875,-0.109375,-0.15625
515,-0.6826172,-0.04815674,0.87713623,0.328125,-0.375,-0.15625
516,-0.6694336,-0.04449463,0.87957764,0.390625,1.03125,0.0
517,-0.6647949,-0.023986816,0.8666382,-0.453125,0.828125,0.515625
518,-0.67749023,-0.018371582,0.87127686,0.234375,0.40625,0.890625
519,-0.6791992,-0.031311035,0.88739014,0.703125,0.71875,0.53125
520,-0.67529297,-0.061340332,0.87835693,-1.390625,1.46875,-0.21875
521,-0.6767578,-0.051086426,0.8956909,-2.640625,2.84375,-0.75
522,-0.68969727,-0.042297363,0.9057007,-0.828125,4.109375,0.71875
523,-0.66552734,-0.043029785,0.92840576,-0.84375,8.109375,1.25
524,-0.64941406,-0.028381348,0.8847046,-1.796875,6.203125,1.125
525,-0.6550293,-0.03253174,0.88616943,-1.390625,4.859375,0.515625
526,-0.6604004,-0.0335083,0.8915405,-1.859375,5.015625,0.078125
527,-0.6501465,-0.039855957,0.8966675,-1.671875,4.859375,-0.125
528,-0.6442871,-0.023010254,0.8851929,-1.71875,4.359375,-0.046875
529,-0.63916016,-0.026428223,0.89837646,-0.859375,3.015625,0.203125
530,-0.6459961,-0.04107666,0.8978882,-1.0,3.203125,-0.0625
531,-0.6425781,-0.026428223,0.9122925,-1.625,2.625,-0.328125
532,-0.63012695,-0.012023926,0.9057007,-2.046875,3.765625,-0.78125
533,-0.6328125,-0.03302002,0.9281616,-1.234375,2.25,-0.59375
534,-0.6237793,-0.02545166,0.9008179,-2.359375,2.171875,-1.046875
535,-0.62280273,-0.014465332,0.91082764,-2.140625,1.53125,-0.59375
536,-0.62475586,0.008239746,0.9032593,-1.15625,0.3125,-0.40625
537,-0.6279297,-0.003479004,0.8998413,0.453125,-1.4375,-0.25
538,-0.6225586,-0.008850098,0.89056396,1.921875,-3.625,0.3125
539,-0.63256836,-0.011779785,0.8744507,2.359375,-6.40625,0.796875
540,-0.64404297,-0.027648926,0.87908936,4.96875,-9.25,1.234375
541,-0.654541,-0.054016113,0.899353,2.453125,-5.3125,0.546875
542,-0.6550293,-0.0335083,0.88568115,-0.453125,-2.9375,-0.234375
543,-0.66748047,-0.0178833,0.885437,-0.671875,-2.828125,-0.984375
544,-0.6801758,-0.019836426,0.8998413,-0.328125,-1.75,-0.671875
545,-0.6765137,-0.032287598,0.8966675,-0.078125,-0.53125,0.25
546,-0.6711426,-0.03326416,0.8786011,-0.546875,0.578125,-0.125
547,-0.6687012,-0.040100098,0.8710327,-0.234375,0.078125,-0.15625
548,-0.66259766,-0.043762207,0.8744507,-0.40625,0.84375,0.09375
549,-0.67822266,-0.028869629,0.901062,0.34375,-0.21875,0.75
550,-0.65722656,-0.028137207,0.8595581,-1.3125,2.46875,0.0625
551,-0.68481445,-0.019592285,0.88275146,0.46875,-0.328125,0.4375
552,-0.6882324,-0.039123535,0.89837646,0.46875,1.671875,-0.09375
553,-0.670166,-0.038391113,0.8851929,-1.90625,1.8125,-0.421875
554,-0.6738281,-0.022277832,0.8883667,-2.296875,2.125,-0.484375
555,-0.65771484,-0.03643799,0.8912964,-1.984375,3.359375,-0.375
556,-0.6689453,-0.03741455,0.9032593,-1.875,3.53125,0.078125
557,-0.66845703,-0.011047363,0.8883667,-2.921875,4.09375,-0.046875
558,-0.6652832,-0.024230957,0.88983154,-1.34375,3.84375,0.203125
559,-0.65649414,-0.021057129,0.90423584,-0.859375,4.171875,-0.078125
560,-0.65063477,-0.020080566,0.887146,-1.875,3.75,-0.140625
561,-0.65234375,-0.0005493164,0.8822632,-1.46875,2.71875,-0.140625
562,-0.65771484,-0.003967285,0.89715576,-0.6875,2.921875,0.234375
563,-0.6496582,-0.021057129,0.89056396,-0.953125,3.109375,-0.125
564,-0.64746094,-0.01373291,0.90179443,-0.875,2.390625,-0.328125
565,-0.63549805,-0.015930176,0.8961792,-0.625,3.15625,-0.03125
566,-0.6452637,-0.01739502,0.9015503,-0.640625,2.890625,-0.21875
567,-0.62353516,-0.014221191,0.88494873,-1.421875,3.21875,-0.484375
568,-0.63061523,0.0048217773,0.8954468,-1.03125,2.34375,0.0625
569,-0.6311035,-0.00030517578,0.91937256,-0.296875,2.140625,-0.296875
570,-0.64160156,-0.015930176,0.9059448,-0.953125,0.546875,-0.734375
571,-0.6308594,0.0006713867,0.8956909,-0.03125,-1.046875,-0.28125
572,-0.63134766,0.019470215,0.8942261,1.8125,-2.375,0.703125
573,-0.6347656,-0.0017700195,0.8825073,3.078125,-4.453125,1.75
574,-0.65185547,-0.021057129,0.8878784,4.875,-6.828125,2.140625
575,-0.6484375,-0.038879395,0.8890991,2.625,-4.546875,1.546875
576,-0.65283203,-0.024719238,0.86834717,-0.296875,-3.109375,0.203125
577,-0.6809082,-0.02178955,0.88079834,0.296875,-2.484375,-0.578125
578,-0.67822266,-0.022766113,0.8925171,0.375,-1.0,-0.359375
579,-0.68359375,-0.020080566,0.89105225,-0.1875,-0.15625,-0.234375
580,-0.67529297,-0.019104004,0.88275146,-0.09375,-0.109375,-0.0625
581,-0.6616211,-0.041809082,0.88201904,0.484375,0.859375,0.1875
582,-0.66137695,-0.039611816,0.87542725,0.171875,0.6875,0.21875
583,-0.6689453,-0.035461426,0.87957764,-0.03125,0.71875,0.625
584,-0.6689453,-0.02935791,0.87249756,0.234375,1.234375,0.671875
585,-0.67993164,-0.02520752,0.87493896,0.828125,1.078125,0.71875
586,-0.67211914,-0.047424316,0.8768921,-0.015625,1.34375,0.0625
587,-0.6843262,-0.03375244,0.90618896,-0.59375,0.5625,0.1875
588,-0.66796875,-0.043029785,0.87420654,-3.28125,3.203125,-1.109375
589,-0.6826172,-0.038146973,0.9020386,-1.09375,1.546875,-0.40625
590,-0.6604004,-0.037902832,0.8991089,-2.09375,3.8125,-0.75
591,-0.6669922,-0.014221191,0.8842163,-3.4375,3.734375,-0.03125
592,-0.66674805,-0.0044555664,0.8744507,-2.359375,3.34375,0.171875
593,-0.6586914,-0.020568848,0.8829956,-1.53125,3.671875,-0.5
594,-0.6623535,-0.034240723,0.8944702,-1.09375,3.296875,-0.4375
595,-0.6550293,-0.011291504,0.89227295,-1.5,3.5625,-0.28125
596,-0.65405273,-0.0134887695,0.89276123,-0.78125,2.65625,0.015625
597,-0.6555176,-0.007385254,0.8966675,-0.546875,3.671875,0.078125
598,-0.6435547,-0.010559082,0.8956909,-0.765625,2.953125,0.109375
599,-0.6411133,-0.0095825195,0.899353,-0.734375,2.53125,0.15625
600,-0.6459961,-0.014953613,0.8949585,-0.8125,2.234375,-0.28125
601,-0.63623047,-0.016418457,0.8956909,-0.671875,2.1875,-0.375
602,-0.6347656,-0.0049438477,0.89593506,-0.828125,1.484375,-0.484375
603,-0.64331055,-0.007873535,0.8900757,-0.796875,0.921875,-0.1875
604,-0.64160156,-0.011047363,0.8998413,-0.375,0.703125,-0.1875
605,-0.63842773,-0.008605957,0.8908081,0.421875,-0.578125,0.203125
606,-0.6467285,0.0053100586,0.8986206,1.171875,-1.890625,0.9375
607,-0.6369629,-0.0068969727,0.8690796,1.21875,-2.25,0.8125
608,-0.6582031,-0.03253174,0.8973999,3.109375,-5.78125,1.390625
609,-0.6599121,-0.033996582,0.88861084,1.171875,-4.140625,1.15625
610,-0.65405273,-0.007873535,0.8703003,-0.421875,-2.484375,0.140625
611,-0.66674805,0.013366699,0.87713623,0.21875,-2.796875,0.0625
612,-0.6748047,-0.018371582,0.88934326,1.625,-1.078125,0.296875
613,-0.6699219,-0.04107666,0.8908081,1.125,-0.015625,0.59375
614,-0.6604004,-0.038635254,0.8822632,-0.4375,0.4375,0.265625
615,-0.6738281,-0.03326416,0.87786865,-0.328125,0.171875,-0.09375
616,-0.66748047,-0.026428223,0.8739624,0.46875,0.3125,0.078125
617,-0.6706543,-0.026428223,0.8895874,0.734375,0.6875,0.78125
618,-0.66918945,-0.022521973,0.8817749,0.296875,0.53125,0.8125
619,-0.6791992,-0.024719238,0.8690796,0.296875,0.796875,0.4375
620,-0.67407227,-0.039611816,0.8825073,-0.171875,0.703125,-0.046875
621,-0.6777344,-0.026428223,0.8798218,1.28125,1.734375,0.0
622,-0.67285156,-0.042785645,0.8847046,-0.453125,1.125,-0.078125
623,-0.6682129,-0.03277588,0.87005615,-1.421875,1.640625,-0.046875
624,-0.6755371,-0.03668213,0.88861084,-1.53125,2.359375,-0.21875
625,-0.6677246,-0.04034424,0.89227295,-2.78125,4.40625,-0.046875
626,-0.65771484,-0.016906738,0.8776245,-3.71875,3.859375,-0.390625
627,-0.671875,-0.014709473,0.8961792,-2.03125,2.375,-0.609375
628,-0.6796875,-0.034729004,0.88934326,-1.421875,2.046875,-0.984375
629,-0.65527344,-0.026672363,0.87713623,-2.296875,2.375,-1.09375
630,-0.6472168,0.005065918,0.8764038,-1.796875,1.828125,-0.4375
631,-0.6669922,0.0004272461,0.888855,-0.6875,2.28125,0.375
632,-0.6567383,-0.020324707,0.89764404,-0.609375,2.796875,-0.171875
633,-0.6489258,-0.01739502,0.88983154,-1.125,3.28125,-0.171875
634,-0.6525879,-0.003479004,0.90179443,-0.796875,2.71875,0.015625
635,-0.6459961,-0.016662598,0.8969116,-0.703125,2.609375,-0.453125
636,-0.6530762,-0.013000488,0.89276123,-1.109375,2.59375,-0.484375
637,-0.64697266,0.0033569336,0.8998413,-0.578125,1.78125,-0.140625
638,-0.64331055,-0.002746582,0.8949585,-0.171875,0.765625,-0.09375
639,-0.6489258,-0.011291504,0.8966675,0.484375,0.0625,0.25
640,-0.6308594,-0.002746582,0.8878784,1.484375,-1.359375,0.640625
641,-0.6508789,-0.010803223,0.88568115,1.828125,-1.953125,1.265625
642,-0.6520996,-0.019348145,0.87493896,2.765625,-3.59375,1.640625
643,-0.6538086,-0.027893066,0.88494873,3.03125,-3.40625,1.578125
644,-0.6672363,-0.019348145,0.8915405,1.96875,-3.203125,1.109375
645,-0.6513672,-0.016418457,0.8612671,0.15625,-0.546875,-0.390625
646,-0.6850586,-0.03765869,0.89398193,1.171875,-2.71875,0.0
647,-0.68652344,-0.03253174,0.8981323,0.109375,-0.4375,-0.5625
648,-0.6621094,-0.03302002,0.87835693,-0.8125,0.46875,-0.34375
649,-0.6689453,-0.015686035,0.8744507,-0.15625,0.015625,0.0625
650,-0.66967773,-0.025939941,0.87908936,0.875,0.53125,0.71875
651,-0.671875,-0.053527832,0.883728,0.96875,0.421875,0.796875
652,-0.66625977,-0.035461426,0.8727417,-0.625,1.421875,0.453125
653,-0.67578125,-0.027648926,0.8781128,-0.3125,1.078125,0.46875
654,-0.67163086,-0.03668213,0.8805542,0.078125,0.90625,0.109375
655,-0.6796875,-0.031066895,0.8851929,-0.296875,0.875,0.15625
656,-0.6711426,-0.027893066,0.8829956,-0.171875,1.28125,0.15625
657,-0.66674805,-0.042785645,0.89105225,-1.1875,2.046875,0.0
658,-0.670166,-0.051818848,0.8942261,-3.15625,2.765625,-0.375
659,-0.6699219,-0.032287598,0.8930054,-3.875,3.84375,-0.96875
660,-0.6723633,-0.010559082,0.8834839,-2.703125,4.921875,0.15625
661,-0.66308594,-0.020324707,0.8908081,-1.25,4.640625,0.125
662,-0.654541,-0.031311035,0.8912964,-1.25,5.28125,0.296875
663,-0.6628418,-0.023742676,0.9022827,-0.828125,4.5625,1.015625
664,-0.63427734,-0.012023926,0.8866577,-1.59375,4.734375,0.140625
665,-0.6489258,-0.028381348,0.90423584,-0.59375,2.875,0.15625
666,-0.6381836,-0.012756348,0.8878784,-1.71875,3.9375,-0.296875
667,-0.6303711,-0.00079345703,0.90008545,-1.453125,3.09375,-0.203125
668,-0.6411133,0.00579834,0.9088745,-0.5625,2.375,0.03125
669,-0.6311035,-0.023742676,0.90496826,-0.15625,2.734375,-0.515625
670,-0.62939453,-0.026916504,0.90545654,-0.40625,1.953125,-0.328125
671,-0.6296387,-0.015197754,0.9076538,-0.8125,1.859375,-0.515625
672,-0.6298828,-0.018127441,0.9059448,-0.53125,1.109375,-0.1875
673,-0.6237793,-0.010559082,0.90740967,0.015625,0.140625,-0.1875
674,-0.6359863,0.005065918,0.9035034,0.6875,-1.421875,0.140625
675,-0.6323242,-0.0022583008,0.88494873,1.875,-2.875,0.96875
676,-0.63549805,-0.016662598,0.87908936,1.8125,-4.703125,1.046875
677,-0.64624023,-0.028869629,0.8859253,2.03125,-6.859375,0.6875
678,-0.6645508,-0.021057129,0.888855,0.875,-5.234375,0.34375
679,-0.66308594,-0.019836426,0.89398193,0.8125,-3.890625,-0.140625
680,-0.6621094,-0.022277832,0.8746948,-0.859375,-1.046875,-0.65625
681,-0.6748047,-0.02178955,0.88568115,-0.6875,-0.96875,0.0625
682,-0.65527344,-0.012512207,0.8727417,-0.453125,-0.28125,-0.5
683,-0.6743164,-0.043518066,0.8973999,0.828125,-0.78125,-0.34375
684,-0.670166,-0.050842285,0.8978882,-0.828125,1.140625,-0.25
685,-0.66186523,-0.031066895,0.8720093,-1.40625,0.734375,0.0625
686,-0.67626953,-0.003967285,0.87420654,-0.21875,0.6875,0.578125
687,-0.67285156,-0.0178833,0.87957764,0.546875,0.890625,0.78125
688,-0.6738281,-0.03375244,0.8781128,-0.390625,1.125,0.15625
689,-0.6677246,-0.026428223,0.88323975,-0.953125,1.265625,-0.078125
690,-0.67993164,-0.029846191,0.88690186,-0.90625,1.375,-0.296875
691,-0.66748047,-0.03375244,0.88397217,-1.390625,2.15625,-0.5
692,-0.6723633,-0.018615723,0.8900757,-1.109375,1.9375,-0.3125
693,-0.6669922,-0.022033691,0.8908081,-1.234375,2.828125,0.296875
694,-0.6635742,-0.031311035,0.9015503,-1.296875,4.34375,0.671875
695,-0.6608887,-0.024963379,0.8812866,-2.046875,4.453125,0.21875
696,-0.66845703,-0.016662598,0.90301514,-1.328125,4.484375,-0.171875
697,-0.6611328,-0.016906738,0.89764404,-1.15625,4.484375,0.046875
698,-0.64941406,-0.010314941,0.9003296,-0.828125,3.46875,-0.171875
699,-0.642334,-0.0095825195,0.8842163,-1.265625,3.96875,-0.25
700,-0.6298828,-0.00982666,0.8776245,-1.375,4.28125,-0.078125
701,-0.638916,-0.021057129,0.9125366,0.03125,2.25,0.015625
702,-0.63793945,-0.022521973,0.8890991,-1.703125,2.84375,-0.96875
703,-0.62890625,-0.0095825195,0.89715576,-1.0625,2.3125,-0.5
704,-0.63256836,0.006286621,0.902771,-1.015625,1.515625,-0.1875
705,-0.63623047,-0.0051879883,0.9032593,-0.171875,1.40625,-0.03125
706,-0.6376953,-0.0134887695,0.9118042,0.265625,0.984375,-0.046875
707,-0.62890625,-0.013000488,0.8961792,0.125,-0.25,0.015625
708,-0.6369629,-0.011291504,0.8954468,1.234375,-1.796875,0.875
709,-0.63793945,-0.0068969727,0.88494873,1.5625,-3.171875,0.84375
710,-0.642334,-0.014221191,0.87786865,2.6875,-6.0,1.390625
711,-0.65356445,-0.014953613,0.883728,2.765625,-6.40625,1.5
712,-0.6611328,-0.023986816,0.8812866,0.703125,-3.6875,0.578125
713,-0.6635742,-0.020812988,0.8759155,0.328125,-2.5625,-0.5625
714,-0.6755371,-0.022521973,0.899353,0.515625,-1.5625,-0.609375
715,-0.67626953,-0.026916504,0.89398193,-0.4375,-0.28125,0.125
716,-0.68066406,-0.025939941,0.8822632,0.0,0.140625,0.03125
717,-0.64868164,-0.031799316,0.8656616,-0.640625,1.109375,-0.296875
718,-0.6533203,-0.039367676,0.88690186,-0.375,0.828125,0.421875
719,-0.66137695,-0.018371582,0.8703003,-1.375,0.390625,0.078125
720,-0.6816406,-0.03375244,0.88568115,0.34375,-0.125,0.265625
721,-0.6711426,-0.03668213,0.88079834,-0.5,1.359375,-0.09375
722,-0.6755371,-0.020812988,0.87298584,-1.453125,0.890625,-0.390625
723,-0.6767578,-0.016906738,0.88397217,-0.703125,1.015625,-0.3125
724,-0.6750488,-0.03277588,0.899353,-1.484375,1.921875,-0.390625
725,-0.67041016,-0.035949707,0.8864136,-2.90625,3.15625,-0.71875
726,-0.6694336,-0.023498535,0.90618896,-2.96875,4.546875,0.0625
727,-0.6635742,-0.013977051,0.89105225,-2.09375,5.015625,0.453125
728,-0.66186523,-0.023010254,0.8793335,-1.75,4.640625,0.171875
729,-0.65600586,-0.0022583008,0.8834839,-1.90625,3.53125,-0.140625
730,-0.65478516,-0.008605957,0.8851929,-1.015625,2.46875,-0.265625
731,-0.65185547,-0.010314941,0.88494873,-0.703125,3.03125,-0.140625
732,-0.6569824,-0.0076293945,0.8925171,-0.90625,2.734375,-0.03125
733,-0.6413574,-0.008850098,0.8944702,-1.0625,3.046875,-0.40625
734,-0.6413574,0.0053100586,0.8978882,-0.484375,2.25,-0.34375
735,-0.6447754,-0.011779785,0.91400146,0.21875,1.9375,0.0625
736,-0.640625,-0.0134887695,0.9059448,-0.984375,2.390625,-0.453125
737,-0.6291504,-0.0017700195,0.8805542,-1.53125,3.015625,-0.28125
738,-0.63916016,-0.014221191,0.9159546,0.28125,0.71875,0.015625
739,-0.6447754,-0.011047363,0.88861084,-0.609375,-0.234375,-0.671875
740,-0.6386719,0.007507324,0.8859253,0.71875,-1.65625,0.328125
741,-0.6359863,0.015808105,0.8915405,2.03125,-3.015625,1.4375
742,-0.6464844,-0.011047363,0.8746948,3.296875,-5.5,1.59375
743,-0.65185547,-0.020568848,0.885437,4.03125,-6.515625,1.90625
744,-0.6633301,-0.02935791,0.88690186,2.609375,-4.09375,1.109375
745,-0.67822266,-0.03717041,0.8817749,0.5,-2.953125,0.796875
746,-0.6894531,-0.016418457,0.86761475,-0.421875,-1.328125,-0.109375
747,-0.6760254,-0.0154418945,0.8759155,-0.28125,-0.078125,-0.71875
748,-0.67529297,-0.015686035,0.885437,-0.046875,0.0625,-0.078125
749,-0.67211914,-0.030578613,0.87542725,-0.3125,0.265625,0.3125
750,-0.67871094,-0.03741455,0.87127686,-0.78125,0.859375,0.078125
751,-0.6828613,-0.034729004,0.8734741,-0.671875,1.0,0.09375
752,-0.6743164,-0.031799316,0.87664795,0.09375,1.34375,0.375
753,-0.673584,-0.019104004,0.87323,0.078125,0.859375,0.859375
754,-0.6850586,-0.0256958,0.88812256,0.625,0.765625,0.859375
755,-0.68115234,-0.017150879,0.88201904,0.609375,0.53125,0.265625
756,-0.6628418,-0.04034424,0.86834717,-1.015625,2.71875,-0.40625
757,-0.68115234,-0.038391113,0.8908081,-1.5625,1.390625,-0.359375
758,-0.68237305,-0.04937744,0.90423584,-1.296875,2.859375,-0.578125
759,-0.66015625,-0.027160645,0.8978882,-2.640625,5.125,0.046875
