sample_no,accel_x,accel_y,accel_z,gyro_x,gyro_y,gyro_z
0,-0.0036621094,-1.0176392,0.17572021,7.375,4.171875,2.765625
1,-0.017333984,-1.0401001,0.17132568,10.15625,2.1875,2.171875
2,-0.036132812,-0.9961548,0.1083374,16.453125,4.9375,2.5
3,-0.00048828125,-1.0003052,0.11248779,21.046875,2.5625,2.0625
4,-0.0061035156,-0.9673462,0.04534912,18.625,2.859375,2.0
5,-0.00390625,-0.97613525,0.03338623,22.71875,2.0,2.1875
6,-0.0031738281,-0.99053955,-0.027160645,21.203125,-1.0,1.3125
7,0.014892578,-0.9824829,-0.038391113,11.90625,1.171875,-0.140625
8,-0.0017089844,-0.9871216,-0.051086426,2.8125,-0.34375,-0.796875
9,0.0063476562,-0.9717407,-0.047668457,-2.734375,-1.1875,-1.375
10,0.0063476562,-0.99713135,-0.010803223,-6.5,-1.875,-3.390625
11,0.01586914,-0.9668579,-0.014953613,-7.671875,0.59375,-2.28125
12,0.007080078,-0.9492798,-0.00982666,-16.59375,-9.5625,-1.25
13,-0.038330078,-0.9282837,-0.03668213,-28.28125,-9.421875,-3.671875
14,0.040039062,-0.9768677,0.12860107,-16.703125,-2.1875,2.640625
15,-0.01977539,-1.0784302,0.11956787,-5.234375,2.71875,-1.0
16,0.018066406,-1.038147,0.074157715,-5.265625,5.609375,-6.109375
17,0.0029296875,-1.0059204,0.113220215,-4.09375,4.46875,-3.0625
18,-0.030761719,-0.9837036,0.11199951,-4.03125,0.625,-2.9375
19,-0.0029296875,-0.9902954,0.10491943,-0.109375,5.265625,-2.09375
20,-0.0068359375,-1.0003052,0.093444824,-0.4375,1.390625,-0.796875
21,-0.03930664,-1.0151978,0.12371826,3.234375,0.578125,-1.046875
22,-0.014160156,-1.0322876,0.14276123,6.140625,-0.875,-1.875
23,-0.01977539,-1.0339966,0.10076904,12.125,1.515625,-3.0
24,-0.022216797,-0.99591064,0.030212402,14.984375,9.421875,-3.21875
25,-0.020019531,-0.9793091,0.019470215,20.75,5.265625,1.03125
26,-0.04638672,-0.9788208,0.010192871,22.4375,-1.078125,2.875
27,-0.03930664,-0.93634033,-0.035705566,2.40625,-6.21875,-1.75
28,-0.043701172,-0.99884033,-0.027893066,7.109375,-3.4375,2.9375
29,-0.025634766,-1.0054321,0.001159668,-0.015625,-0.84375,-1.359375
30,-0.03173828,-0.99005127,-0.0134887695,-3.546875,-3.125,-0.34375
31,-0.014404297,-0.9668579,-0.036193848,-6.65625,-4.453125,-0.9375
32,-0.032958984,-0.96710205,-0.002746582,-17.828125,-6.671875,-0.984375
33,-0.06616211,-0.9507446,-0.051818848,-32.125,-16.15625,-1.28125
34,0.03466797,-0.98394775,0.15496826,-10.84375,3.515625,-0.71875
35,-0.0048828125,-1.0474243,0.10687256,-3.078125,-3.09375,1.6875
36,-0.0056152344,-1.0298462,0.08392334,-2.734375,2.046875,-4.640625
37,-0.0234375,-1.0110474,0.10076904,-3.734375,3.25,-0.984375
38,-0.026367188,-1.0076294,0.12054443,-1.25,2.375,-0.53125
39,-0.03100586,-0.9807739,0.09197998,-1.5,1.25,0.53125
40,-0.025146484,-0.99005127,0.089782715,0.359375,0.421875,0.609375
41,-0.028076172,-1.0003052,0.10418701,0.671875,0.0625,0.171875
42,-0.031982422,-1.0176392,0.11419678,2.703125,0.96875,-0.796875
43,-0.014160156,-1.0271606,0.11199951,4.859375,6.0625,-5.453125
44,-0.026855469,-1.0281372,0.0927124,8.953125,4.71875,-1.6875
45,-0.07446289,-0.9817505,0.04876709,11.078125,4.46875,1.03125
46,-0.042236328,-0.98443604,0.0602417,11.296875,3.03125,3.203125
47,-0.032470703,-0.96173096,-0.008850098,6.25,-0.15625,1.9375
48,-0.0063476562,-0.9817505,0.0048217773,3.9375,0.171875,1.625
49,-0.016113281,-1.0015259,0.026794434,3.3125,0.734375,1.125
50,-0.013916016,-0.989563,0.009460449,0.578125,-0.578125,-0.734375
51,0.0021972656,-0.9788208,0.008483887,-0.34375,-0.5625,-1.0
52,-0.010253906,-0.9795532,0.007507324,-2.109375,-2.109375,-0.046875
53,-0.0041503906,-0.9727173,0.008239746,-4.953125,-2.390625,-1.359375
54,-0.030273438,-0.9492798,-0.030334473,-12.6875,-6.625,0.359375
55,-0.013427734,-0.9644165,0.035583496,-4.21875,-0.296875,5.078125
56,0.02368164,-1.0291138,0.09954834,4.203125,-1.6875,5.203125
57,-0.023925781,-1.0393677,0.062438965,-3.15625,-4.28125,-1.28125
58,-0.026611328,-1.0071411,0.058044434,-0.328125,3.125,-4.28125
59,0.00048828125,-0.9920044,0.06854248,-3.21875,0.515625,-0.859375
60,-0.025390625,-0.987854,0.06854248,-0.25,1.609375,1.125
61,-0.0009765625,-1.0232544,0.0446167,-3.265625,1.625,-1.390625
62,-0.01586914,-0.99053955,0.062194824,-2.890625,2.96875,-2.390625
63,0.0048828125,-1.0274048,0.1071167,2.03125,4.75,-2.71875
64,-0.025878906,-1.0300903,0.082458496,1.625,0.84375,-2.515625
65,-0.041259766,-1.0059204,0.062438965,6.703125,7.421875,-1.953125
66,-0.03173828,-0.987854,0.047790527,8.796875,2.140625,1.796875
67,-0.036865234,-0.97784424,0.018493652,10.09375,3.03125,2.78125
68,0.0073242188,-0.96343994,-0.0022583008,7.3125,-0.15625,0.109375
69,-0.012451172,-0.9963989,-0.0056762695,5.703125,-3.40625,0.90625
70,-0.018310547,-0.9985962,0.00091552734,2.21875,-2.140625,-0.890625
71,-0.007080078,-0.99176025,0.0016479492,-0.265625,-2.25,-1.484375
72,-0.004638672,-0.9780884,-0.011047363,-1.5625,-2.65625,-1.21875
73,-0.0031738281,-0.9793091,-0.00079345703,-3.390625,-2.9375,-0.875
74,-0.0053710938,-0.97076416,-0.024963379,-7.203125,-4.046875,-1.140625
75,-0.032470703,-0.94195557,-0.04449463,-19.703125,-10.71875,1.390625
76,0.017822266,-0.97198486,0.10662842,-5.90625,1.3125,6.09375
77,-0.010986328,-1.0410767,0.10028076,-4.3125,-7.015625,3.03125
78,0.005859375,-1.0305786,0.04168701,-2.28125,2.890625,-5.546875
79,0.0075683594,-0.9871216,0.074157715,-4.671875,3.125,-2.03125
80,-0.024169922,-1.0110474,0.08343506,-0.515625,2.875,-0.734375
81,-0.013916016,-0.9837036,0.06414795,0.609375,2.328125,-0.015625
82,0.0014648438,-1.005188,0.06854248,-0.359375,4.484375,-0.828125
83,-0.010253906,-1.0083618,0.09637451,-0.078125,3.109375,-3.140625
84,-0.026855469,-1.0357056,0.10028076,3.21875,1.3125,-2.328125
85,-0.035888672,-1.0325317,0.09222412,6.4375,2.203125,-2.90625
86,-0.033447266,-0.99053955,0.04168701,8.375,2.90625,-0.109375
87,-0.01586914,-0.986145,0.027770996,9.34375,2.328125,-0.25
88,-0.029541016,-0.97613525,0.0065307617,8.890625,0.734375,-0.875
89,-0.014892578,-0.9793091,0.006286621,10.5,0.765625,-2.015625
90,-0.0390625,-0.99468994,-0.023498535,7.421875,-1.53125,-0.421875
91,-0.028808594,-0.97735596,-0.03277588,4.828125,-0.6875,0.90625
92,-0.028808594,-0.9788208,-0.015930176,1.484375,-2.0625,2.703125
93,-0.020996094,-0.97076416,-0.017150879,-1.90625,-4.109375,0.875
94,-0.013671875,-0.94903564,-0.020080566,-3.15625,-2.859375,0.453125
95,-0.033447266,-0.9663696,-0.0635376,-10.78125,-9.234375,-0.3125
96,-0.04638672,-0.942688,-0.016418457,-23.84375,-8.890625,2.6875
97,0.011230469,-1.0134888,0.14984131,-10.5,3.84375,4.078125
98,-0.008544922,-1.0601196,0.066589355,-9.34375,-5.1875,-0.515625
99,0.0063476562,-1.000061,0.0680542,-1.734375,3.8125,-3.890625
100,-0.01928711,-0.9990845,0.08782959,-4.046875,-0.21875,-2.046875
101,-0.037841797,-0.9924927,0.07757568,-0.9375,2.28125,-1.9375
102,-0.0053710938,-0.9871216,0.070007324,-1.171875,5.03125,-1.375
103,-0.01953125,-0.9976196,0.06854248,-1.140625,3.59375,-0.84375
104,-0.008300781,-1.0154419,0.09466553,-0.296875,4.921875,-1.34375
105,-0.005126953,-1.0288696,0.11590576,2.8125,2.640625,-2.65625
106,-0.03540039,-1.0264282,0.07269287,7.0625,0.203125,-0.765625
107,-0.044677734,-0.9990845,0.06488037,11.296875,5.0625,-0.625
108,-0.017578125,-0.97735596,0.039245605,8.171875,1.5,3.421875
109,-0.037353516,-0.975647,0.01776123,10.3125,2.15625,4.796875
110,0.004638672,-0.9932251,0.0138549805,7.84375,1.328125,2.640625
111,-0.0024414062,-0.96539307,-0.010070801,6.328125,0.296875,0.25
112,-0.018798828,-1.0088501,-0.0068969727,5.5625,-1.671875,-0.75
113,-0.0036621094,-0.97662354,-0.02178955,0.734375,0.796875,-0.734375
114,0.00048828125,-0.99298096,-0.019836426,-2.328125,-1.671875,0.0
115,0.021728516,-0.9829712,-0.0017700195,-6.265625,-0.703125,-1.9375
116,0.0007324219,-0.9649048,-0.03277588,-9.6875,-5.015625,-2.234375
117,-0.04663086,-0.9668579,-0.06427002,-26.078125,-10.171875,-0.515625
118,-0.015380859,-0.9553833,0.078308105,-13.828125,-3.015625,5.03125
119,0.017089844,-1.0789185,0.16619873,-3.4375,0.5625,2.84375
120,0.020996094,-1.008606,0.101257324,-4.40625,1.765625,1.0625
121,-0.025390625,-0.9783325,0.078308105,-2.875,3.296875,0.40625
122,0.027832031,-1.0083618,0.11102295,-1.625,3.53125,-2.796875
123,0.020019531,-0.98565674,0.0692749,0.078125,0.671875,-2.078125
124,-0.01171875,-1.0015259,0.082458496,-0.046875,0.515625,-2.890625
125,0.00048828125,-0.99713135,0.08416748,1.5625,3.140625,-2.609375
126,-0.004638672,-1.0339966,0.13616943,7.421875,3.234375,-2.359375
127,-0.04638672,-1.0508423,0.06463623,5.09375,-1.203125,1.375
128,-0.0234375,-0.95684814,0.05633545,20.171875,6.84375,0.84375
129,0.036376953,-1.0064087,0.011169434,12.40625,3.46875,6.171875
130,-0.051513672,-0.9788208,-0.010559082,16.078125,8.75,3.640625
131,0.041015625,-0.9885864,-0.02520752,16.375,7.8125,-1.1875
132,0.032226562,-0.97613525,-0.070617676,8.140625,0.125,2.796875
133,-0.0012207031,-0.98443604,-0.047424316,8.234375,2.953125,-1.34375
134,0.028076172,-0.97442627,-0.07159424,0.40625,-2.828125,0.125
135,0.0012207031,-0.9741821,-0.0713501,-4.828125,-4.71875,-2.0
136,0.030517578,-0.98443604,-0.031799316,-10.875,-5.3125,-3.359375
137,-0.010253906,-0.9614868,-0.08868408,-19.5625,-11.71875,-4.90625
138,-0.06933594,-0.9536743,-0.002746582,-31.0,-14.953125,-4.390625
139,0.05078125,-1.0105591,0.1329956,-21.203125,-2.484375,-1.90625
140,0.0012207031,-1.0081177,0.06463623,-21.03125,-3.21875,-3.109375
141,-0.048339844,-1.0293579,0.14227295,-5.25,12.546875,-4.734375
142,-0.0061035156,-1.0227661,0.12225342,-10.421875,0.109375,-5.203125
143,-0.017089844,-0.9546509,0.13006592,-3.3125,5.015625,-1.609375
144,-0.044677734,-0.9956665,0.13153076,-2.78125,2.109375,-0.171875
145,-0.0063476562,-0.9834595,0.13006592,7.734375,5.90625,0.03125
146,-0.018066406,-1.0344849,0.121276855,7.546875,1.96875,1.921875
147,-0.049072266,-1.0027466,0.13128662,15.234375,1.53125,1.78125
148,-0.015136719,-1.0725708,0.09173584,18.578125,-1.046875,7.359375
149,-0.032958984,-0.9951782,0.026794434,29.28125,7.78125,7.25
150,-0.011962891,-0.9624634,-0.04864502,21.53125,4.203125,3.609375
151,0.023925781,-0.9729614,-0.02130127,18.953125,8.8125,2.296875
152,0.009277344,-0.9866333,-0.0713501,15.796875,-1.375,2.609375
153,0.037597656,-0.9783325,-0.078430176,10.109375,-1.046875,-1.078125
154,0.0048828125,-0.97442627,-0.08453369,7.796875,0.0,-0.390625
155,0.0075683594,-0.98101807,-0.0947876,1.921875,-3.0625,-0.1875
156,0.0056152344,-0.9795532,-0.09307861,-2.78125,-4.46875,0.28125
157,0.0021972656,-0.9902954,-0.08306885,-8.734375,-2.078125,-1.03125
158,0.040771484,-0.96539307,-0.07574463,-18.25,-5.203125,-3.0625
159,-0.046142578,-0.96466064,-0.10992432,-28.109375,-17.59375,-1.65625
160,0.016357422,-0.96661377,0.029968262,-24.796875,-5.875,-1.921875
161,0.0036621094,-1.0149536,0.07098389,-20.71875,-8.25,3.421875
162,0.026367188,-0.9859009,0.059020996,-12.515625,2.234375,-0.234375
163,0.03955078,-1.017395,0.05682373,-12.421875,1.3125,-3.859375
164,0.0146484375,-0.9758911,0.13372803,-5.28125,0.9375,-2.78125
165,-0.014160156,-1.0042114,0.0993042,-3.96875,-0.546875,-4.140625
166,0.012207031,-0.98931885,0.10003662,-0.109375,3.96875,-3.359375
167,0.0007324219,-0.9951782,0.13812256,1.9375,4.453125,-1.6875
168,-0.03173828,-1.0193481,0.14593506,8.0,3.6875,-2.46875
169,0.0034179688,-1.0166626,0.08441162,-1.234375,-4.96875,-2.46875
170,-0.03564453,-0.96710205,0.07537842,-11.0,-5.015625,-6.328125
171,-0.013916016,-0.9951782,0.13665771,0.375,-1.9375,-4.859375
172,-0.050048828,-1.0701294,0.12640381,8.796875,12.828125,-3.484375
173,-0.0034179688,-1.0127563,0.027770996,14.140625,1.0625,0.84375
174,-0.044921875,-0.95635986,0.059753418,20.078125,7.78125,5.984375
175,-0.029052734,-0.9717407,0.022888184,12.234375,-0.828125,1.15625
176,-0.016113281,-0.9795532,0.008728027,5.4375,0.125,1.25
177,-0.03173828,-1.0022583,-0.014221191,0.4375,-1.234375,0.03125
178,0.0034179688,-0.9849243,0.024841309,-5.28125,1.21875,-2.296875
179,-0.009521484,-1.0044556,0.04510498,-5.953125,-1.703125,-0.046875
180,-0.04736328,-0.9505005,-0.02545166,-20.734375,-5.3125,-2.359375
181,-0.033935547,-0.98443604,0.045837402,-23.671875,-4.96875,0.53125
182,0.029296875,-1.0271606,0.2008667,-3.671875,-0.328125,2.46875
183,0.0021972656,-1.0391235,0.11224365,-13.078125,-3.53125,-2.5625
184,-0.006591797,-0.9902954,0.09320068,0.6875,5.84375,-3.46875
185,0.0017089844,-0.99664307,0.14324951,-4.390625,0.140625,-2.03125
186,-0.026123047,-0.98028564,0.109069824,-0.796875,2.796875,-1.4375
187,-0.020507812,-0.9885864,0.12445068,1.125,2.203125,-0.796875
188,-0.023925781,-1.0020142,0.13909912,1.421875,1.125,0.65625
189,-0.012939453,-1.0088501,0.16668701,3.734375,3.984375,-0.609375
190,-0.032226562,-1.0183716,0.121032715,5.046875,-1.515625,0.125
191,-0.044433594,-1.0095825,0.09124756,6.203125,2.875,1.015625
192,0.0,-0.9927368,0.08416748,11.671875,8.390625,4.0
193,-0.009521484,-1.0005493,0.08319092,18.8125,13.4375,2.875
194,-0.021240234,-1.0100708,-0.00592041,13.078125,4.171875,0.515625
195,-0.02734375,-0.93536377,0.016052246,12.53125,7.796875,-2.203125
196,0.029785156,-0.9976196,0.023132324,9.125,-1.765625,0.859375
197,-0.046875,-0.97003174,-0.012512207,4.09375,-2.625,0.59375
198,-0.017578125,-1.006897,-0.0049438477,1.015625,-1.53125,-0.9375
199,0.008056641,-0.9817505,-0.011779785,-1.78125,-1.25,-0.90625
200,-0.024169922,-0.9805298,-0.007385254,-6.953125,-4.265625,-1.015625
201,-0.049072266,-0.96710205,-0.039611816,-27.421875,-8.765625,-2.28125
202,-0.026611328,-1.0142212,0.05267334,-39.8125,-13.078125,0.109375
203,0.095458984,-0.92437744,0.1593628,-8.59375,6.796875,14.765625
204,-0.0769043,-1.0703735,0.13201904,-6.234375,-9.09375,14.6875
205,0.091796875,-0.9768677,0.11468506,3.46875,9.140625,1.25
206,0.040771484,-0.99102783,0.12884521,-4.28125,-0.890625,4.671875
207,0.024902344,-0.99957275,0.13934326,2.1875,1.125,-3.5
208,0.030029297,-0.97369385,0.10760498,1.828125,0.125,-0.640625
209,0.013916016,-1.0007935,0.13983154,3.34375,2.609375,-0.671875
210,0.03100586,-1.0254517,0.14105225,1.359375,-0.90625,-4.921875
211,0.005126953,-0.9981079,0.12005615,9.484375,2.609375,-6.71875
212,-0.009033203,-1.0337524,0.105651855,2.890625,-3.125,-6.90625
213,0.029541016,-0.97906494,0.08734131,8.78125,7.328125,-4.6875
214,0.009033203,-1.0003052,0.036315918,11.671875,4.390625,-1.0625
215,0.0024414062,-0.9985962,0.049987793,15.9375,7.953125,-4.96875
216,0.009033203,-0.9873657,-0.0012817383,13.140625,1.90625,-1.96875
217,-0.03466797,-0.9795532,-0.008117676,12.125,1.796875,-1.265625
218,-0.0053710938,-0.99591064,-0.005432129,7.75,0.171875,0.109375
219,-0.019042969,-0.97979736,-0.024475098,4.390625,-2.109375,-0.15625
220,-0.017822266,-0.98809814,-0.023498535,-0.578125,-4.21875,-1.203125
221,-0.0036621094,-0.9710083,-0.041809082,-4.703125,-6.875,-0.078125
222,-0.017578125,-0.95025635,-0.0713501,-24.6875,-18.9375,1.625
223,-0.0012207031,-0.9541626,0.027770996,-21.21875,-6.1875,0.28125
224,0.07495117,-1.0098267,0.10882568,-13.890625,-5.671875,5.015625
225,-0.015625,-1.0261841,0.06951904,-5.453125,1.0625,-1.734375
226,0.026123047,-0.9927368,0.074401855,-0.84375,0.921875,-5.84375
227,-0.021972656,-1.0025024,0.09857178,-3.5625,1.390625,-1.75
228,-0.015625,-0.9944458,0.078063965,-2.40625,4.046875,-3.46875
229,-0.033203125,-0.98638916,0.09124756,-1.703125,5.515625,0.265625
230,-0.0056152344,-1.0166626,0.10345459,1.21875,5.59375,-0.59375
231,-0.0007324219,-1.0125122,0.137146,1.921875,1.640625,-2.1875
232,-0.017822266,-1.0264282,0.09661865,1.046875,-1.390625,-2.390625
233,-0.05078125,-1.0237427,0.06878662,4.453125,-1.640625,-0.296875
234,-0.024414062,-0.9883423,0.085632324,11.890625,8.15625,-0.953125
235,-0.0063476562,-0.99591064,0.043640137,11.75,5.78125,1.765625
236,-0.0009765625,-0.9817505,0.019226074,19.578125,5.9375,-2.609375
237,0.01171875,-0.98272705,-0.021057129,12.078125,-0.390625,-2.5625
238,-0.030761719,-0.98809814,-0.010559082,9.46875,-1.84375,-1.1875
239,-0.024169922,-0.9883423,-0.025939941,5.09375,-0.0625,-0.609375
240,-0.022949219,-0.9768677,-0.047424316,0.46875,-1.625,1.140625
241,0.0009765625,-1.0007935,-0.020568848,-3.21875,-1.859375,0.875
242,-0.01977539,-0.99664307,-0.02935791,-7.453125,-2.5625,-2.0
243,-0.020507812,-0.98321533,-0.035949707,-19.875,-12.015625,-1.953125
244,-0.052490234,-0.9365845,0.012634277,-26.578125,-13.234375,-3.0
245,0.04711914,-1.0215454,0.1473999,-6.671875,-1.28125,3.6875
246,-0.048828125,-1.0557251,0.043151855,-9.75,-7.671875,-2.203125
247,0.0024414062,-0.99102783,0.07342529,0.453125,9.046875,-3.90625
248,-0.033203125,-1.003479,0.10076904,-4.46875,0.28125,-0.640625
249,-0.033203125,-0.9795532,0.08026123,0.703125,3.828125,-0.515625
250,-0.020263672,-0.98809814,0.08001709,-1.78125,2.640625,1.3125
251,-0.04272461,-0.9981079,0.08905029,-0.96875,2.546875,1.734375
252,0.0,-1.0261841,0.121520996,4.078125,5.125,-0.96875
253,-0.0546875,-1.0327759,0.081970215,4.28125,-2.953125,-0.953125
254,-0.044921875,-1.0010376,0.06756592,11.140625,9.328125,-1.234375
255,0.0031738281,-0.97198486,0.050720215,10.1875,3.484375,2.484375
256,-0.03857422,-0.9824829,0.005554199,11.109375,4.609375,2.59375
257,0.0012207031,-1.003479,-6.1035156e-05,11.0625,0.234375,0.234375
258,-0.016357422,-0.9661255,-0.0134887695,11.625,0.6875,1.90625
259,-0.0009765625,-1.005188,-0.02545166,6.09375,-4.890625,3.234375
260,-0.001953125,-0.9795532,-0.026916504,2.25,-0.484375,3.265625
261,0.00024414062,-0.9849243,-0.035217285,2.828125,-0.640625,1.46875
262,0.0061035156,-0.97442627,-0.03277588,-2.1875,-3.1875,-0.28125
263,0.0021972656,-0.9817505,-0.03253174,-5.171875,-1.15625,-3.015625
264,-0.0029296875,-0.9776001,-0.02545166,-11.53125,-4.265625,-3.828125
265,-0.012207031,-0.9920044,-0.06524658,-29.703125,-16.953125,-3.765625
266,0.020019531,-0.9480591,0.0446167,-28.140625,3.734375,0.171875
267,-0.026855469,-1.0112915,0.19329834,-10.0,-4.421875,-1.5
268,-0.026611328,-1.0457153,0.10028076,-7.6875,-0.90625,-1.0625
269,0.0043945312,-0.991272,0.113220215,-1.171875,5.125,-0.015625
270,-0.0126953125,-0.99102783,0.11175537,-3.453125,0.6875,-0.390625
271,-0.0075683594,-0.9714966,0.10736084,4.53125,3.96875,1.21875
272,-0.033447266,-1.0120239,0.11907959,3.796875,-0.421875,2.890625
273,-0.004638672,-1.005188,0.10369873,6.421875,1.28125,0.265625
274,-0.0087890625,-1.0283813,0.07366943,1.765625,-4.5625,0.765625
275,0.018554688,-1.00177,0.10443115,3.640625,-1.15625,-0.21875
276,0.029541016,-0.9985962,0.06585693,8.703125,-1.125,3.484375
277,0.01171875,-0.9951782,0.062438965,10.40625,-0.234375,4.609375
278,-0.010986328,-1.013977,0.031188965,13.84375,0.40625,0.9375
279,-0.018310547,-0.97125244,0.004333496,13.921875,-1.21875,-1.703125
280,-0.021972656,-0.9837036,-0.0095825195,6.0,-0.234375,-3.0625
281,0.0014648438,-0.98638916,0.00091552734,3.71875,2.5,-1.0
282,0.0107421875,-1.0022583,0.0045776367,3.53125,3.125,-0.1875
283,0.0009765625,-0.98809814,-0.016906738,0.828125,-0.640625,0.265625
284,0.009521484,-0.9763794,-0.01373291,-0.828125,0.125,-0.9375
285,-0.010009766,-0.9788208,-0.027404785,-6.65625,-2.078125,-1.828125
286,-0.0063476562,-0.97125244,-0.07086182,-26.296875,-10.53125,-4.078125
287,-0.022949219,-0.973938,0.09100342,-25.765625,1.921875,-2.21875
288,0.045898438,-0.9746704,0.11907959,-17.484375,-2.390625,-3.140625
289,-0.03125,-1.0703735,0.1293335,-8.546875,8.984375,-0.4375
290,-0.0073242188,-0.99884033,0.12542725,-5.703125,6.109375,-4.65625
291,-0.016113281,-0.9866333,0.12371826,-3.109375,4.203125,-3.53125
292,-0.018066406,-0.98565674,0.12908936,1.25,5.34375,-1.375
293,-0.0029296875,-0.98272705,0.120788574,1.859375,3.03125,-0.234375
294,-0.00390625,-1.0098267,0.14764404,7.78125,6.75,-1.25
295,-0.01928711,-1.0325317,0.11151123,8.890625,-4.015625,1.140625
296,-0.056884766,-1.0337524,0.097351074,15.109375,3.265625,0.6875
297,-0.0078125,-0.9849243,0.05291748,12.796875,1.125,0.46875
298,-0.018554688,-0.9819946,0.019714355,15.0625,6.03125,1.109375
299,-0.0043945312,-0.9985962,0.014831543,13.21875,2.453125,0.953125
300,0.0007324219,-0.98565674,-0.022033691,12.234375,2.0,0.671875
301,-0.015136719,-0.98150635,-0.034484863,9.0625,-1.546875,0.421875
302,-0.020507812,-0.9963989,-0.03643799,4.125,-1.765625,-0.4375
303,0.0017089844,-0.9649048,-0.047668457,1.3125,-0.9375,0.28125
304,-0.005859375,-1.0015259,-0.045959473,-3.890625,-4.140625,1.046875
305,0.010986328,-0.9624634,-0.031066895,-6.25,0.171875,0.03125
306,0.00024414062,-0.9915161,-0.0256958,-8.375,-3.28125,-1.359375
307,-0.0029296875,-0.96588135,-0.08453369,-28.15625,-12.796875,-1.8125
308,-0.020507812,-0.93414307,0.06756592,-21.5625,-6.5,0.359375
309,0.010009766,-1.0317993,0.10736084,-12.6875,-6.21875,2.109375
310,0.011962891,-1.046936,0.11199951,-0.765625,2.359375,1.1875
311,0.009033203,-1.0003052,0.073913574,-3.390625,0.984375,-0.4375
312,-0.015625,-0.9907837,0.10076904,-1.171875,2.53125,1.1875
313,-0.021728516,-0.97540283,0.074645996,-0.65625,1.015625,2.515625
314,-0.0061035156,-1.0027466,0.06439209,-1.453125,5.6875,1.078125
315,0.0012207031,-1.031311,0.14398193,4.984375,9.9375,-1.765625
316,0.0021972656,-1.0300903,0.11859131,0.40625,-4.3125,-1.6875
317,-0.041259766,-1.0288696,0.09564209,13.640625,-3.859375,1.5625
318,0.03125,-0.9702759,0.06072998,12.703125,5.625,-0.40625
319,0.013916016,-1.0151978,0.028259277,12.859375,2.734375,6.6875
320,0.022949219,-1.0025024,-0.0005493164,13.890625,5.8125,-1.328125
321,0.026123047,-0.98760986,-0.03643799,13.109375,0.953125,0.75
322,0.014404297,-0.9841919,-0.0491333,11.453125,2.125,-0.40625
323,0.0026855469,-0.9768677,-0.059387207,5.40625,0.078125,-0.6875
324,0.017089844,-0.98223877,-0.059631348,-0.078125,-2.859375,0.09375
325,0.025634766,-0.9758911,-0.051086426,-6.46875,-2.890625,-1.53125
326,0.0390625,-0.98101807,-0.027893066,-9.953125,-1.765625,-2.1875
327,0.0063476562,-0.9824829,-0.065979004,-20.25,-7.921875,-3.53125
328,0.005859375,-0.9326782,-0.04425049,-36.0,-11.90625,-3.109375
329,0.055419922,-0.972229,0.10003662,-11.65625,1.640625,4.53125
330,-0.020751953,-1.0579224,0.109558105,-5.59375,0.1875,5.53125
331,-0.013183594,-1.0217896,0.08734131,-3.421875,9.15625,-0.6875
332,0.010986328,-1.015686,0.14300537,-0.234375,10.671875,-2.859375
333,0.0078125,-0.98931885,0.07611084,-3.4375,0.21875,-4.234375
334,0.042236328,-0.9717407,0.089782715,4.9375,5.359375,-0.203125
335,0.0061035156,-1.0071411,0.12420654,2.015625,1.078125,-2.5
336,0.009765625,-1.0325317,0.13909912,12.6875,3.203125,-4.6875
337,-0.020019531,-1.0598755,0.08514404,9.328125,-9.09375,-4.9375
338,-0.052978516,-0.9602661,0.005554199,18.609375,7.8125,-0.671875
339,0.049072266,-1.0147095,0.008483887,21.46875,17.53125,-1.703125
340,-0.032470703,-0.98443604,-0.07159424,16.921875,4.421875,1.921875
341,-0.0048828125,-0.97198486,-0.024230957,15.71875,8.265625,-4.4375
342,-0.03149414,-0.96954346,-0.06744385,4.546875,-0.53125,-1.5625
343,-0.04663086,-0.9661255,-0.07745361,2.671875,-1.3125,-2.5625
344,-0.018798828,-1.0073853,-0.04425049,1.390625,1.4375,-0.828125
345,-0.027832031,-0.97442627,-0.08282471,-5.296875,-6.171875,0.546875
346,-0.00048828125,-0.97369385,-0.05987549,-7.78125,-3.515625,-0.59375
347,-0.0061035156,-0.991272,-0.070617676,-21.46875,-11.421875,2.546875
348,-0.01171875,-0.9475708,-0.082092285,-33.953125,-17.96875,-1.8125
349,0.055664062,-0.9998169,0.11834717,-22.515625,-1.640625,10.609375
350,-0.012939453,-1.039856,0.07757568,-16.71875,-8.09375,0.890625
351,0.03149414,-0.9854126,0.07977295,-0.90625,12.21875,2.84375
352,0.0061035156,-1.039856,0.15252686,-8.4375,4.0625,1.421875
353,-0.0146484375,-0.9927368,0.10491943,-3.796875,5.171875,-4.328125
354,0.020507812,-0.96759033,0.1005249,-1.671875,2.390625,-2.234375
355,-0.021972656,-0.9961548,0.121032715,1.453125,1.203125,0.984375
356,-0.0146484375,-1.0042114,0.14471436,7.734375,4.875,-0.9375
357,0.009765625,-1.0567017,0.15081787,7.0,-2.28125,-1.203125
358,-0.029785156,-1.0523071,0.034606934,12.03125,5.8125,-0.734375
359,0.044189453,-0.9636841,0.06536865,25.953125,12.296875,-1.203125
360,-0.056884766,-0.9697876,-0.025939941,21.546875,-1.578125,-6.96875
361,0.00390625,-0.9956665,-0.009338379,19.5625,3.265625,-4.125
362,-0.045410156,-0.9961548,-0.074523926,9.578125,-2.015625,-3.375
363,-0.011962891,-0.9729614,-0.082336426,6.546875,0.4375,-1.296875
364,-0.02758789,-0.9793091,-0.07891846,4.546875,-4.328125,3.0
365,-0.016845703,-0.9685669,-0.078186035,-0.609375,-0.28125,-0.546875
366,0.0031738281,-0.9898071,-0.06304932,-6.453125,-5.296875,0.28125
367,-0.0021972656,-0.97369385,-0.069885254,-20.21875,-13.375,-1.609375
368,-0.11254883,-0.92926025,-0.13116455,-37.09375,-20.96875,-1.921875
369,0.099365234,-0.9949341,0.20501709,-24.3125,-0.296875,4.953125
370,-0.028564453,-1.0454712,0.058532715,-21.109375,-12.09375,7.671875
371,0.032470703,-0.9961548,0.073913574,0.609375,8.453125,-1.5
372,0.0031738281,-1.0005493,0.12982178,-4.4375,-3.90625,1.109375
373,-0.03881836,-0.99298096,0.09197998,-0.109375,4.0,-2.984375
374,-0.0031738281,-0.975647,0.070007324,1.046875,5.109375,-1.59375
375,-0.017089844,-1.017395,0.08465576,1.96875,3.125,-1.09375
376,-0.005859375,-1.0132446,0.094177246,0.203125,5.0625,-2.765625
377,-0.0012207031,-1.0215454,0.1293335,7.578125,11.765625,-4.046875
378,-0.03564453,-1.0735474,0.09539795,6.125,4.421875,-1.265625
379,0.0014648438,-0.96710205,0.07098389,18.171875,12.015625,2.71875
380,0.010498047,-0.97784424,0.01751709,20.421875,0.4375,4.5625
381,-0.033447266,-0.97857666,-0.027648926,21.328125,7.3125,2.421875
382,0.018554688,-0.99420166,-0.051574707,19.078125,1.53125,1.734375
383,-0.0056152344,-0.98516846,-0.07476807,11.40625,1.984375,0.109375
384,-0.008300781,-0.98931885,-0.06329346,8.015625,-1.140625,2.09375
385,-0.030761719,-0.96051025,-0.07891846,4.15625,1.25,0.375
386,0.040283203,-0.9746704,-0.082336426,-4.453125,-1.296875,-2.046875
387,0.009277344,-0.9685669,-0.0803833,-9.171875,-4.640625,-3.140625
388,0.022705078,-0.98809814,-0.057678223,-20.796875,-7.25,-5.8125
389,-0.06616211,-0.9463501,-0.15704346,-45.78125,-29.6875,-6.546875
390,0.06567383,-0.95562744,0.13983154,-29.390625,3.40625,-1.21875
391,0.028076172,-1.0303345,0.13470459,-19.6875,-13.5625,7.71875
392,-0.05029297,-1.0630493,0.13543701,-0.6875,11.609375,0.5625
393,0.026123047,-0.9907837,0.13787842,-3.71875,-0.078125,-1.46875
394,-0.033935547,-1.0007935,0.13104248,-3.03125,-1.03125,-1.953125
395,-0.016113281,-0.9678345,0.12567139,2.453125,3.21875,-2.078125
396,-0.026855469,-1.0039673,0.113464355,3.421875,0.625,-0.625
397,0.01977539,-1.0059204,0.12005615,3.265625,4.703125,-3.484375
398,-0.0146484375,-1.0020142,0.13153076,8.6875,3.59375,-3.046875
399,-0.037841797,-1.046936,0.0914917,10.3125,0.453125,-2.6875
400,-0.009033203,-1.0029907,0.061950684,15.015625,4.734375,-1.5625
401,-0.019042969,-0.98565674,0.039489746,12.796875,6.125,1.9375
402,-0.022460938,-0.9780884,0.0026245117,13.296875,2.109375,1.0625
403,-0.015380859,-0.9807739,-0.0022583008,12.96875,-0.828125,1.296875
404,0.0007324219,-1.0110474,-0.010803223,11.421875,4.5,0.515625
405,-0.0087890625,-0.9932251,-0.034973145,12.375,1.75,-0.375
406,0.0056152344,-0.987854,-0.05987549,8.578125,1.328125,-1.46875
407,-0.004638672,-0.9898071,-0.07867432,2.796875,-2.984375,0.859375
408,0.006591797,-0.94732666,-0.09429932,-2.25,-4.8125,-0.40625
409,-0.020751953,-0.9973755,-0.06402588,-11.765625,-9.359375,2.703125
410,-0.01171875,-0.9619751,-0.11895752,-39.0,-21.359375,-1.703125
411,0.043945312,-0.9331665,0.08416748,-36.03125,0.0,1.0625
412,-0.02734375,-1.0269165,0.14959717,-21.3125,-12.890625,0.171875
413,0.0078125,-1.0073853,0.13226318,-2.484375,9.0,-0.828125
414,-0.024658203,-1.0303345,0.14007568,-7.03125,4.453125,-1.171875
415,-0.02319336,-1.000061,0.14276123,-2.921875,6.703125,-3.5625
416,-0.02709961,-0.96417236,0.105163574,-2.734375,2.34375,-1.8125
417,-0.0073242188,-1.0027466,0.11224365,-2.796875,6.34375,-0.015625
418,-0.016845703,-0.98101807,0.13983154,3.875,8.65625,2.234375
419,0.014404297,-1.0220337,0.1708374,-6.703125,6.53125,2.296875
420,-0.047851562,-1.017395,0.13543701,6.96875,-4.28125,1.265625
421,-0.04248047,-1.0413208,0.18743896,17.3125,9.09375,2.15625
422,0.04638672,-0.98809814,0.047058105,19.53125,-0.9375,0.3125
423,-0.021484375,-0.93756104,-0.0049438477,21.828125,1.375,0.21875
424,0.041992188,-1.020813,-6.1035156e-05,21.515625,6.734375,-1.46875
425,-0.010498047,-0.9963989,-0.020812988,16.546875,2.078125,0.703125
426,-0.0048828125,-0.9902954,-0.022521973,8.40625,-4.390625,-0.421875
427,0.019042969,-0.96661377,-0.07159424,-0.59375,-1.796875,-1.578125
428,0.036132812,-0.96588135,-0.042541504,-6.125,-5.828125,-0.140625
429,0.0021972656,-0.9783325,-0.028625488,-13.390625,-9.03125,-1.421875
430,0.012451172,-0.9673462,-0.04034424,-32.921875,-16.1875,-5.296875
431,-0.041015625,-0.9221802,-0.06109619,-38.75,-9.484375,-8.203125
432,0.059814453,-0.9890747,0.26190186,-5.78125,8.421875,3.34375
433,-0.07128906,-1.0952759,0.137146,-20.359375,-7.046875,3.96875
434,0.026855469,-0.9685669,0.16912842,8.421875,18.375,0.46875
435,-0.03125,-1.0283813,0.17962646,-11.9375,-6.125,3.296875
436,-0.006591797,-0.96221924,0.14569092,2.6875,9.5,-3.921875
437,0.017089844,-0.96221924,0.14422607,-3.078125,-1.421875,1.4375
438,0.0041503906,-1.0005493,0.14984131,4.328125,5.890625,0.65625
439,0.013916016,-1.0066528,0.17767334,4.421875,-0.78125,-0.90625
440,0.001953125,-1.0098267,0.16595459,7.359375,1.5,0.109375
441,-0.0087890625,-1.020813,0.14593506,11.234375,-6.15625,4.171875
442,-0.001953125,-1.0032349,0.07269287,20.046875,4.578125,6.96875
443,0.009033203,-0.99420166,0.05218506,17.703125,3.34375,6.875
444,0.05859375,-0.9915161,0.011413574,19.890625,9.828125,-1.453125
445,0.071777344,-0.97784424,-0.017150879,15.234375,0.453125,0.25
446,-0.006591797,-0.9678345,-0.018615723,18.109375,3.375,-0.640625
447,0.037109375,-1.0012817,-0.046691895,11.375,4.09375,-2.484375
448,0.026611328,-0.97247314,-0.06939697,3.9375,0.8125,-3.078125
449,0.033447266,-0.954895,-0.069885254,-3.515625,-1.328125,-3.40625
450,0.028808594,-0.9763794,-0.058410645,-13.203125,-8.109375,-3.234375
451,-0.0078125,-0.9607544,-0.13067627,-36.984375,-25.078125,-4.890625
452,0.030029297,-0.9290161,0.06707764,-26.140625,2.421875,1.984375
453,0.0036621094,-1.0808716,0.17352295,-19.875,-19.5625,21.59375
454,0.039794922,-1.017395,0.024353027,-8.703125,12.0,-1.390625
455,0.07543945,-0.9404907,0.12615967,-3.15625,12.265625,1.671875
456,0.041992188,-1.0664673,0.20941162,-5.015625,3.9375,-2.15625
457,0.015625,-0.9487915,0.09442139,2.265625,6.078125,-5.25
458,0.072265625,-0.9751587,0.13031006,2.765625,5.75,-3.09375
459,0.041992188,-1.0105591,0.19598389,9.375,7.671875,-3.375
460,0.011474609,-1.0532837,0.10614014,6.53125,-14.1875,-2.015625
461,0.0043945312,-1.0276489,0.03753662,16.328125,-1.328125,-0.546875
462,0.03125,-1.0042114,0.053649902,20.25,3.546875,5.921875
463,0.048095703,-1.0078735,0.011657715,28.65625,9.203125,7.453125
464,0.034423828,-0.954895,-0.078186035,26.46875,0.421875,5.5
465,0.034179688,-0.9746704,-0.08868408,16.671875,3.25,2.734375
466,0.05883789,-0.97198486,-0.09210205,7.375,0.90625,-1.078125
467,0.046142578,-0.99346924,-0.08892822,8.359375,6.234375,-1.625
468,0.056884766,-0.9536743,-0.101623535,-1.703125,-1.90625,-3.0
469,0.048828125,-0.96588135,-0.09649658,0.03125,-0.65625,-3.0625
470,0.06640625,-0.96710205,-0.117492676,-9.46875,-2.921875,-3.25
471,0.029296875,-0.9614868,-0.13726807,-29.6875,-15.890625,-5.078125
472,-0.015380859,-0.9417114,-0.09527588,-39.0625,-18.484375,-9.015625
473,0.08520508,-1.003479,0.17181396,-27.203125,-9.203125,11.84375
474,-0.005126953,-1.0852661,0.113708496,-15.4375,-1.5,-0.671875
475,0.044921875,-0.9451294,0.06781006,-6.125,3.296875,-9.9375
476,0.048339844,-1.038147,0.12030029,-9.546875,5.34375,-3.96875
477,0.020996094,-0.97442627,0.08294678,-5.375,4.15625,-5.28125
478,0.01977539,-0.9524536,0.094177246,0.359375,8.015625,-1.03125
479,0.030761719,-1.006897,0.13397217,5.421875,10.453125,0.09375
480,0.044921875,-1.019104,0.12347412,2.15625,7.25,-7.4375
481,0.0075683594,-0.9480591,0.13201904,10.25,-0.28125,-10.609375
482,-0.10058594,-1.0801392,0.047790527,15.6875,-4.890625,-1.890625
483,0.028564453,-1.0759888,0.08514404,20.109375,6.875,4.296875
484,-0.04296875,-0.9963989,-0.03643799,19.734375,-1.078125,14.3125
485,-0.008300781,-0.975647,-0.0049438477,26.171875,13.453125,2.015625
486,0.0690918,-0.9204712,-0.11627197,14.78125,-1.46875,-0.359375
487,-0.0031738281,-0.98321533,-0.08135986,12.640625,2.859375,-0.53125
488,-0.0007324219,-1.0015259,-0.089904785,5.15625,-0.90625,1.265625
489,0.010253906,-0.9824829,-0.101623535,3.234375,0.453125,0.8125
490,0.056640625,-0.9612427,-0.11602783,-5.59375,-0.28125,-0.640625
491,0.067871094,-0.96539307,-0.09674072,-12.734375,-4.796875,-2.984375
492,-0.01977539,-0.9458618,-0.16461182,-31.953125,-21.390625,-4.46875
493,-0.08227539,-0.95269775,0.011413574,-29.328125,-1.6875,-4.078125
494,0.1328125,-1.015686,0.1359253,-27.234375,-2.296875,18.234375
495,-0.057861328,-1.0759888,0.0993042,-6.09375,-1.5625,0.703125
496,0.07104492,-0.93536377,0.06732178,-10.65625,-0.65625,-11.296875
497,0.017822266,-1.0076294,0.07904053,-10.703125,-1.4375,-2.140625
498,-0.0021972656,-1.0147095,0.10418701,-6.4375,6.53125,-4.25
499,0.045166016,-0.960022,0.0848999,-3.03125,6.203125,-2.046875
500,0.032958984,-0.99468994,0.1281128,1.3125,9.875,-4.265625
501,0.01953125,-0.9993286,0.15130615,12.65625,12.0,-4.015625
502,-0.040039062,-1.0559692,0.13275146,18.71875,0.953125,-1.328125
503,0.013427734,-1.0344849,0.07684326,24.484375,4.171875,7.015625
504,0.012451172,-0.99102783,-0.009338379,27.421875,-1.671875,5.5625
505,-0.012939453,-0.93414307,-0.066467285,27.90625,0.765625,5.09375
506,0.021972656,-0.9915161,-0.0713501,22.015625,2.953125,0.90625
507,0.02368164,-0.9920044,-0.10479736,13.484375,-0.40625,-1.609375
508,0.010986328,-0.97369385,-0.13458252,8.375,2.0625,-3.703125
509,0.038330078,-1.0042114,-0.12554932,2.046875,-2.40625,-0.75
510,0.032958984,-0.94000244,-0.15167236,-5.515625,-0.796875,-3.0
511,0.06933594,-0.97369385,-0.101623535,-15.875,-2.765625,-3.609375
512,0.03881836,-0.94415283,-0.10430908,-26.6875,-8.46875,-7.359375
513,-0.104003906,-0.9661255,-0.14849854,-40.234375,-19.5625,-8.453125
514,0.088378906,-0.9397583,0.18572998,-6.390625,5.359375,5.640625
515,-0.047607422,-1.1419067,0.08123779,-19.796875,-16.5,20.09375
516,0.0087890625,-1.0300903,0.054138184,-4.40625,13.078125,-1.34375
517,0.10424805,-0.9710083,0.046325684,-14.25,-4.125,0.359375
518,-0.0056152344,-0.973938,0.07196045,-4.296875,5.40625,-0.578125
519,0.048095703,-0.99224854,0.09246826,-3.921875,6.703125,-2.921875
520,0.055664062,-1.0046997,0.07537842,-1.40625,6.671875,-3.640625
521,0.032958984,-1.0457153,0.12542725,4.203125,4.421875,-5.265625
522,0.014892578,-0.9795532,0.07952881,12.1875,5.8125,-13.203125
523,-0.030517578,-1.0227661,0.074157715,18.0,0.71875,-0.78125
524,-0.03491211,-1.0476685,0.020202637,14.203125,1.765625,-2.21875
525,0.053466797,-0.9915161,-0.02911377,16.4375,4.8125,5.96875
526,-0.024658203,-0.9771118,-0.045959473,16.671875,2.78125,4.0
527,0.023925781,-0.96539307,-0.06964111,14.140625,-0.09375,1.828125
528,0.022705078,-0.972229,-0.066223145,11.84375,-1.703125,4.1875
529,0.0007324219,-0.98223877,-0.093811035,6.390625,-2.53125,2.125
530,0.05078125,-0.9883423,-0.078430176,2.40625,-0.65625,0.46875
531,0.052001953,-0.9758911,-0.10430908,-2.5,-4.609375,0.046875
532,0.052001953,-0.9553833,-0.09503174,-6.078125,-3.03125,-3.265625
533,0.05517578,-0.97442627,-0.09136963,-19.46875,-6.0,-5.390625
534,-0.04736328,-0.93341064,-0.20318604,-38.953125,-24.6875,-7.15625
535,0.020263672,-1.0144653,0.17913818,-25.140625,14.421875,11.25
536,0.0021972656,-1.1089478,0.16351318,-27.359375,-4.9375,14.15625
537,0.052246094,-0.9776001,0.0446167,-6.53125,8.828125,-6.5625
538,0.07006836,-0.97076416,0.121520996,-6.3125,1.8125,0.546875
539,0.029052734,-1.0090942,0.11517334,-2.8125,1.6875,-2.75
540,0.048339844,-0.98394775,0.09246826,1.53125,3.28125,-0.921875
541,0.015625,-1.0169067,0.13006592,3.40625,4.09375,-2.84375
542,0.034423828,-1.0020142,0.11175537,7.8125,1.71875,-4.796875
543,0.013916016,-1.0066528,0.10272217,14.640625,-3.421875,-0.234375
544,-0.011230469,-1.017395,0.055603027,17.625,2.5,-4.6875
545,0.036132812,-0.98443604,0.014099121,15.15625,1.953125,-2.953125
546,0.011474609,-1.0127563,-0.008850098,10.328125,-0.125,-0.421875
547,0.018798828,-0.99468994,-0.0068969727,13.15625,-1.390625,0.0
548,0.0012207031,-0.98150635,-0.046691895,10.453125,-0.59375,0.8125
549,0.015380859,-0.9846802,-0.062561035,6.734375,-3.84375,1.28125
550,0.0078125,-0.9541626,-0.07159424,1.625,-1.140625,-0.75
551,0.025878906,-0.99713135,-0.04840088,-3.015625,1.921875,-3.796875
552,0.030029297,-0.9697876,-0.051818848,-7.984375,-1.78125,-3.84375
553,-0.0234375,-0.98223877,-0.07159424,-12.84375,-2.53125,-4.484375
554,0.04321289,-0.975647,-0.06500244,-38.234375,-6.4375,-3.640625
555,0.032714844,-0.8850708,0.08685303,-14.5,-0.03125,6.34375
556,-0.017333984,-1.1043091,0.21917725,-2.0,4.703125,12.125
557,-0.017578125,-1.0371704,0.09466553,-4.859375,-3.59375,-1.078125
558,0.030273438,-0.9937134,0.08734131,-2.1875,5.75,-1.859375
559,0.018310547,-1.0059204,0.097351074,-3.03125,-2.8125,1.640625
560,0.06518555,-0.9841919,0.07342529,1.53125,0.375,-0.0625
561,0.01171875,-0.9639282,0.046569824,1.296875,-3.0625,-2.3125
562,0.026855469,-0.9907837,0.05706787,3.703125,5.625,-5.609375
563,0.03149414,-1.024231,0.1005249,5.515625,5.96875,-6.53125
564,-0.022705078,-1.0369263,0.0524292,6.890625,-0.078125,-7.078125
565,-0.052978516,-1.0095825,0.06732178,15.453125,4.546875,0.125
566,-0.005126953,-0.9800415,0.042663574,11.109375,0.171875,1.515625
567,0.001953125,-0.97613525,-0.023010254,11.859375,0.3125,5.984375
568,-0.032470703,-0.99053955,-0.019836426,12.28125,1.890625,0.21875
569,0.028320312,-0.99346924,-0.031311035,9.671875,2.40625,-0.296875
570,0.0068359375,-0.9849243,-0.04156494,9.375,0.6875,0.328125
571,0.017333984,-0.9859009,-0.06768799,4.828125,1.59375,-0.796875
572,0.036621094,-0.975647,-0.09527588,-1.5625,-3.515625,-0.40625
573,0.021972656,-0.9907837,-0.09869385,-12.359375,-9.015625,-0.5625
574,0.036865234,-0.9717407,-0.11383057,-29.40625,-10.453125,-4.40625
575,0.030761719,-0.8887329,-0.07574463,-44.640625,-12.03125,-1.953125
576,0.022216797,-1.0181274,0.20819092,-11.046875,5.53125,11.234375
577,-0.053710938,-1.0855103,0.2230835,-10.046875,-0.203125,0.671875
578,0.0068359375,-0.9649048,0.07318115,-4.46875,4.203125,-6.21875
579,0.033447266,-1.0005493,0.1449585,2.15625,6.703125,-0.125
580,-0.006591797,-0.9951782,0.10882568,2.84375,-0.71875,-1.796875
581,0.0234375,-0.98565674,0.09637451,5.4375,3.78125,-4.015625
582,0.0126953125,-0.9963989,0.09466553,8.484375,-0.59375,0.0
583,-0.0061035156,-1.006897,0.06512451,8.09375,-3.25,-0.140625
584,-0.011230469,-1.0244751,0.08685303,10.515625,0.359375,2.203125
585,-0.014892578,-1.0696411,0.13812256,9.25,-1.5625,2.671875
586,0.0073242188,-1.000061,-0.004699707,7.75,-2.4375,0.359375
587,0.01953125,-0.93048096,-0.021057129,16.421875,1.5,0.40625
588,0.04638672,-0.97662354,-0.0178833,11.96875,3.03125,0.5625
589,0.03540039,-0.9680786,-0.034729004,14.15625,-0.96875,3.03125
590,0.0234375,-0.9920044,-0.042541504,13.40625,-0.65625,3.09375
591,0.01977539,-1.008606,-0.043518066,10.6875,-2.78125,3.484375
592,0.0036621094,-0.97979736,-0.081604004,4.078125,-2.0,-1.59375
593,0.059814453,-0.95025635,-0.09893799,-4.46875,1.15625,-3.515625
594,0.015380859,-0.9717407,-0.16339111,-17.03125,-4.484375,-4.765625
595,0.05859375,-0.9495239,-0.047180176,-37.859375,2.109375,-9.515625
596,0.0,-0.90216064,0.07098389,-22.796875,-6.703125,9.75
597,-0.0546875,-1.1414185,0.15447998,-9.0,1.6875,-2.796875
598,0.028076172,-0.96881104,0.03778076,-9.78125,0.53125,-8.640625
599,-0.020263672,-1.0210571,0.07977295,-2.25,10.515625,-0.96875
600,0.01953125,-0.98150635,0.0848999,-1.15625,5.53125,-3.09375
601,0.01953125,-0.96295166,0.07733154,3.9375,3.578125,2.328125
602,-0.0014648438,-1.0112915,0.070007324,6.90625,3.734375,0.515625
603,0.052978516,-1.0007935,0.025817871,6.953125,5.25,-4.53125
604,-0.021728516,-1.0291138,0.036315918,-2.921875,3.03125,1.640625
605,-0.037597656,-1.0952759,0.12640381,3.984375,0.421875,-3.453125
606,-0.024414062,-0.93927,-0.0005493164,1.5,-1.9375,-0.96875
607,0.011962891,-0.9944458,0.086120605,19.984375,6.0625,4.703125
608,-0.013671875,-0.9841919,-0.019592285,12.578125,-2.59375,2.84375
609,0.015380859,-0.9993286,-0.00592041,18.5,0.609375,3.515625
610,-0.00048828125,-0.9663696,-0.062805176,12.546875,-3.171875,3.0
611,0.036865234,-0.9924927,-0.08673096,9.515625,-0.59375,0.515625
612,0.03930664,-0.96221924,-0.09136963,0.5625,-2.65625,0.90625
613,0.03466797,-0.97662354,-0.07965088,-4.8125,1.515625,-2.578125
614,0.05419922,-0.95318604,-0.08355713,-10.859375,-0.625,-4.875
615,-0.030517578,-0.9627075,-0.11968994,-19.5625,-2.25,-6.15625
616,-0.018798828,-0.96954346,0.028259277,-20.390625,-6.796875,0.65625
617,0.05834961,-1.0501099,0.09613037,-23.0,-2.640625,19.453125
618,-0.0078125,-1.041565,0.08856201,-13.65625,2.09375,-2.59375
619,0.04638672,-0.96099854,0.06732178,-2.953125,0.34375,-6.671875
620,0.009277344,-0.98883057,0.074401855,-2.828125,-0.125,-2.53125
621,0.013671875,-0.9915161,0.09588623,7.65625,5.0,0.03125
622,0.03173828,-1.0274048,0.041931152,3.75,-2.09375,-1.234375
623,0.064208984,-0.9793091,0.048034668,6.875,2.1875,-2.953125
624,0.03881836,-0.9714966,0.057800293,1.09375,1.578125,-10.046875
625,-0.032958984,-1.0278931,0.047790527,10.8125,6.828125,-3.671875
626,-0.0012207031,-1.0523071,0.06585693,17.5,3.8125,0.265625
627,-0.049072266,-1.0112915,0.008972168,9.234375,-3.78125,6.984375
628,-0.00024414062,-0.94244385,-6.1035156e-05,17.296875,3.78125,1.5
629,0.012207031,-0.9854126,-0.055480957,11.75,0.34375,2.640625
630,0.026123047,-0.99957275,-0.0635376,12.4375,2.078125,0.4375
631,0.04296875,-0.98272705,-0.066711426,7.3125,-2.546875,1.171875
632,0.01928711,-0.95880127,-0.093566895,3.671875,-2.328125,-0.5
633,0.075927734,-0.956604,-0.10015869,-0.953125,1.515625,-3.15625
634,0.037109375,-0.9585571,-0.09088135,-8.234375,-4.5625,-3.3125
635,-0.008544922,-0.9522095,-0.12750244,-16.96875,-5.140625,-6.984375
636,-0.018310547,-0.9812622,-0.11627197,-37.109375,-6.265625,-8.71875
637,0.03515625,-0.94366455,0.10003662,-27.203125,-9.828125,13.59375
638,-0.07348633,-1.1397095,0.18353271,-12.4375,-7.859375,9.9375
639,0.026855469,-0.96466064,0.059509277,-9.03125,3.40625,-7.84375
640,0.020751953,-0.9985962,0.06121826,-3.390625,5.5,2.0625
641,0.035888672,-0.9871216,0.0914917,-0.625,6.9375,-0.875
642,0.038085938,-0.9668579,0.04876709,5.25,4.5,1.625
643,0.0234375,-0.9949341,0.07147217,8.765625,6.296875,2.046875
644,0.010009766,-1.0169067,0.085876465,5.78125,4.40625,-0.203125
645,-0.009765625,-1.0518188,0.09954834,2.34375,-0.125,-1.390625
646,0.0043945312,-1.102356,0.09051514,12.90625,-5.6875,-4.21875
647,0.0146484375,-0.9336548,-0.031799316,24.90625,6.5,2.484375
648,0.03857422,-0.986145,-0.05645752,19.90625,-4.078125,9.25
649,0.022705078,-0.9678345,-0.10479736,23.15625,8.15625,3.578125
650,0.0390625,-0.9985962,-0.101379395,14.359375,0.171875,0.75
651,0.045898438,-0.96343994,-0.12506104,10.5625,-0.796875,-2.1875
652,0.057861328,-0.94244385,-0.12530518,1.90625,-2.5,-1.4375
653,0.04345703,-0.96588135,-0.13238525,-1.546875,2.078125,-5.78125
654,0.07080078,-0.97369385,-0.11529541,-9.9375,-1.140625,-4.875
655,0.047607422,-0.9590454,-0.11895752,-21.296875,-2.28125,-10.109375
656,-0.041748047,-0.9290161,-0.12799072,-19.75,-5.09375,-5.703125
657,-0.032226562,-1.0352173,0.050476074,-22.859375,-12.03125,2.34375
658,0.040039062,-1.0623169,0.137146,-16.8125,-2.171875,14.140625
659,-0.06665039,-1.0130005,0.021911621,-8.046875,-12.84375,-6.703125
660,0.068359375,-0.9434204,0.02557373,-2.40625,4.96875,1.0625
661,0.018310547,-1.0352173,0.015808105,-9.796875,-3.765625,2.03125
662,0.056884766,-0.97613525,0.034606934,-1.5,6.671875,-2.765625
663,0.046875,-0.9837036,0.026306152,-3.109375,5.375,0.234375
664,0.080566406,-0.9932251,0.06536865,6.078125,17.40625,-4.765625
665,0.010986328,-1.0435181,0.09075928,9.0,6.6875,0.09375
666,-0.088134766,-1.107727,0.07659912,12.609375,0.578125,0.40625
667,0.032470703,-0.97247314,0.039733887,18.734375,0.75,1.640625
668,-0.009033203,-0.9668579,-0.086242676,19.890625,3.0625,2.171875
669,0.036621094,-0.9631958,-0.0647583,18.265625,1.3125,1.65625
670,0.02734375,-0.9998169,-0.09649658,16.984375,-1.296875,2.671875
671,0.0234375,-0.9800415,-0.09259033,13.109375,-0.890625,-1.625
672,0.006591797,-0.9607544,-0.13092041,3.125,-3.40625,-2.4375
673,0.040039062,-0.9710083,-0.12896729,4.78125,5.46875,-3.078125
674,0.045898438,-0.9595337,-0.13140869,-3.421875,-1.921875,-0.703125
675,0.029785156,-0.9570923,-0.13287354,-7.46875,-2.4375,-3.28125
676,0.06640625,-0.96661377,-0.11578369,-18.921875,-2.515625,-6.71875
677,-0.043701172,-0.9295044,-0.22686768,-28.21875,-7.421875,-4.75
678,0.049804688,-0.928772,0.039245605,-34.0,-6.875,2.875
679,-0.041992188,-1.0425415,0.121520996,-18.171875,-9.265625,17.84375
680,-0.0012207031,-1.1028442,0.13006592,-7.203125,2.3125,-6.9375
681,0.021728516,-1.0007935,0.035583496,-5.8125,-4.8125,-3.390625
682,0.039794922,-0.9673462,0.07220459,0.3125,1.515625,-2.640625
683,0.0053710938,-0.9741821,0.036071777,3.390625,0.0,1.859375
684,0.026123047,-1.010315,0.034851074,7.140625,4.640625,0.546875
685,0.061035156,-1.0056763,0.0289917,3.96875,6.453125,-5.125
686,0.0546875,-0.98883057,0.008728027,4.921875,6.21875,-7.71875
687,-0.011474609,-1.0220337,0.05609131,9.796875,2.203125,-3.953125
688,-0.06958008,-1.0371704,0.03363037,15.359375,6.65625,2.046875
689,0.011474609,-1.0413208,0.02142334,12.25,3.875,2.625
690,-0.008544922,-0.973938,-0.06378174,18.453125,-0.4375,0.984375
691,0.026123047,-0.9534302,-0.06719971,16.828125,-1.34375,-1.578125
692,-0.00024414062,-0.9529419,-0.117004395,15.34375,-2.828125,1.75
693,-0.0014648438,-0.9956665,-0.10357666,11.890625,0.359375,1.8125
694,0.010253906,-0.9649048,-0.12384033,1.171875,-7.0625,1.515625
695,0.033691406,-0.94854736,-0.1350708,-4.09375,-2.78125,-0.890625
696,0.048339844,-0.9614868,-0.12677002,-11.609375,-1.921875,-4.453125
697,0.047851562,-0.9612427,-0.11968994,-24.453125,-4.5625,-6.078125
698,-0.095703125,-0.95147705,-0.17803955,-33.1875,-11.28125,-7.546875
699,0.11743164,-0.9402466,0.17254639,-12.0,-11.859375,10.3125
700,-0.06591797,-1.1358032,0.10296631,-16.28125,-16.15625,15.21875
701,-0.0056152344,-0.98565674,0.024353027,-3.625,8.265625,-8.84375
702,0.08081055,-0.99420166,0.0524292,-5.484375,3.265625,-1.671875
703,-0.0053710938,-1.0090942,0.055847168,0.40625,3.25,-3.4375
704,0.04638672,-0.9883423,0.015075684,-1.484375,2.0625,-3.609375
705,0.02758789,-0.9973755,0.016540527,0.359375,9.421875,-5.453125
706,0.056396484,-1.005188,0.0289917,-5.390625,7.1875,-8.671875
707,-0.033447266,-0.97662354,0.053649902,-1.171875,7.34375,-7.296875
708,-0.07788086,-1.144104,0.13128662,10.921875,1.609375,5.828125
709,-0.04345703,-1.0003052,0.038757324,9.265625,-1.234375,2.859375
710,0.053466797,-0.95269775,0.010437012,15.71875,2.65625,6.84375
711,-0.026611328,-0.96832275,-0.053527832,15.921875,-3.046875,1.96875
712,0.009521484,-0.9546509,-0.06695557,16.6875,3.4375,-0.21875
713,0.015136719,-1.0105591,-0.06329346,12.703125,-1.234375,2.203125
714,-0.008544922,-0.9788208,-0.090148926,7.203125,0.6875,0.015625
715,0.048828125,-0.9458618,-0.109680176,-1.078125,-2.265625,-1.109375
716,0.046875,-0.95806885,-0.09918213,-4.359375,0.59375,-2.828125
717,0.052978516,-0.98565674,-0.08843994,-11.109375,-2.671875,-3.359375
718,0.004638672,-0.9470825,-0.1362915,-16.875,-5.40625,-4.265625
719,-0.027832031,-0.9368286,-0.04058838,-18.859375,-9.890625,4.109375
720,0.02368164,-1.0359497,0.124694824,-10.84375,-3.3125,22.015625
721,-0.08129883,-1.0567017,0.09979248,-10.140625,-17.234375,6.890625
722,0.08642578,-1.0061646,0.012145996,-3.5625,5.359375,-3.265625
723,0.09277344,-0.9741821,0.05657959,-3.03125,-6.390625,4.296875
724,0.048339844,-1.0244751,0.03387451,0.9375,0.8125,-3.1875
725,0.076416016,-0.9661255,-0.008605957,0.71875,-3.265625,-4.46875
726,0.0390625,-0.9973755,0.010192871,3.234375,5.921875,-4.421875
727,0.075927734,-0.9819946,0.040222168,5.9375,9.046875,-5.15625
728,-0.0043945312,-0.9968872,0.0079956055,3.828125,3.0,-1.171875
729,-0.006591797,-1.1018677,0.058288574,16.65625,18.28125,7.390625
730,-0.0078125,-1.052063,0.02947998,11.765625,-2.328125,7.4375
731,0.01928711,-0.9536743,-0.05279541,24.015625,13.53125,-0.890625
732,0.07763672,-0.9483032,-0.10455322,17.78125,-1.375,1.515625
733,-0.017578125,-0.987854,-0.12750244,16.296875,7.171875,0.34375
734,0.05419922,-0.9873657,-0.14459229,8.0,5.578125,-1.90625
735,0.03930664,-0.95562744,-0.16021729,4.734375,4.015625,-2.703125
736,0.064208984,-0.94781494,-0.15875244,0.890625,3.15625,-4.1875
737,0.06567383,-0.93829346,-0.15020752,-4.390625,2.375,-2.125
738,0.07788086,-0.94903564,-0.16217041,-14.546875,-4.953125,-4.984375
739,0.040527344,-0.92266846,-0.17584229,-35.6875,-17.0625,-8.078125
740,-0.095703125,-0.89849854,-0.1572876,-33.265625,-11.609375,-3.203125
741,0.21313477,-1.0628052,0.16888428,-8.921875,2.1875,23.71875
742,-0.064941406,-1.1213989,0.018737793,-15.84375,-16.109375,13.015625
743,0.08886719,-0.9729614,0.011413574,-3.484375,11.625,-4.5625
744,0.06298828,-1.0164185,0.07489014,-8.703125,-7.453125,-2.578125
745,0.018310547,-0.9854126,0.026062012,-4.21875,0.0,-5.109375
746,0.08105469,-0.98760986,0.04486084,-5.03125,1.859375,-4.03125
747,0.051757812,-0.9849243,0.01776123,-3.3125,1.046875,-2.421875
748,0.08959961,-0.9939575,0.06097412,1.34375,8.609375,-8.34375
749,0.040771484,-0.9932251,0.06390381,4.875,7.84375,-3.796875
750,-0.0068359375,-1.0859985,0.08099365,11.5625,1.09375,5.546875
751,0.013671875,-0.9976196,0.0524292,14.109375,0.125,6.328125
752,0.0056152344,-1.00177,-0.016662598,27.328125,3.96875,5.125
753,0.047851562,-0.9932251,-0.081604004,23.734375,-1.03125,1.9375
754,0.059326172,-0.97442627,-0.10626221,26.328125,7.6875,1.953125
755,0.052001953,-0.942688,-0.1428833,17.5625,-3.765625,1.0625
756,0.048339844,-0.94366455,-0.1609497,4.5,-1.21875,-2.296875
757,0.09838867,-0.96051025,-0.14483643,-0.03125,1.078125,-2.25
758,0.07421875,-0.96295166,-0.14849854,-7.640625,-0.71875,-3.65625
759,0.07348633,-0.9483032,-0.1404419,-22.71875,-5.125,-6.703125
760,0.0107421875,-0.90997314,-0.17633057,-46.28125,-19.21875,-10.21875
761,0.013427734,-0.89801025,-6.1035156e-05,-26.03125,2.875,-11.9375
762,0.011474609,-1.1914673,0.18597412,-21.515625,-6.265625,15.734375
763,-0.028808594,-1.0540161,0.09051514,-24.34375,-4.25,-2.328125
764,0.04345703,-0.95513916,0.13739014,-16.53125,16.484375,-10.71875
765,0.029785156,-0.9834595,0.15032959,-12.671875,-0.296875,-4.28125
766,0.0031738281,-0.97198486,0.11468506,-1.171875,3.921875,-5.96875
767,0.0063476562,-0.97857666,0.14788818,1.125,0.953125,2.265625
768,-0.033203125,-1.0383911,0.15667725,4.875,0.4375,0.1875
769,0.043701172,-1.0059204,0.13446045,10.96875,-1.40625,-3.1875
770,0.030273438,-0.99542236,0.06732178,11.265625,-7.953125,7.265625
771,0.056396484,-1.0232544,0.027038574,20.296875,4.5625,5.9375
772,0.049560547,-0.9495239,-0.04034424,15.96875,0.046875,7.953125
773,0.044189453,-0.9949341,0.031677246,25.53125,10.109375,7.09375
774,0.032714844,-1.0193481,-0.009094238,22.25,-1.265625,9.6875
775,0.026123047,-1.0169067,-0.05621338,21.46875,-1.171875,6.21875
776,0.08544922,-0.96588135,-0.081604004,17.1875,2.328125,0.921875
777,0.071777344,-0.94317627,-0.12774658,10.078125,-6.734375,2.21875
778,0.12207031,-0.9561157,-0.11065674,3.140625,3.34375,-3.0625
779,0.083740234,-0.96343994,-0.13238525,-7.53125,-4.25,-2.890625
780,0.07495117,-0.93829346,-0.13458252,-22.265625,2.640625,-10.671875
781,0.03955078,-0.958313,-0.0725708,-34.765625,1.28125,-11.28125
782,-0.0048828125,-1.000061,-0.08087158,-42.125,-14.546875,-6.265625
783,0.068359375,-1.045227,0.19476318,-18.953125,6.234375,11.03125
784,0.014404297,-1.0530396,0.16375732,-28.921875,-21.84375,-2.15625
