sample_no,accel_x,accel_y,accel_z,gyro_x,gyro_y,gyro_z
0,-0.4543457,-0.06744385,0.96258545,24.96875,4.8125,4.40625
1,-0.48510742,-0.101135254,0.9603882,4.375,-14.734375,3.046875
2,-0.45483398,-0.09820557,0.93255615,-7.203125,-12.046875,-2.109375
3,-0.49780273,-0.11993408,0.9816284,-4.65625,-6.296875,0.9375
4,-0.46899414,-0.0647583,0.9159546,-8.90625,-4.234375,1.265625
5,-0.49487305,-0.11187744,0.97650146,-2.203125,2.0,1.09375
6,-0.5036621,-0.12384033,0.9887085,0.78125,5.71875,0.71875
7,-0.4794922,-0.09820557,0.9406128,1.0625,7.03125,0.265625
8,-0.44726562,-0.085754395,0.97650146,4.265625,7.171875,-0.15625
9,-0.48535156,-0.12286377,1.0629271999999998,2.375,10.921875,-0.3125
10,-0.4880371,-0.117004395,1.0182495,0.78125,7.546875,0.203125
11,-0.42456055,-0.04864502,0.96746826,-3.890625,2.25,-1.75
12,-0.43896484,-0.0725708,0.9882202,-6.65625,-1.21875,-2.4375
13,-0.45410156,-0.043273926,0.95648193,-14.859375,-7.671875,-2.515625
14,-0.4350585999999999,-0.0010375977,0.9730835,-11.984375,-5.6875,-3.3125
15,-0.45996094,-0.032043457,0.97283936,-4.671875,-8.5,-1.828125
16,-0.48901367,-0.003967285,0.947937,-3.796875,-8.84375,-0.734375
17,-0.43066406,0.002380371,0.9310913,1.03125,-4.0625,-0.640625
18,-0.47753906,-0.0015258789,0.930603,23.375,2.03125,1.21875
19,-0.4909668,-0.019348145,0.96014404,34.34375,6.859375,6.0625
20,-0.4831543,-0.13555908,0.9411011,9.21875,-11.96875,3.140625
21,-0.47705078,-0.124572754,0.98968506,5.234375,0.703125,0.65625
22,-0.4819335999999999,-0.09527588,0.96624756,-2.390625,-2.609375,0.5
23,-0.45654297,-0.06329346,0.91986084,-1.84375,1.859375,1.84375
24,-0.46435547,-0.1296997,0.9911499,2.34375,3.3125,1.359375
25,-0.4970702999999999,-0.15411377,0.9801636,0.296875,5.59375,0.78125
26,-0.45043945,-0.13067627,0.96673584,1.640625,7.75,0.109375
27,-0.4104004,-0.13995361,0.9989624,1.21875,7.890625,-0.6875
28,-0.51708984,-0.13726807,1.0448608,2.171875,8.25,1.21875
29,-0.44677734,-0.11505127,1.0165405,-4.140625,2.15625,-0.03125
30,-0.42797852,-0.07305908,0.9747925,-11.390625,-1.984375,-2.578125
31,-0.4489746,-0.07647705,0.9606323,-15.125,-4.109375,-1.953125
32,-0.4248047,-0.035461426,0.949646,-5.953125,1.3125,-1.5625
33,-0.4489746,-0.06427002,1.0038452,-0.0625,0.46875,-1.515625
34,-0.46655273,-0.042053223,0.97698975,-1.609375,-7.140625,-0.890625
35,-0.44384766,-0.0591430659999999,0.98895264,-6.328125,-8.9375,-2.34375
36,-0.42285156,-0.0178833,0.9760132,-6.546875,-7.359375,-1.84375
37,-0.4814452999999999,0.023376465,0.9135132,1.359375,-5.5,-0.1875
38,-0.46972656,0.0079956055,0.9489136,22.484375,1.515625,0.171875
39,-0.4777832,-0.0335083,0.9257202,22.53125,3.09375,5.4375
40,-0.47924805,-0.10870361,0.9611206,10.328125,-12.515625,4.421875
41,-0.42797852,-0.14581299,0.9249878,1.640625,-2.75,1.875
42,-0.55859375,-0.08526611,0.9645386,2.140625,-2.734375,3.03125
43,-0.4494629,-0.10040283,0.9887085,1.171875,5.5625,3.546875
44,-0.45922852,-0.14801025,0.9672241,-0.6875,1.046875,1.75
45,-0.49951172,-0.1182251,0.97943115,0.0625,5.90625,0.359375
46,-0.44360352,-0.16656494,0.9891968,-1.90625,8.09375,-0.9375
47,-0.4091797,-0.13140869,1.0040894,1.25,8.15625,-1.6875
48,-0.4741210999999999,-0.13458252,1.0228882,1.4375,4.703125,-2.03125
49,-0.47094727,-0.14971924,1.0150757,-2.203125,3.140625,-0.28125
50,-0.3947754,-0.0628051759999999,0.9657593,-11.15625,-1.640625,-2.8125
51,-0.43139648,-0.06549072,0.9760132,-6.296875,0.609375,-3.484375
52,-0.47973633,-0.082092285,0.977478,0.0,5.578125,1.234375
53,-0.4284668,-0.06524658,0.96917725,-8.125,-7.59375,-2.359375
54,-0.42041016,-0.06964111,0.99383545,-5.296875,-6.65625,-2.5
55,-0.4819335999999999,-0.057434082,0.9525757,-4.296875,-5.859375,0.109375
56,-0.42236328,0.0150756839999999,0.93743896,-3.1875,-12.125,-1.453125
57,-0.47192383,-0.0051879883,0.9750366,14.328125,-8.90625,-1.09375
58,-0.47851562,-0.0032348633,0.8908081,18.421875,-2.390625,5.625
59,-0.44677734,-0.13043213,0.8993530000000001,13.1875,0.703125,3.984375
60,-0.48706055,-0.1560668999999999,0.98553467,9.359375,4.9375,4.375
61,-0.4753418,-0.15411377,0.99139404,-0.171875,-0.78125,0.703125
62,-0.4584960999999999,-0.08673096,0.9423218,-0.671875,-1.640625,0.8125
63,-0.43701172,-0.10992432,0.9598999,0.328125,3.328125,1.546875
64,-0.45898438,-0.16900635,0.98480225,-2.078125,2.0,-0.515625
65,-0.43896484,-0.16534424,0.9730835,-5.65625,2.359375,-2.046875
66,-0.46850586,-0.12384033,0.97772217,-1.25,4.0,-0.78125
67,-0.46850586,-0.17144775,1.0297241,0.90625,7.828125,-1.46875
68,-0.47680664,-0.11627197,0.9904175,1.109375,4.671875,-0.046875
69,-0.4008789,-0.027893066,0.95599365,-3.296875,2.203125,-1.890625
70,-0.4440918,-0.07696533,0.96990967,-0.84375,3.609375,-1.140625
71,-0.42993164,-0.12188721,1.0304565,1.46875,2.84375,-0.328125
72,-0.42114258,-0.0979614259999999,0.97283936,-5.078125,-3.015625,-2.078125
73,-0.45092773,-0.05303955,0.9923706,-4.265625,-4.484375,-2.515625
74,-0.41967773,-0.09234619,0.92474365,-7.375,-7.40625,-1.59375
75,-0.48950195,-0.018127441,0.98065186,1.1875,-11.8125,-1.046875
76,-0.44799805,-0.04937744,0.9633179,6.765625,-15.265625,-2.90625
77,-0.47607422,-0.004211426,0.92718506,15.296875,-5.0,1.390625
78,-0.41479492,-0.12506104,0.8810425,9.484375,-2.046875,5.078125
79,-0.45239258,-0.17388916,0.98724365,5.28125,-1.171875,2.265625
80,-0.50805664,-0.1560668999999999,1.00531,-2.53125,-1.921875,0.78125
81,-0.45092773,-0.14141846,0.9196167,-2.15625,3.4375,1.234375
82,-0.46557617,-0.058654785,0.980896,0.125,3.09375,1.90625
83,-0.4777832,-0.13775635,1.0038452,0.703125,3.9375,-0.375
84,-0.47192383,-0.1609497,1.0197144,0.265625,6.359375,-1.96875
85,-0.43432617,-0.13604736,0.9789429,-0.140625,7.796875,-0.46875
86,-0.45117188,-0.13482666,0.9953003,3.609375,8.3125,1.921875
87,-0.43798828,-0.14898682,1.0216675,2.265625,5.578125,0.171875
88,-0.4284668,-0.0960083,0.97869873,-3.25,5.390625,-0.21875
89,-0.38793945,-0.08013916,0.9801636,-3.96875,5.96875,-0.0625
90,-0.39331055,-0.11798096,0.993103,-0.5625,3.71875,-0.359375
91,-0.4074707,-0.109191895,0.97039795,-6.03125,-3.25,-1.21875
92,-0.41967773,-0.08917236,1.0060425,-1.609375,-7.359375,-2.078125
93,-0.43945312,-0.097229004,0.9833374,-2.796875,-5.640625,-1.625
94,-0.421875,-0.10040283,0.98553467,0.875,-7.125,-1.28125
95,-0.43579102,-0.008850098,0.9476929,0.25,-18.125,-2.421875
96,-0.4597168,0.0033569335999999,0.92962646,13.0,-8.21875,-0.1875
97,-0.46606445,-0.09967041,0.90740967,16.703125,-3.5625,6.703125
98,-0.47973633,-0.17340088,0.9537964,6.5625,-3.84375,2.796875
99,-0.42138672,-0.19415283,1.001648,2.671875,-2.484375,-0.234375
100,-0.49072266,-0.12042236,0.9555054,-5.0,-0.078125,0.109375
101,-0.44677734,-0.09259033,0.9701538,-2.546875,2.234375,0.390625
102,-0.48413086,-0.13409424,0.98358154,-0.96875,3.046875,0.75
103,-0.45385742,-0.17633057,0.99871826,1.28125,5.671875,0.15625
104,-0.44384766,-0.13726807,0.9574585,1.359375,7.015625,0.0625
105,-0.43823242,-0.14849854,1.0221558000000002,4.078125,8.609375,0.3125
106,-0.4729004,-0.20440674,1.057312,3.890625,6.4375,2.75
107,-0.43017578,-0.16143799,0.98651123,-5.09375,-1.25,-1.109375
108,-0.40722656,-0.06011963,0.95306396,-14.109375,-6.390625,-5.4375
109,-0.4489746,-0.0230102539999999,0.93426514,-9.453125,-4.125,-2.578125
110,-0.39208984,-0.09112549,0.9586792,-7.28125,0.03125,-0.921875
111,-0.4897460999999999,-0.12652588,0.99798584,-4.4375,-0.90625,-1.25
112,-0.47045898,-0.10333252,0.9894409,-6.734375,-2.21875,-1.6875
113,-0.4194335999999999,-0.06817627,0.97039795,-7.25,-6.65625,-1.5
114,-0.45214844,-0.020812988,0.98065186,-7.4375,-9.375,-0.875
115,-0.4741210999999999,-0.020812988,0.98773193,-4.703125,-4.59375,-1.140625
116,-0.47705078,0.024841309,0.9086304,-3.59375,-11.921875,-0.03125
117,-0.45214844,0.03778076,0.83758545,6.265625,-14.78125,-0.296875
118,-0.5136719,-0.1038208,0.90911865,15.9375,0.40625,4.640625
119,-0.51342773,-0.09234619,0.9035034,11.265625,-4.03125,4.5
120,-0.55322266,-0.13409424,1.0355835,6.25,-2.734375,1.0
121,-0.49853516,-0.11895752,0.95965576,1.109375,3.203125,1.109375
122,-0.48828125,-0.043273926,0.949646,-0.984375,2.53125,0.921875
123,-0.4934082,-0.08380127,0.97454834,2.09375,4.421875,0.9375
124,-0.50927734,-0.1326293999999999,0.99090576,0.28125,5.3125,-0.296875
125,-0.4494629,-0.09527588,0.9833374,0.140625,3.8125,-1.25
126,-0.4699707,-0.1375122,0.98602295,0.203125,6.40625,-1.296875
127,-0.4880371,-0.1560668999999999,1.0587768999999998,0.953125,10.609375,0.109375
128,-0.4831543,-0.0713501,0.9606323,-1.75,3.46875,-0.234375
129,-0.46704102,-0.03302002,0.9454956,-6.421875,-0.265625,-1.703125
130,-0.45385742,-0.07720947,0.97039795,-1.453125,4.453125,-0.03125
131,-0.44799805,-0.055725098,0.95892334,-4.34375,-0.265625,-1.140625
132,-0.46850586,-0.050842285,0.9857788,-2.296875,0.515625,-2.0625
133,-0.4580077999999999,-0.08306885,0.97698975,0.390625,-1.25,-0.453125
134,-0.4477539000000001,-0.03765869,0.932312,-6.40625,-11.40625,-2.234375
135,-0.4597168,-0.03375244,0.9647827,2.375,-10.09375,-1.6875
136,-0.48388672,-0.0064086914,0.88568115,10.140625,-9.71875,0.203125
137,-0.4777832,0.016784668,0.8739624,17.578125,-1.25,4.34375
138,-0.49072266,-0.15924072,0.94818115,18.3125,2.953125,6.375
139,-0.5019531,-0.14385986,0.9725952,3.390625,-0.765625,4.75
140,-0.4909668,-0.124816895,0.97088623,-0.453125,-1.1875,1.40625
141,-0.44091797,-0.11407471,0.96990967,1.3125,4.796875,2.875
142,-0.48120117,-0.11798096,0.9713745,-1.09375,-0.28125,1.046875
143,-0.45776367,-0.1326293999999999,0.9603882,-4.890625,3.640625,-0.46875
144,-0.45507812,-0.15020752,0.97772217,1.09375,10.0,-0.515625
145,-0.43920898,-0.15948486,1.0094604,6.234375,15.0,0.46875
146,-0.42822266,-0.15924072,1.0390015,7.9375,17.734375,0.484375
147,-0.43359375,-0.15875244,1.012146,7.171875,8.671875,0.90625
148,-0.42749023,-0.074279785,0.9454956,1.484375,6.03125,1.046875
149,-0.37768555,-0.13409424,0.9833374,-1.9375,6.046875,-0.78125
150,-0.3959960999999999,-0.124816895,0.99139404,-3.5,3.421875,-0.28125
151,-0.40185547,-0.12750244,1.0079956,-5.21875,-4.65625,-1.625
152,-0.41381836,-0.12310791,0.9957886,-7.421875,-7.3125,-2.9375
153,-0.40063477,-0.08502197,0.9735718,-7.171875,-9.5625,-2.328125
154,-0.42578125,-0.054748535,0.95306396,-1.671875,-14.4375,-2.640625
155,-0.4951172,-0.0591430659999999,0.8908081,9.328125,-14.71875,-0.6875
156,-0.38720703,-0.050842285,0.9476929,9.9375,-6.5625,1.265625
157,-0.41503906,-0.085754395,0.90301514,2.703125,-13.515625,6.359375
158,-0.52001953,-0.24493408,1.0272827,3.0,-7.90625,0.921875
159,-0.46801758,-0.1404418999999999,0.9838257,-4.515625,0.0,0.734375
160,-0.45825195,-0.07110596,0.93621826,-1.4375,0.640625,0.890625
161,-0.46533203,-0.11383057,0.9813843,2.984375,3.859375,2.09375
162,-0.48486328,-0.17779541,0.9869995,2.25,4.734375,-0.140625
163,-0.4362793,-0.14361572,0.97039795,1.8125,8.328125,-0.015625
164,-0.40844727,-0.13677979,0.98358154,3.671875,11.375,-0.671875
165,-0.4819335999999999,-0.17437744,1.0050659,1.21875,11.171875,0.046875
166,-0.4416504,-0.17242432,1.0548706,7.609375,12.8125,1.15625
167,-0.40600586,-0.16949463,1.0072632,5.8125,10.15625,1.078125
168,-0.42333984,-0.09991455,0.9376831,-1.71875,7.984375,1.03125
169,-0.35620117,-0.10675049,0.9664917,-3.296875,4.546875,-1.28125
170,-0.3786620999999999,-0.15386963,1.0187378,-1.65625,0.6875,-0.765625
171,-0.40844727,-0.15533447,1.0026245,-5.46875,-3.78125,-1.296875
172,-0.39013672,-0.12164307,1.00531,-5.28125,-4.390625,-2.0625
173,-0.38012695,-0.09991455,0.961853,-9.421875,-8.75,-2.25
174,-0.40966797,-0.0791626,0.9935913,-5.28125,-8.375,-1.328125
175,-0.4020995999999999,-0.06573486,0.96698,-5.3125,-13.078125,-2.765625
176,-0.4597168,-0.005432129,0.9454956,0.515625,-29.40625,-3.109375
177,-0.48999023,-0.08453369,0.9320679,6.265625,-18.3125,1.078125
178,-0.43164062,-0.1213989259999999,0.91693115,1.6875,-9.453125,4.859375
179,-0.52319336,-0.1531372,0.97332764,2.609375,-6.921875,2.0
180,-0.53271484,-0.113098145,0.9628296,-2.359375,-3.078125,0.5
181,-0.50878906,-0.08746338,0.9442749,-0.875,3.0,1.25
182,-0.4711914000000001,-0.09991455,0.96258545,0.46875,5.578125,1.578125
183,-0.5012207000000001,-0.13726807,0.9743042,1.40625,5.25,0.515625
184,-0.45117188,-0.105041504,0.9423218,2.453125,3.734375,0.65625
185,-0.43774414,-0.12750244,0.9762573,3.0,5.21875,-0.65625
186,-0.49145508,-0.1350708,0.9899292,4.4375,7.5,0.359375
187,-0.46069336,-0.15484619,1.0265503,8.171875,18.703125,0.65625
188,-0.43041992,-0.15631104,1.0187378,8.40625,15.578125,1.640625
189,-0.43432617,-0.101623535,0.95306396,-3.78125,1.8125,0.28125
190,-0.43774414,-0.10357666,0.96673584,-4.21875,2.09375,-2.046875
191,-0.41552734,-0.113342285,0.9677124,-2.4375,3.6875,-1.234375
192,-0.42016602,-0.11138916,1.00531,-2.53125,0.421875,-1.203125
193,-0.41259766,-0.1038208,0.97772217,-4.8125,-4.25,-1.625
194,-0.4189452999999999,-0.085510254,0.9906616,-6.0,-4.515625,-1.8125
195,-0.40966797,-0.08917236,0.98968506,-3.703125,-3.625,-1.359375
196,-0.42260742,-0.06427002,0.9869995,-0.78125,-3.390625,-0.390625
197,-0.42016602,-0.0269165039999999,0.98773193,-1.203125,-16.109375,-1.6875
198,-0.46411133,-0.027404785,0.94940186,5.578125,-19.84375,-0.5
199,-0.46777344,-0.046691895,0.88323975,2.1875,-13.25,3.515625
200,-0.39453125,-0.12164307,0.90789795,1.84375,-1.6875,4.28125
201,-0.5202637,-0.14752197,0.9760132,2.46875,-2.671875,3.375
202,-0.5227050999999999,-0.11773682,0.94525146,-2.453125,-3.15625,1.59375
203,-0.48950195,-0.105529785,0.9562378,0.84375,1.609375,1.6875
204,-0.4807129,-0.10040283,0.9611206,-0.375,1.890625,0.65625
205,-0.49243164,-0.1057739259999999,0.97576904,-1.203125,2.015625,0.015625
206,-0.46606445,-0.112854004,0.9833374,2.0,2.5625,-1.0
207,-0.453125,-0.10406494,0.947937,0.015625,6.09375,-1.109375
208,-0.46972656,-0.1453247,1.0333861999999998,4.671875,12.703125,-1.3125
209,-0.49194336,-0.18145752,1.0355835,3.890625,9.625,-0.1875
210,-0.44311523,-0.06817627,0.963562,-3.0,-1.578125,-0.953125
211,-0.4506835999999999,-0.06451416,0.93573,-7.71875,-3.09375,-3.5625
212,-0.47338867,-0.07965088,0.99554443,-0.78125,2.3125,-1.296875
213,-0.41308594,-0.07110596,0.96868896,-2.34375,-1.0,-2.3125
214,-0.48339844,-0.035461426,0.9472046,-9.140625,-9.359375,-2.09375
215,-0.44677734,-0.09454346,0.98651123,-8.171875,-4.734375,-2.34375
216,-0.43481445,-0.04547119,0.97772217,-7.40625,-4.34375,-1.609375
217,-0.49902344,0.015808105,0.9359741,-1.875,-13.96875,-0.234375
218,-0.49365234,-0.03277588,0.9359741,3.34375,-18.515625,-0.765625
219,-0.49072266,0.020202637,0.920105,12.078125,-7.875,2.5
220,-0.4802246,-0.07110596,0.9064331,10.796875,-0.796875,6.921875
221,-0.49975586,-0.1272583,0.96136475,1.59375,-4.453125,2.5
222,-0.55078125,-0.12921143,0.98968506,3.90625,-0.171875,1.65625
223,-0.4892577999999999,-0.057434082,0.9159546,0.6875,4.828125,0.234375
224,-0.53100586,-0.051818848,0.94744873,4.0,3.84375,2.515625
225,-0.48999023,-0.14093018,0.9879761,1.734375,2.59375,0.796875
226,-0.51000977,-0.11187744,0.9706421,-0.953125,2.453125,-0.21875
227,-0.47265625,-0.08502197,0.947937,0.5,5.625,-0.203125
228,-0.45239258,-0.10723877,0.9484253,4.015625,10.234375,-0.09375
229,-0.48388672,-0.14141846,1.0441284,11.5625,16.359375,0.234375
230,-0.55737305,-0.1519165,1.0116577,4.1875,8.796875,2.203125
231,-0.3840332,-0.0745239259999999,0.91326904,-1.234375,4.09375,-2.59375
232,-0.40893555,-0.12017822,0.9838257,4.84375,9.0625,-2.703125
233,-0.46679688,-0.07696533,0.9996948,1.828125,7.40625,1.25
234,-0.37353516,-0.097473145,0.93670654,-5.9375,-0.75,-1.71875
235,-0.41870117,-0.07598877,1.0158081,-10.203125,-8.46875,-3.125
236,-0.44970703,-0.101379395,0.99993896,-10.203125,-8.3125,-2.3125
237,-0.42651367,-0.04864502,0.9960327,-8.5,-5.796875,-2.25
238,-0.44873047,-0.01373291,0.95184326,-6.21875,-9.921875,-1.375
239,-0.44726562,-0.03277588,0.9867554,2.171875,-20.390625,-1.171875
240,-0.51416016,0.005065918,0.9406128,12.828125,-16.671875,1.1875
241,-0.46264648,-0.061828613,0.86468506,4.859375,-12.671875,5.6875
242,-0.47827148,-0.12774658,0.92767334,1.53125,-3.390625,2.015625
243,-0.5214844,-0.13580322,0.9611206,2.4375,0.5,2.625
244,-0.5202637,-0.08795166,0.9281616,0.84375,1.34375,0.59375
245,-0.5041504,-0.07720947,0.93963623,2.375,2.78125,1.96875
246,-0.53149414,-0.12359619,0.9784546,2.265625,3.5,1.0
247,-0.5012207000000001,-0.11651611,0.9762573,-0.28125,5.9375,-0.59375
248,-0.4736327999999999,-0.093811035,0.95062256,1.609375,5.890625,-0.5625
249,-0.46899414,-0.10015869,0.9574585,3.84375,10.234375,0.1875
250,-0.48242188,-0.16143799,1.0189819,9.703125,19.765625,1.71875
251,-0.44628906,-0.13775635,1.0023804,10.734375,19.921875,1.90625
252,-0.41210938,-0.1026001,0.97869873,1.453125,2.734375,-1.5625
253,-0.41333008,-0.09674072,0.98651123,-3.359375,-2.453125,-2.484375
254,-0.41503906,-0.1018676759999999,0.9528198,-7.046875,1.59375,-1.78125
255,-0.4387207,-0.10333252,1.0153198,-5.796875,0.546875,-1.0
256,-0.44726562,-0.07623291,0.97528076,-8.21875,-7.671875,-2.4375
257,-0.4555664000000001,-0.07476807,0.97991943,-8.484375,-9.953125,-2.796875
258,-0.45263672,-0.069885254,0.9735718,-8.984375,-10.609375,-2.703125
259,-0.4958496,-0.03302002,0.9706421,-6.765625,-8.21875,-1.71875
260,-0.44189453,-0.0210571289999999,0.9801636,-1.875,-20.296875,-2.1875
261,-0.5029297,0.008239746,0.9086304,7.0,-22.625,-0.390625
262,-0.4584960999999999,-0.033996582,0.92523193,6.53125,-12.265625,3.734375
263,-0.51342773,-0.093811035,0.9137573,-4.0625,-10.625,2.671875
264,-0.55688477,-0.108947754,0.9393921,-3.015625,-0.921875,1.140625
265,-0.56762695,-0.057922363,0.92352295,-2.1875,3.796875,1.390625
266,-0.5175781,-0.03326416,0.9135132,1.90625,5.28125,2.59375
267,-0.5280762,-0.053527832,0.93670654,1.703125,3.546875,1.28125
268,-0.5344238,-0.085510254,0.9945679,4.546875,10.1875,0.046875
269,-0.47094727,-0.039367676,0.9437866,1.671875,7.453125,0.203125
270,-0.46240234,-0.06427002,0.9352417,1.15625,6.828125,-1.234375
271,-0.501709,-0.108947754,1.0245972,9.296875,12.375,0.4375
272,-0.49902344,-0.13189697,1.0285034,6.078125,9.0,0.96875
273,-0.4790039000000001,-0.05670166,0.9796753,-6.125,-5.9375,-1.25
274,-0.47509766,-0.032287598,0.93573,-8.21875,0.625,-2.515625
275,-0.45703125,-0.05303955,0.9484253,-0.046875,7.859375,-0.265625
276,-0.45483398,-0.034973145,0.9767456,2.390625,4.953125,-0.390625
277,-0.4892577999999999,-0.0713501,1.0065308000000002,0.0,0.15625,-1.671875
278,-0.45654297,-0.06890869,0.97698975,-4.9375,-4.1875,-1.890625
279,-0.45239258,-0.039367676,0.965271,-4.75,-4.0625,-1.328125
280,-0.4609375,-0.010559082,0.9633179,-5.640625,-6.59375,-1.4375
281,-0.4855957,0.07171631,0.9335327,-7.484375,-31.53125,-3.71875
282,-0.5148925999999999,0.022155762,0.8944701999999999,2.75,-14.671875,-0.421875
283,-0.5019531,0.005065918,0.89105225,-2.328125,-7.703125,3.6875
284,-0.5073242,-0.10821533,0.901062,0.125,-7.96875,2.90625
285,-0.53637695,-0.06817627,0.92303467,-0.078125,-1.234375,1.046875
286,-0.5812988,-0.0803833,1.0062866,4.140625,3.25,0.921875
287,-0.5349121,-0.0032348633,0.9196167,0.34375,0.8125,0.90625
288,-0.5227050999999999,-0.022033691,0.9244995,1.890625,3.25,1.296875
289,-0.52734375,-0.06085205,0.9904175,2.671875,8.109375,0.875
290,-0.5175781,-0.04937744,0.95843506,-0.078125,4.65625,0.640625
291,-0.4741210999999999,-0.0288696289999999,0.9423218,-4.09375,1.78125,-1.75
292,-0.5449219,-0.0628051759999999,0.98309326,1.109375,7.34375,-1.046875
293,-0.52001953,-0.0283813479999999,0.94451904,0.0,-0.359375,-0.296875
294,-0.48388672,0.00018310547,0.9489136,-0.28125,-0.828125,-0.78125
295,-0.50878906,-0.050354004,0.97869873,6.53125,8.078125,0.21875
296,-0.5046387,-0.0474243159999999,0.98236084,3.234375,9.984375,1.53125
297,-0.46166992,-0.02935791,0.9371948,-0.9375,1.390625,-0.84375
298,-0.47875977,-0.010314941,0.96624756,-5.53125,-6.046875,-2.609375
299,-0.4650879,-0.0178833,0.9540405,-3.609375,-3.90625,-1.4375
300,-0.46948242,-0.01739502,0.97210693,-5.15625,-6.515625,-2.125
301,-0.53393555,0.04925537,0.92962646,-4.515625,-16.25,-1.890625
302,-0.5029297,0.023864746,0.91400146,6.21875,-14.125,-0.515625
303,-0.47875977,0.0211792,0.8554076999999999,11.265625,-6.546875,3.546875
304,-0.53149414,-0.05255127,0.92230225,15.515625,1.8125,4.984375
305,-0.5197754,-0.09454346,0.914978,5.609375,5.96875,3.109375
306,-0.5307616999999999,-0.09820557,0.9891968,3.796875,2.25,1.46875
307,-0.5402832,-0.054748535,0.9476929,-0.1875,1.609375,0.328125
308,-0.4663085999999999,-0.034973145,0.9401245,-0.640625,2.1875,0.515625
309,-0.5214844,-0.08843994,0.98358154,-0.265625,1.296875,0.4375
310,-0.5354004,-0.08428955,0.96624756,-3.625,3.171875,-0.703125
311,-0.50268555,-0.05645752,0.961853,-1.984375,5.203125,-1.5625
312,-0.5124512,-0.09161377,0.98773193,1.90625,8.953125,0.859375
313,-0.46972656,-0.0513305659999999,0.99627686,7.953125,8.1875,0.03125
314,-0.50146484,-0.051086426,0.9645386,3.53125,4.53125,0.0
315,-0.4736327999999999,-0.061828613,0.9603882,0.734375,6.46875,-0.6875
316,-0.46850586,-0.0803833,0.97039795,-0.328125,7.390625,-0.59375
317,-0.46142578,-0.05255127,0.96917725,-2.25,0.09375,-1.375
318,-0.45385742,-0.0308227539999999,0.97039795,-5.21875,-6.015625,-2.5625
319,-0.45874023,-0.050598145,0.9894409,-2.53125,-1.609375,-1.65625
320,-0.43823242,-0.047180176,0.9701538,-1.8125,0.40625,-0.765625
321,-0.46289062,-0.02178955,0.95477295,-2.703125,-5.921875,-1.078125
322,-0.46435547,0.0038452148,0.9435425,-3.046875,-10.515625,-1.765625
323,-0.52246094,0.01751709,0.91400146,11.53125,-18.03125,-0.046875
324,-0.48583984,0.0053100586,0.84173584,22.96875,-3.171875,7.796875
325,-0.43676758,-0.15631104,0.94989014,16.578125,8.46875,10.0625
326,-0.5605469,-0.15264893,1.0077515,5.796875,-1.828125,3.203125
327,-0.5114746,-0.11212158,0.9660034,-1.875,-1.71875,0.171875
328,-0.47607422,-0.06817627,0.9093628,-1.4375,-0.109375,1.1875
329,-0.47460938,-0.08062744,0.9262085,-1.578125,0.703125,0.921875
330,-0.51123047,-0.15093994,1.0148315,1.09375,4.765625,0.125
331,-0.45996094,-0.15118408,0.9755249,-0.8125,5.625,-0.71875
332,-0.44677734,-0.124572754,0.9364624,3.109375,11.03125,-0.78125
333,-0.46850586,-0.13653564,1.0097046,4.390625,14.34375,0.25
334,-0.4699707,-0.1404418999999999,1.0158081,7.234375,8.4375,0.3125
335,-0.44848633,-0.11505127,1.010437,4.703125,7.484375,-0.296875
336,-0.4489746,-0.0784301759999999,0.9401245,-2.203125,4.8125,-0.171875
337,-0.41430664,-0.09112549,0.9779663,-1.921875,3.75,-1.953125
338,-0.41870117,-0.11798096,1.0045776,-3.078125,-0.71875,-2.25
339,-0.42504883,-0.1038208,0.99505615,-4.796875,-3.296875,-2.40625
340,-0.4350585999999999,-0.08868408,0.9867554,-6.015625,-7.65625,-2.328125
341,-0.45043945,-0.09429932,0.9730835,-4.078125,-14.015625,-2.8125
342,-0.4814452999999999,-0.051086426,0.9784546,3.640625,-23.640625,-1.59375
343,-0.40527344,0.0014038085999999,0.914978,11.796875,-12.546875,1.296875
344,-0.43920898,-0.11553955,0.76239014,24.65625,8.71875,6.328125
345,-0.43920898,-0.14556885,0.99920654,3.53125,3.34375,2.625
346,-0.5332031,-0.18804932,1.0079956,-1.40625,-3.09375,2.140625
347,-0.49658203,-0.12506104,0.9640503,-3.203125,0.625,0.46875
348,-0.48095703,-0.097717285,0.9381714,-0.890625,1.765625,1.078125
349,-0.44360352,-0.109436035,0.965271,1.53125,3.96875,1.203125
350,-0.48583984,-0.15997314,0.98895264,2.921875,4.828125,0.59375
351,-0.4716797,-0.16680908,0.96673584,4.296875,7.0625,0.40625
352,-0.4050293,-0.18218994,0.96990967,4.25,8.609375,-0.15625
353,-0.42285156,-0.19805908,0.9911499,5.078125,12.453125,-1.078125
354,-0.45043945,-0.16802979,1.0394896999999998,8.359375,11.421875,-0.28125
355,-0.41674805,-0.1428833,0.99139404,-1.296875,2.03125,-0.453125
356,-0.39501953,-0.101379395,0.93573,-6.78125,0.25,-2.796875
357,-0.41870117,-0.12994385,0.97406006,-4.546875,4.140625,-0.734375
358,-0.44091797,-0.13653564,1.0050659,-3.0,2.921875,-0.703125
359,-0.4116210999999999,-0.15679932,1.017273,-4.390625,-1.421875,-1.109375
360,-0.4230957,-0.10455322,0.9725952,-5.171875,-6.515625,-1.28125
361,-0.46118164,-0.10821533,0.9657593,-0.671875,-15.546875,-2.171875
362,-0.43652344,-0.10015869,0.9476929,4.9375,-15.296875,-2.203125
363,-0.43286133,-0.070373535,0.9110718,1.71875,-18.40625,-1.796875
364,-0.43041992,-0.0591430659999999,0.81781006,1.90625,-12.625,3.875
365,-0.45239258,-0.1638793999999999,1.0028687,2.859375,2.09375,2.640625
366,-0.5107422,-0.16143799,0.9996948,-0.140625,-5.40625,1.90625
367,-0.53930664,-0.1531372,0.9789429,-4.9375,-0.625,0.828125
368,-0.47436523,-0.1038208,0.9574585,-1.03125,1.671875,0.625
369,-0.46679688,-0.09844971,0.93255615,0.359375,0.5,0.734375
370,-0.48828125,-0.13238525,0.97088623,1.265625,4.515625,0.234375
371,-0.46044922,-0.14508057,0.96917725,1.625,6.1875,-0.03125
372,-0.44628906,-0.15093994,0.94085693,1.984375,10.34375,-1.078125
373,-0.43017578,-0.19683838,1.0267944,6.609375,12.96875,-0.609375
374,-0.5251465,-0.15411377,0.9994507,4.03125,8.890625,4.0625
375,-0.40161133,-0.09503174,0.9430542,-3.578125,4.0,-0.375
376,-0.39233398,-0.1135864259999999,0.97650146,-5.03125,5.734375,-1.515625
377,-0.40576172,-0.105529785,1.0128784,0.359375,4.796875,-0.25
378,-0.44702148,-0.101135254,1.0050659,-4.96875,-3.28125,-1.09375
379,-0.39379883,-0.13336182,0.97576904,-8.46875,-3.359375,-2.765625
380,-0.39379883,-0.101135254,0.9879761,-4.546875,-2.53125,-1.703125
381,-0.44067383,-0.07623291,0.9743042,-2.53125,-4.09375,-0.765625
382,-0.41357422,-0.081604004,0.99627686,0.875,-19.796875,-2.265625
383,-0.46972656,-0.016906738,0.8895874,5.796875,-24.015625,-2.109375
384,-0.42407227,-0.062072754,0.8661499,7.5,-8.796875,2.828125
385,-0.5126953,-0.19342041,1.0043335,13.4375,2.84375,4.953125
386,-0.47558594,-0.14263916,1.0570678999999998,1.921875,1.640625,2.84375
387,-0.5241699000000001,-0.15631104,1.0055542,0.03125,0.265625,0.390625
388,-0.4248047,-0.06719971,0.9164429,-4.3125,0.6875,-0.328125
389,-0.46655273,-0.09112549,0.95111084,0.40625,-0.125,1.078125
390,-0.48413086,-0.16046143,1.0194702,2.46875,3.453125,1.40625
391,-0.4753418,-0.15777588,0.99212646,0.546875,5.5625,0.078125
392,-0.44873047,-0.12237549,0.9364624,0.46875,7.625,-0.484375
393,-0.45385742,-0.15386963,0.9833374,5.328125,12.3125,0.84375
394,-0.43823242,-0.18121338,1.0101929,7.640625,11.375,1.40625
395,-0.42138672,-0.1404418999999999,0.9972534,3.328125,5.46875,-0.265625
396,-0.42993164,-0.11065674,0.9891968,0.515625,6.84375,1.078125
397,-0.37573242,-0.15142822,1.0177611999999998,2.0625,7.671875,0.140625
398,-0.37597656,-0.15045166,0.97283936,-7.140625,-2.28125,-0.8125
399,-0.44702148,-0.08282471,0.95770264,-10.625,-10.4375,-2.140625
400,-0.35839844,-0.128479,0.9972534,-9.0625,-4.125,-3.328125
401,-0.44873047,-0.0881958,0.98309326,-7.953125,-10.21875,-1.515625
402,-0.41918945,-0.09136963,0.9682007,-2.546875,-16.578125,-2.546875
403,-0.4794922,-0.06915283,0.963562,4.234375,-12.859375,-0.984375
404,-0.39575195,-0.045715332,0.8317261,6.6875,-11.8125,-1.40625
405,-0.46728516,-0.12042236,0.9406128,19.78125,6.09375,3.171875
406,-0.46557617,-0.16729736,1.079773,14.265625,3.5625,4.0
407,-0.49072266,-0.15802002,0.9862671,-3.34375,-4.71875,-0.265625
408,-0.45825195,-0.16339111,0.9828491,-2.921875,-2.15625,0.28125
409,-0.48046875,-0.06768799,0.9738159,-2.359375,-0.859375,-0.375
410,-0.45581055,-0.11553955,0.99383545,-0.515625,0.21875,0.875
411,-0.5239258,-0.16143799,1.0187378,0.453125,1.015625,1.03125
412,-0.47338867,-0.15411377,0.9472046,-0.046875,8.765625,-0.21875
413,-0.43847656,-0.1506958,0.9694214,1.171875,6.140625,0.125
414,-0.45581055,-0.15142822,0.9804077,-0.03125,10.265625,-0.125
415,-0.45825195,-0.14239502,1.0097046,6.015625,11.53125,0.796875
416,-0.32836914,-0.15948486,0.9882202,5.78125,5.8125,-1.625
417,-0.42895508,-0.093811035,0.98651123,1.125,2.609375,-0.46875
418,-0.4206543,-0.10992432,0.98236084,0.171875,6.875,0.75
419,-0.3540039,-0.15509033,0.98358154,-0.90625,3.015625,0.4375
420,-0.4206543,-0.13677979,0.98480225,-2.703125,1.140625,0.1875
421,-0.41845703,-0.14971924,0.9984741,-3.171875,-0.765625,-0.640625
422,-0.38427734,-0.16436768,0.9760132,-4.640625,-5.1875,-1.15625
423,-0.3935547,-0.097229004,0.9923706,-2.65625,-7.46875,-1.953125
424,-0.43969727,-0.097717285,0.9940796,-0.359375,-8.171875,-1.78125
425,-0.45654297,-0.058166504,0.93670654,0.203125,-21.234375,-2.53125
426,-0.43725586,-0.0247192379999999,0.94818115,8.453125,-14.796875,-2.21875
427,-0.4326172,-0.14776611,0.9135132,7.484375,-3.90625,4.765625
428,-0.43969727,-0.16973877,0.96624756,-0.375,-7.578125,0.90625
429,-0.51220703,-0.18585205,1.0160521999999998,-2.28125,-2.015625,3.046875
430,-0.48486328,-0.15289307,0.9706421,-3.578125,0.921875,-0.546875
431,-0.43115234,-0.066223145,0.94525146,-1.6875,0.6875,1.0
432,-0.49291992,-0.12677002,1.0079956,1.34375,3.234375,1.28125
433,-0.49316406,-0.19415283,1.0018921,-0.78125,4.671875,-0.140625
434,-0.42138672,-0.1116333,0.9508667,-0.0625,7.296875,-0.953125
435,-0.44921875,-0.13653564,0.9796753,3.671875,9.59375,-0.015625
436,-0.45385742,-0.18951416,1.0245972,6.984375,12.25,0.75
437,-0.4399414000000001,-0.16412354,1.0018921,5.625,8.203125,0.46875
438,-0.43554688,-0.105285645,0.963562,1.859375,7.328125,0.234375
439,-0.36401367,-0.13311768,0.9550171,2.890625,7.40625,-0.078125
440,-0.36987305,-0.12994385,1.0307007,2.03125,6.9375,0.1875
441,-0.39526367,-0.14801025,0.98431396,-2.71875,2.953125,-0.234375
442,-0.40063477,-0.15093994,1.0097046,-4.25,-1.640625,-0.96875
443,-0.39257812,-0.14190674,0.9801636,-7.03125,-5.71875,-0.984375
444,-0.38208008,-0.101623535,1.0206909,-5.75,-7.34375,-2.265625
445,-0.4128418,-0.10699463,0.97650146,-7.703125,-9.828125,-2.09375
446,-0.44628906,-0.07159424,0.9984741,-4.4375,-24.609375,-3.265625
447,-0.48706055,-0.004699707,0.8512573,2.328125,-33.65625,-3.9375
448,-0.4230957,-0.039123535,0.8810425,9.140625,-5.984375,4.953125
449,-0.49536133,-0.22735596,1.0473021999999998,12.359375,2.625,5.5
450,-0.49072266,-0.1921997,1.0060425,1.609375,-1.953125,3.15625
451,-0.5151367,-0.12774658,0.9772339,-3.5625,0.078125,1.171875
452,-0.48413086,-0.0784301759999999,0.9528198,0.171875,2.71875,0.53125
453,-0.4501952999999999,-0.120666504,0.96673584,1.9375,4.078125,0.8125
454,-0.4814452999999999,-0.16680908,1.0133667,2.171875,2.59375,-0.578125
455,-0.4296875,-0.17266846,0.93792725,-1.4375,7.703125,-0.828125
456,-0.44384766,-0.15533447,0.96868896,3.421875,12.75,-0.046875
457,-0.41210938,-0.20977783,1.0248413,6.4375,14.28125,0.59375
458,-0.42944336,-0.128479,1.0043335,5.65625,9.609375,2.09375
459,-0.4086914,-0.128479,0.993103,1.171875,4.625,0.203125
460,-0.40356445,-0.1326293999999999,0.9789429,0.125,5.15625,-0.078125
461,-0.4050293,-0.13409424,0.9887085,-2.375,3.21875,0.234375
462,-0.4050293,-0.14581299,1.0065308000000002,-5.421875,-0.328125,-0.828125
463,-0.39916992,-0.1272583,0.9911499,-9.15625,-6.25,-2.109375
464,-0.41430664,-0.11505127,0.98358154,-11.328125,-10.546875,-2.53125
465,-0.42016602,-0.105041504,1.0175171,-11.875,-12.171875,-2.546875
466,-0.45458984,-0.0635376,0.9594116,-13.171875,-20.046875,-2.3125
467,-0.47998047,-0.0266723629999999,0.993103,-0.546875,-30.234375,-4.0625
468,-0.43823242,0.005554199,0.83221436,6.609375,-17.515625,1.078125
469,-0.4399414000000001,-0.09259033,0.88494873,17.0625,7.65625,4.546875
470,-0.5283203000000001,-0.15386963,0.9850464,7.609375,0.921875,4.84375
471,-0.49829102,-0.18487549,1.001648,1.359375,-3.09375,2.25
472,-0.5065917999999999,-0.13409424,0.9550171,-0.96875,1.65625,1.3125
473,-0.47070312,-0.0706176759999999,0.949646,0.75,4.875,1.078125
474,-0.4645996,-0.0979614259999999,0.9816284,1.71875,4.90625,1.6875
475,-0.4909668,-0.14019775,0.9789429,1.34375,5.578125,0.078125
476,-0.46972656,-0.14581299,0.97283936,3.84375,8.296875,-0.25
477,-0.43554688,-0.1585083,0.97332764,5.859375,13.0625,0.140625
478,-0.43188477,-0.17999268,0.98187256,4.671875,8.71875,1.015625
479,-0.4741210999999999,-0.14483643,1.0250854,3.6875,5.609375,1.1875
480,-0.42871094,-0.12554932,0.9562378,-1.09375,7.359375,0.296875
481,-0.41674805,-0.108947754,0.9730835,2.09375,8.53125,-0.046875
482,-0.37939453,-0.10211182,0.98651123,-3.046875,3.734375,-1.203125
483,-0.42797852,-0.13336182,1.0014038,-3.90625,-1.96875,-1.421875
484,-0.41308594,-0.13067627,0.98651123,-4.765625,-1.5,-1.4375
485,-0.3935547,-0.10821533,0.9874878,-5.28125,-3.078125,-1.171875
486,-0.42089844,-0.08892822,0.9923706,-4.28125,-3.609375,-1.046875
487,-0.4182129,-0.09967041,1.0009155,-3.28125,-5.703125,-1.5625
488,-0.4013672,-0.06695557,0.9735718,-1.828125,-27.15625,-3.671875
489,-0.4958496,-0.012512207,0.91204834,6.9375,-24.9375,-3.296875
490,-0.40966797,-0.09088135,0.95306396,11.28125,-1.15625,4.640625
491,-0.48999023,-0.13360596,0.95428467,5.921875,-3.265625,4.1875
492,-0.4790039000000001,-0.18804932,1.00531,1.25,-2.875,1.5625
493,-0.5480957,-0.15167236,0.97576904,-2.734375,0.5625,1.46875
494,-0.47827148,-0.09674072,0.96795654,0.046875,3.0625,1.375
495,-0.43920898,-0.1038208,0.95355225,-0.4375,4.265625,1.03125
496,-0.49365234,-0.15582275,0.98602295,1.9375,6.5,0.578125
497,-0.43652344,-0.14971924,0.96258545,3.1875,7.640625,-0.15625
498,-0.43164062,-0.15338135,0.9911499,6.34375,14.890625,1.25
499,-0.44018555,-0.20343018,1.0023804,8.421875,15.46875,3.078125
500,-0.4189452999999999,-0.14752197,0.9796753,5.890625,10.578125,4.265625
501,-0.40161133,-0.11065674,0.9616089,-1.171875,6.453125,0.734375
502,-0.40795898,-0.13946533,0.9940796,0.859375,4.640625,-1.25
503,-0.40673828,-0.14019775,0.9899292,-0.703125,5.125,-0.921875
504,-0.39038086,-0.13067627,0.9838257,-2.9375,-0.078125,-1.875
505,-0.41235352,-0.14776611,1.0062866,-4.046875,-3.375,-1.796875
506,-0.3935547,-0.15289307,0.98724365,-6.453125,-4.78125,-1.96875
507,-0.39672852,-0.108947754,1.0363159,-5.296875,-6.265625,-1.59375
508,-0.39111328,-0.12896729,0.979187,-12.234375,-9.765625,-2.296875
509,-0.42358398,-0.11456299,1.0341187,-8.6875,-12.078125,-3.03125
510,-0.52246094,-0.06378174,0.9738159,-3.421875,-17.546875,-3.3125
511,-0.40283203,0.0014038085999999,0.91033936,-0.5625,-21.515625,-4.5
512,-0.4086914,-0.0151977539999999,0.8612671000000001,9.359375,-10.171875,0.53125
513,-0.42919922,-0.120910645,0.9406128,12.015625,3.546875,4.03125
514,-0.546875,-0.16851807,1.0114136,4.640625,-1.109375,2.671875
515,-0.50146484,-0.1765747,0.99212646,-0.21875,-0.609375,1.8125
516,-0.47192383,-0.108947754,0.9628296,0.046875,1.375,1.203125
517,-0.47460938,-0.06964111,0.95843506,1.609375,2.734375,2.171875
518,-0.45458984,-0.12042236,0.98358154,-0.421875,4.6875,0.796875
519,-0.47314453,-0.14483643,0.9852905,-0.765625,4.640625,0.078125
520,-0.47338867,-0.17144775,0.99383545,2.09375,10.28125,1.1875
521,-0.4963379,-0.17193604,0.9555054,-0.890625,15.375,1.609375
522,-0.38916016,-0.09674072,1.0199585,5.75,10.203125,0.28125
523,-0.39916992,-0.13873291,0.97161865,1.90625,0.890625,-0.625
524,-0.41674805,-0.10064697,0.97406006,-0.5625,1.265625,-0.578125
525,-0.39331055,-0.097473145,1.001648,0.671875,3.71875,-0.578125
526,-0.4013672,-0.13873291,1.0167847,1.0625,1.6875,-0.125
527,-0.44750977,-0.09844971,0.9828491,-4.046875,-3.0,-0.140625
528,-0.38476562,-0.13287354,0.99212646,-5.5625,-4.84375,-2.078125
529,-0.40429688,-0.108947754,0.9928589,-5.125,-5.9375,-2.328125
530,-0.44091797,-0.08453369,0.98846436,-2.0625,-5.515625,-1.796875
531,-0.4177246,-0.08135986,0.9850464,-1.109375,-12.796875,-1.296875
532,-0.47558594,-0.027893066,0.84710693,-1.78125,-23.375,-2.171875
533,-0.41455078,-0.0491333,0.8973999,5.3125,-10.203125,-0.671875
534,-0.4506835999999999,-0.16021729,0.9411011,1.453125,-4.578125,4.8125
535,-0.564209,-0.10284424,0.9945679,-0.046875,-3.96875,1.234375
536,-0.5227050999999999,-0.14923096,1.0153198,1.125,3.328125,1.90625
537,-0.47558594,-0.0706176759999999,0.95648193,-1.75,2.59375,0.828125
538,-0.47875977,-0.04864502,0.96258545,0.484375,3.59375,1.375
539,-0.48950195,-0.13873291,1.0050659,2.46875,4.65625,0.265625
540,-0.45751953,-0.116760254,0.9767456,1.84375,6.859375,-0.046875
541,-0.41503906,-0.1135864259999999,0.96087646,3.5625,9.703125,0.4375
542,-0.45898438,-0.14068604,1.0043335,8.921875,14.890625,2.234375
543,-0.40429688,-0.18536377,1.008728,9.8125,12.453125,1.25
544,-0.42578125,-0.1018676759999999,0.9738159,1.734375,5.65625,2.203125
545,-0.40771484,-0.11114502,0.96795654,1.65625,5.96875,0.234375
546,-0.3581543,-0.1338501,0.9840698,0.453125,5.203125,-0.875
547,-0.39233398,-0.109436035,1.0021361999999998,2.578125,2.609375,-0.125
548,-0.40698242,-0.15093994,1.0255736999999998,-4.703125,-4.203125,-2.296875
549,-0.40576172,-0.12213135,0.97406006,-6.625,-7.671875,-2.78125
550,-0.39941406,-0.105041504,0.9923706,-3.609375,-3.15625,-2.234375
551,-0.39868164,-0.10845947,0.9899292,-3.734375,-4.578125,-1.109375
552,-0.41333008,-0.08355713,0.99334717,-1.328125,-7.765625,-1.78125
553,-0.38720703,-0.09185791,0.87493896,-2.71875,-26.53125,-3.28125
554,-0.49609375,-0.023498535,0.84954834,-0.421875,-19.046875,-3.171875
555,-0.43041992,-0.10601807,0.9735718,5.359375,2.078125,5.734375
556,-0.5163574000000001,-0.13092041,1.0619507,2.5625,-1.984375,3.46875
557,-0.48339844,-0.14263916,1.0211792,-0.078125,-1.875,1.375
558,-0.46362305,-0.0979614259999999,0.9237671,-2.234375,-1.59375,0.0625
559,-0.47705078,-0.10064697,0.97528076,-0.734375,4.203125,0.796875
560,-0.46142578,-0.121154785,1.0021361999999998,0.234375,3.109375,2.03125
561,-0.43969727,-0.11895752,0.95965576,-1.546875,2.515625,-0.875
562,-0.45385742,-0.12823486,0.9828491,2.0,7.359375,-0.15625
563,-0.46899414,-0.12017822,0.98895264,5.25,11.734375,1.1875
564,-0.44555664,-0.13922119,1.0187378,7.625,12.546875,1.890625
565,-0.40307617,-0.12530518,0.993103,3.75,6.5625,0.40625
566,-0.41967773,-0.10748291,0.95111084,1.515625,4.234375,0.265625
567,-0.36499023,-0.13800049,0.9874878,-0.03125,4.53125,-1.890625
568,-0.40722656,-0.113342285,1.0199585,2.359375,3.625,-0.578125
569,-0.3947754,-0.1326293999999999,0.99993896,-0.03125,0.875,-0.578125
570,-0.38842773,-0.12774658,0.9730835,-3.015625,-3.671875,-0.984375
571,-0.3935547,-0.13043213,0.9953003,-4.375,-5.765625,-1.828125
572,-0.42407227,-0.077697754,0.9611206,-8.5,-8.1875,-1.703125
573,-0.40771484,-0.0725708,0.9725952,-8.421875,-12.1875,-2.4375
574,-0.44970703,-0.06939697,1.0214233,-4.84375,-16.890625,-3.546875
575,-0.4560547,-0.04083252,0.9052124,0.59375,-22.125,-3.234375
576,-0.43164062,-0.023498535,0.90618896,3.265625,-15.9375,0.4375
577,-0.42944336,-0.07281494,0.88812256,8.59375,-2.03125,4.6875
578,-0.54174805,-0.16021729,1.0272827,4.453125,-1.953125,3.78125
579,-0.52685547,-0.13580322,0.98065186,-1.171875,-1.96875,0.859375
580,-0.5114746,-0.10699463,0.97454834,-0.375,4.375,0.953125
581,-0.4482422,-0.0960083,0.961853,2.296875,6.0625,1.828125
582,-0.47753906,-0.120666504,0.97528076,1.59375,4.703125,1.90625
583,-0.44458008,-0.117004395,0.95599365,2.15625,4.765625,0.5
584,-0.47070312,-0.11065674,0.9623413,5.046875,7.65625,1.09375
585,-0.44506836,-0.1531372,0.98602295,6.15625,14.5,0.78125
586,-0.45532227,-0.15704346,1.0048218,6.6875,12.234375,1.234375
587,-0.43969727,-0.12799072,1.0128784,3.796875,8.796875,-0.171875
588,-0.3930664,-0.14093018,0.9750366,2.75,10.921875,-0.3125
589,-0.40527344,-0.120666504,0.99261475,4.640625,10.28125,0.234375
590,-0.38720703,-0.12042236,1.0045776,2.328125,5.515625,-0.359375
591,-0.37890625,-0.15167236,1.0194702,-1.34375,1.4375,-1.09375
592,-0.37304688,-0.12774658,1.0021361999999998,-4.96875,-3.15625,-1.734375
593,-0.38427734,-0.1194458,1.0026245,-5.59375,-5.0,-1.46875
594,-0.39233398,-0.11065674,0.98480225,-4.28125,-7.765625,-1.546875
595,-0.3972168,-0.09429932,1.0040894,-1.0625,-10.84375,-1.734375
596,-0.42919922,-0.07086182,0.9291382,-1.765625,-25.03125,-2.546875
597,-0.46362305,-0.038391113,0.96136475,7.09375,-22.171875,-0.265625
598,-0.40527344,-0.11187744,0.91082764,-0.546875,-14.890625,3.171875
599,-0.47875977,-0.1260376,0.93621826,0.90625,-7.0625,4.796875
600,-0.49267578,-0.16168213,0.95892334,-2.25,-1.3125,2.203125
601,-0.54711914,-0.12799072,0.95843506,-1.59375,0.671875,1.5
602,-0.45874023,-0.1135864259999999,0.9491577,0.421875,6.15625,1.21875
603,-0.48413086,-0.12652588,0.9743042,1.21875,5.15625,1.296875
604,-0.45922852,-0.144104,0.980896,0.671875,6.4375,-0.515625
605,-0.4501952999999999,-0.12677002,0.9603882,1.3125,9.5625,-0.953125
606,-0.4411621,-0.1362915,1.0089722,6.578125,14.609375,-0.34375
607,-0.4255371,-0.1675415,0.99871826,7.40625,11.546875,0.859375
608,-0.42333984,-0.16168213,1.0082396999999998,6.484375,10.953125,0.015625
609,-0.4091797,-0.12799072,0.9682007,3.375,10.25,-0.671875
610,-0.39013672,-0.14752197,0.98114014,4.59375,7.296875,-0.625
611,-0.3864745999999999,-0.12359619,0.9891968,-2.53125,0.265625,-1.546875
612,-0.39257812,-0.13897705,1.0031128,-3.578125,-3.546875,-1.46875
613,-0.39648438,-0.13409424,1.0026245,-7.328125,-5.1875,-2.203125
614,-0.41357422,-0.13458252,0.9845581,-6.78125,-6.140625,-2.0
615,-0.40014648,-0.09918213,0.993103,-5.625,-4.625,-1.609375
616,-0.41381836,-0.07720947,0.9960327,-1.78125,-8.390625,-1.515625
617,-0.4609375,-0.0979614259999999,0.95892334,4.09375,-19.671875,-2.15625
618,-0.44873047,-0.0044555664,0.9574585,11.71875,-20.796875,-1.84375
619,-0.41430664,-0.13800049,0.9130249,17.140625,-6.46875,3.96875
620,-0.45483398,-0.1296997,0.93426514,5.296875,-4.015625,6.484375
621,-0.5041504,-0.20635986,1.00531,-2.484375,-10.328125,-0.296875
622,-0.53564453,-0.1506958,0.9398804,-6.703125,-2.421875,1.046875
623,-0.49047852,-0.116760254,0.91033936,-1.390625,1.921875,1.203125
624,-0.4621582,-0.11627197,0.95526123,0.578125,5.890625,1.734375
625,-0.48657227,-0.17315674,0.98431396,-1.390625,6.53125,-0.28125
626,-0.44384766,-0.15020752,0.9484253,-1.046875,8.15625,-0.65625
627,-0.4350585999999999,-0.16949463,0.98065186,3.21875,13.75,-0.484375
628,-0.4501952999999999,-0.18707275,1.0280151,7.15625,15.9375,1.21875
629,-0.45166016,-0.1531372,1.0065308000000002,6.296875,8.609375,1.625
630,-0.40478516,-0.16949463,0.9945679,0.546875,8.8125,0.234375
631,-0.39233398,-0.124816895,0.95428467,-2.53125,5.0625,-0.96875
632,-0.3864745999999999,-0.12359619,1.0050659,-0.4375,3.34375,-0.6875
633,-0.39916992,-0.15631104,1.0133667,-3.3125,-0.296875,-0.40625
634,-0.4116210999999999,-0.1375122,0.99823,-7.3125,-4.75,-1.828125
635,-0.38427734,-0.12384033,0.9957886,-7.609375,-6.484375,-3.109375
636,-0.40185547,-0.10089111,0.9664917,-7.5,-7.609375,-1.796875
637,-0.41430664,-0.09674072,1.0241089,-2.53125,-3.734375,-1.015625
638,-0.4260254,-0.06573486,0.9694214,-4.203125,-21.09375,-1.84375
639,-0.4868164000000001,-0.0286254879999999,0.9057007,5.671875,-30.109375,-3.53125
640,-0.4416504,-0.11114502,0.91448975,11.984375,-6.65625,2.953125
641,-0.4560547,-0.13873291,0.98065186,13.328125,3.75,7.515625
642,-0.49926758,-0.19171143,1.0014038,1.25,-6.140625,1.515625
643,-0.52612305,-0.16436768,0.963562,-2.109375,-2.109375,1.921875
644,-0.47045898,-0.12237549,0.9442749,-1.078125,0.78125,0.8125
645,-0.46557617,-0.105529785,0.9398804,0.046875,2.0625,2.140625
646,-0.49804688,-0.14996338,0.9723511,0.3125,3.546875,0.875
647,-0.4501952999999999,-0.17266846,0.98480225,0.09375,7.84375,0.515625
648,-0.4243164000000001,-0.1531372,0.9540405,4.375,12.765625,-0.21875
649,-0.4260254,-0.18634033,0.9891968,11.453125,20.984375,-0.046875
650,-0.42211914,-0.18121338,1.0502319,14.296875,18.390625,1.671875
651,-0.38232422,-0.16802979,0.9828491,0.25,3.09375,0.078125
652,-0.41503906,-0.15948486,1.0060425,-3.78125,3.515625,-1.734375
653,-0.40722656,-0.13897705,0.97650146,-3.4375,4.296875,-0.171875
654,-0.38989258,-0.12799072,0.9994507,-1.359375,3.5,0.109375
655,-0.3840332,-0.13922119,1.0036011,-5.546875,-3.5625,-1.109375
656,-0.40698242,-0.15411377,0.98773193,-8.234375,-7.578125,-2.15625
657,-0.4038085999999999,-0.13922119,1.0006714,-8.484375,-7.234375,-2.453125
658,-0.39233398,-0.1135864259999999,0.97650146,-6.59375,-5.453125,-1.75
659,-0.39819336,-0.097229004,0.9960327,-2.921875,-8.46875,-1.609375
660,-0.46435547,-0.06011963,0.9335327,0.4375,-30.453125,-2.609375
661,-0.42529297,-0.031799316,0.87713623,6.046875,-21.71875,-0.484375
662,-0.45703125,-0.055725098,0.7970581,4.734375,-13.6875,7.1875
663,-0.49853516,-0.2600708,1.1764526000000002,11.40625,1.671875,1.359375
664,-0.5727539,-0.16778564,1.0165405,0.859375,3.84375,3.46875
665,-0.4777832,-0.14215088,0.9762573,-1.09375,6.296875,1.3125
666,-0.42529297,-0.11798096,0.94696045,1.453125,3.078125,0.75
667,-0.4580077999999999,-0.14752197,0.94989014,2.078125,4.0625,0.90625
668,-0.46801758,-0.16070557,0.9894409,2.046875,4.75,1.125
669,-0.42358398,-0.16900635,0.96551514,2.015625,6.1875,-0.03125
670,-0.4597168,-0.15631104,0.96380615,4.96875,12.203125,-0.71875
671,-0.4716797,-0.18536377,1.0101929,7.171875,16.734375,0.296875
672,-0.43017578,-0.18048096,0.99017334,5.34375,11.078125,0.453125
673,-0.38989258,-0.14874268,0.99627686,0.921875,6.703125,-1.0
674,-0.39208984,-0.121154785,0.99261475,0.78125,8.34375,0.15625
675,-0.3647460999999999,-0.15460205,0.97650146,-0.625,7.09375,0.0625
676,-0.40405273,-0.15460205,1.0072632,-0.046875,2.671875,0.53125
677,-0.36816406,-0.1572876,0.9906616,-7.71875,-4.0,-1.8125
678,-0.38623047,-0.14654541,0.9838257,-7.25,-7.296875,-2.59375
679,-0.4025879,-0.10308838,0.97210693,-4.921875,-9.75,-1.671875
680,-0.4309082,-0.09893799,0.98553467,0.796875,-21.203125,-2.9375
681,-0.45239258,-0.023742676,0.92108154,1.71875,-31.03125,-3.703125
682,-0.35839844,-0.0266723629999999,0.8390503,-4.703125,-27.0,-1.03125
683,-0.49780273,-0.2263793999999999,0.9928589,10.6875,-0.921875,1.640625
684,-0.59106445,-0.1963501,1.02948,1.484375,-2.421875,0.015625
685,-0.5187988,-0.1843872,1.0187378,1.96875,5.25,1.984375
686,-0.45703125,-0.109436035,0.91448975,-0.25,3.09375,0.5625
687,-0.44067383,-0.11065674,0.9359741,3.140625,5.1875,1.71875
688,-0.47436523,-0.159729,0.9730835,1.375,5.4375,1.828125
689,-0.45361328,-0.17047119,0.9755249,2.390625,5.953125,1.625
690,-0.45507812,-0.14971924,0.9345093,0.609375,8.421875,0.171875
691,-0.45922852,-0.18609619,0.9899292,6.046875,15.09375,0.5
692,-0.43481445,-0.20733643,1.0023804,7.875,15.296875,1.234375
693,-0.41870117,-0.17486572,1.0184937,7.75,12.265625,1.203125
694,-0.38623047,-0.16265869,1.0189819,3.078125,7.03125,0.46875
695,-0.37695312,-0.16485596,0.9701538,-2.3125,6.171875,0.1875
696,-0.3696289,-0.15631104,0.99017334,-3.921875,-0.171875,-0.984375
697,-0.39282227,-0.16461182,1.0033569,-7.0625,-2.796875,-1.046875
698,-0.40478516,-0.1651001,1.0116577,-6.375,-2.65625,-0.984375
699,-0.3955078,-0.13848877,0.98651123,-5.703125,-5.171875,-1.390625
700,-0.38330078,-0.1116333,0.99676514,-3.734375,-14.65625,-3.109375
701,-0.49121094,-0.11456299,0.9833374,-7.046875,-33.921875,-3.96875
702,-0.50341797,-0.019836426,0.90496826,2.0625,-26.65625,-1.546875
703,-0.39331055,-0.07159424,0.82977295,1.96875,-11.421875,3.328125
704,-0.4814452999999999,-0.18878174,0.97821045,2.359375,0.578125,2.09375
705,-0.49804688,-0.16558838,1.0045776,-1.59375,-2.640625,2.515625
706,-0.5407715,-0.16119385,0.96136475,-3.015625,-1.28125,1.5625
707,-0.4873047,-0.112854004,0.93963623,0.34375,4.109375,0.671875
708,-0.45947266,-0.121154785,0.9657593,2.328125,4.28125,1.359375
709,-0.48657227,-0.15045166,0.98553467,1.171875,4.515625,1.03125
710,-0.4650879,-0.14923096,0.9567261,0.53125,6.34375,-0.796875
711,-0.4506835999999999,-0.14385986,0.93573,3.21875,11.375,-0.0625
712,-0.43164062,-0.16217041,0.9845581,6.75,15.296875,0.296875
713,-0.44213867,-0.1819458,1.0465698,7.5,10.28125,0.390625
714,-0.43286133,-0.1338501,0.9606323,0.875,4.890625,-0.671875
715,-0.421875,-0.13677979,1.0023804,1.734375,2.828125,-0.5625
716,-0.40795898,-0.14434814,0.9760132,-4.125,3.1875,-1.296875
717,-0.4177246,-0.15509033,0.9852905,-2.96875,5.125,-0.671875
718,-0.38452148,-0.11627197,0.977478,-3.375,1.171875,-0.90625
719,-0.42871094,-0.13116455,0.9972534,-3.578125,-2.375,-0.796875
720,-0.42895508,-0.1453247,1.013855,-1.203125,-8.171875,-2.09375
721,-0.42822266,-0.12530518,0.9879761,1.46875,-7.625,-2.03125
722,-0.4350585999999999,-0.062561035,0.9320679,2.5625,-22.890625,-2.6875
723,-0.44848633,-0.03302002,0.9176636,7.796875,-21.328125,-1.265625
724,-0.39526367,-0.13677979,0.93865967,9.0,1.234375,5.625
725,-0.4650879,-0.1819458,0.9928589,3.671875,-0.625,3.3125
726,-0.48461914,-0.20904541,1.0280151,-2.359375,-4.15625,1.328125
727,-0.5119629,-0.18682861,0.97576904,-4.171875,-0.234375,0.546875
728,-0.47680664,-0.1194458,0.946228,-3.25,-1.875,-0.421875
729,-0.41577148,-0.09967041,0.94207764,-1.875,1.46875,1.203125
730,-0.5126953,-0.17047119,1.00531,1.078125,4.171875,1.171875
731,-0.44726562,-0.15826416,0.9623413,-0.234375,2.828125,-0.296875
732,-0.46020508,-0.1326293999999999,0.92181396,0.484375,7.15625,-0.1875
733,-0.44604492,-0.16998291,0.9850464,5.4375,15.515625,0.9375
734,-0.4345702999999999,-0.175354,1.0148315,6.09375,11.609375,0.90625
735,-0.41308594,-0.16021729,1.0245972,3.4375,2.984375,-1.328125
736,-0.4465332,-0.14996338,0.98724365,-2.5,2.078125,-0.6875
737,-0.4033203,-0.11895752,0.9689331,-8.890625,-3.203125,-2.546875
738,-0.43701172,-0.10089111,0.97332764,-9.609375,-6.125,-2.9375
739,-0.41552734,-0.12774658,1.017273,-8.125,-5.796875,-3.015625
740,-0.4519043,-0.10333252,0.96209717,-9.09375,-6.5625,-2.328125
741,-0.47021484,-0.10797119,1.0219116,-5.65625,-6.515625,-2.734375
742,-0.42651367,-0.06451416,0.93011475,-11.234375,-6.671875,-2.75
743,-0.47387695,-0.0862426759999999,0.99017334,-3.421875,-4.1875,-1.71875
744,-0.4897460999999999,-0.0491333,0.951355,-0.1875,-13.125,-0.828125
745,-0.51342773,0.014587402,0.8866576999999999,7.8125,-18.96875,-1.25
746,-0.4399414000000001,-0.022033691,0.87298584,14.84375,-2.609375,3.5625
747,-0.5270996,-0.109191895,0.9904175,13.53125,0.96875,6.84375
748,-0.50219727,-0.1663208,0.98553467,5.34375,-0.453125,3.75
749,-0.5180664,-0.14801025,0.9616089,-0.125,-0.0625,2.671875
750,-0.5209961,-0.11236572,0.9435425,-0.734375,2.921875,1.609375
751,-0.45825195,-0.10479736,0.979187,0.90625,4.5625,1.09375
752,-0.47729492,-0.11578369,0.94207764,-0.453125,2.109375,1.359375
753,-0.49121094,-0.15802002,0.9672241,0.578125,3.015625,-0.203125
754,-0.45092773,-0.1338501,0.95892334,0.328125,5.859375,-0.640625
755,-0.44921875,-0.15045166,0.9537964,-2.015625,8.546875,-1.015625
756,-0.45898438,-0.13653564,0.979187,1.96875,8.359375,-0.875
757,-0.4777832,-0.1375122,1.0194702,5.1875,9.125,2.125
758,-0.42578125,-0.09698486,0.9567261,-3.734375,2.75,0.078125
759,-0.44360352,-0.10723877,0.98431396,-2.78125,4.484375,-1.21875
