sample_no,accel_x,accel_y,accel_z,gyro_x,gyro_y,gyro_z
0,0.9279785,-0.10284424,0.33319092,2.15625,0.296875,0.328125
1,0.93115234,-0.10479736,0.32196045,1.875,0.6875,0.578125
2,0.92529297,-0.08892822,0.3463745,5.0,2.234375,-0.234375
3,0.92285156,-0.08868408,0.35125732,5.875,-0.609375,-0.375
4,0.88305664,-0.081848145,0.31951904,2.296875,-6.1875,-0.328125
5,0.8972168,-0.11187744,0.31195068,5.328125,-9.984375,-0.6875
6,0.9584961,-0.15045166,0.33172607,4.0,-5.6875,-0.953125
7,0.9589844,-0.11529541,0.30682373,1.3125,-0.953125,-0.203125
8,0.9433594,-0.11651611,0.31707764,0.796875,-1.421875,0.109375
9,0.93115234,-0.112854004,0.38031006,0.25,-3.125,0.578125
10,0.9267578,-0.10235596,0.35247803,0.21875,-1.265625,0.0625
11,0.92211914,-0.12872314,0.33685303,-1.984375,-2.40625,-0.09375
12,0.9123535,-0.11871338,0.36053467,-0.46875,-1.875,-0.34375
13,0.91845703,-0.121398926,0.38372803,0.484375,-2.453125,-0.671875
14,0.91748047,-0.12384033,0.38031006,-0.34375,-2.734375,-0.8125
15,0.9223633,-0.11895752,0.3678589,0.15625,-2.0,-0.46875
16,0.9182129,-0.11602783,0.3612671,-0.078125,-1.953125,0.03125
17,0.92456055,-0.11798096,0.36761475,-0.515625,-2.0,-0.078125
18,0.9086914,-0.11895752,0.36663818,-1.015625,-2.234375,-0.109375
19,0.8964844,-0.12017822,0.37908936,-0.828125,-2.734375,-0.046875
20,0.9267578,-0.13897705,0.3817749,-3.375,-0.015625,0.3125
21,0.94311523,-0.1272583,0.41400146,-6.859375,1.734375,1.390625
22,0.9194336,-0.11602783,0.36688232,-6.609375,3.53125,1.71875
23,0.8840332,-0.09527588,0.35394287,-3.296875,4.09375,1.109375
24,0.92456055,-0.09942627,0.38812256,-1.546875,2.4375,1.171875
25,0.89990234,-0.10845947,0.35736084,-2.3125,1.609375,1.734375
26,0.9094238,-0.09259033,0.36517334,0.1875,2.46875,1.390625
27,0.920166,-0.09649658,0.40545654,2.984375,0.8125,1.5
28,0.9309082,-0.08673096,0.369812,0.734375,0.984375,1.390625
29,0.9152832,-0.08453369,0.30682373,-0.03125,2.96875,1.046875
30,0.9213867,-0.08770752,0.36883545,3.171875,2.890625,0.9375
31,0.9379883,-0.09161377,0.3480835,1.671875,2.765625,0.734375
32,0.92944336,-0.09136963,0.32977295,3.90625,2.28125,0.21875
33,0.9370117,-0.093566895,0.338562,3.75,1.046875,-0.140625
34,0.93237305,-0.09649658,0.3102417,3.40625,0.578125,0.328125
35,0.9355469,-0.09674072,0.35272217,3.578125,3.296875,0.375
36,0.92626953,-0.09088135,0.3312378,5.125,2.9375,0.296875
37,0.9355469,-0.09698486,0.33929443,6.28125,1.796875,0.140625
38,0.91748047,-0.09625244,0.31463623,3.609375,-0.25,-0.140625
39,0.90844727,-0.089904785,0.29486084,-0.796875,-5.5,0.125
40,0.9042969,-0.10626221,0.2855835,-0.171875,-11.59375,0.515625
41,0.9724121,-0.124572754,0.35809326,2.21875,-7.3125,0.171875
42,0.9506836,-0.12750244,0.33587646,3.625,-3.546875,-0.25
43,0.9350586,-0.09698486,0.30340576,-0.390625,-2.984375,0.0
44,0.9157715,-0.11090088,0.34417725,0.390625,-2.078125,0.53125
45,0.92211914,-0.09942627,0.35858154,0.5625,-0.5625,0.203125
46,0.9501953,-0.11627197,0.33050537,-1.5625,-2.484375,-0.53125
47,0.9238281,-0.10626221,0.34735107,-0.78125,-2.171875,-0.28125
48,0.9169922,-0.11968994,0.37249756,0.234375,-2.734375,-0.625
49,0.92578125,-0.120910645,0.3661499,-0.09375,-3.0625,-0.796875
50,0.92041016,-0.11260986,0.3649292,0.125,-2.21875,-0.59375
51,0.9206543,-0.11480713,0.3571167,-0.03125,-2.046875,-0.3125
52,0.9226074,-0.11895752,0.35858154,-0.078125,-1.5,-0.3125
53,0.9160156,-0.116760254,0.36273193,-0.4375,-2.21875,-0.203125
54,0.9069824,-0.116760254,0.37420654,-0.03125,-2.03125,-0.3125
55,0.9030762,-0.11407471,0.36663818,0.671875,-1.234375,-0.265625
56,0.90893555,-0.11529541,0.3788452,0.328125,-0.953125,-0.265625
57,0.91137695,-0.12872314,0.37298584,-1.484375,-0.8125,0.0625
58,0.92822266,-0.12628174,0.37371826,-4.078125,0.734375,0.9375
59,0.92456055,-0.12774658,0.37445068,-5.546875,-0.734375,1.59375
60,0.9099121,-0.10845947,0.35809326,-7.40625,1.96875,1.671875
61,0.91064453,-0.08648682,0.3727417,-3.359375,3.015625,1.28125
62,0.90966797,-0.093566895,0.3612671,-3.890625,3.046875,0.984375
63,0.9147949,-0.090148926,0.39886475,0.078125,1.453125,1.421875
64,0.9147949,-0.11260986,0.3439331,-0.46875,-0.5,1.328125
65,0.9291992,-0.09136963,0.3546753,-0.03125,2.515625,0.953125
66,0.9069824,-0.07305908,0.34588623,0.328125,3.765625,0.765625
67,0.93969727,-0.09161377,0.3534546,0.28125,1.296875,1.078125
68,0.91625977,-0.09185791,0.34368896,1.828125,2.71875,0.703125
69,0.9343262,-0.093322754,0.32147217,2.234375,1.859375,0.5625
70,0.93481445,-0.090148926,0.34466553,3.640625,1.328125,0.359375
71,0.93359375,-0.09576416,0.32659912,2.375,1.078125,0.53125
72,0.9421387,-0.093811035,0.324646,2.25,1.359375,0.578125
73,0.923584,-0.08648682,0.32537842,5.609375,2.15625,0.046875
74,0.93774414,-0.097717285,0.33465576,6.34375,1.125,0.609375
75,0.9296875,-0.08380127,0.32537842,4.96875,1.59375,0.296875
76,0.90405273,-0.082092285,0.34295654,4.9375,-2.1875,-0.03125
77,0.89086914,-0.081848145,0.3078003,0.890625,-6.265625,-0.78125
78,0.92822266,-0.113342285,0.31048584,5.078125,-6.296875,-1.84375
79,0.9694824,-0.12896729,0.31243896,4.296875,-4.03125,-1.765625
80,0.96362305,-0.1182251,0.291687,0.09375,-2.265625,-0.1875
81,0.93359375,-0.11138916,0.309021,-0.390625,-2.109375,-0.125
82,0.92626953,-0.12310791,0.32855225,-0.703125,-3.734375,-0.421875
83,0.94140625,-0.10845947,0.36541748,-0.4375,-2.640625,-0.484375
84,0.9223633,-0.12261963,0.32977295,-2.6875,-2.953125,-0.125
85,0.9189453,-0.109191895,0.35687256,-1.140625,-3.34375,-0.421875
86,0.91748047,-0.12530518,0.38226318,-0.09375,-3.59375,-0.75
87,0.91503906,-0.11920166,0.36883545,-0.65625,-3.15625,-0.375
88,0.91967773,-0.112854004,0.35272217,-0.28125,-2.375,-0.109375
89,0.92626953,-0.11212158,0.35394287,-0.03125,-2.09375,-0.1875
90,0.9094238,-0.11578369,0.3703003,0.09375,-1.109375,-0.28125
91,0.9152832,-0.11968994,0.36712646,-0.375,-0.28125,-0.0625
92,0.9013672,-0.108947754,0.37371826,0.6875,-1.03125,-0.03125
93,0.9267578,-0.13165283,0.35272217,-1.09375,-0.578125,0.125
94,0.9387207,-0.13995361,0.4003296,-3.9375,2.109375,0.875
95,0.9343262,-0.12701416,0.3546753,-6.0,2.34375,1.453125
96,0.90844727,-0.09942627,0.3529663,-4.984375,3.3125,1.359375
97,0.9152832,-0.09844971,0.36151123,-2.90625,3.515625,1.03125
98,0.921875,-0.10772705,0.3595581,-1.625,2.171875,1.5
99,0.92578125,-0.105529785,0.36883545,-0.828125,1.03125,1.28125
100,0.92041016,-0.10284424,0.3427124,-1.390625,0.171875,1.078125
101,0.9326172,-0.09625244,0.33172607,0.171875,1.515625,1.078125
102,0.90600586,-0.08892822,0.33685303,2.328125,-0.453125,1.09375
103,0.9265137,-0.09576416,0.31732178,2.578125,-0.859375,1.546875
104,0.95043945,-0.07281494,0.36224365,1.484375,2.875,0.828125
105,0.9055176,-0.085510254,0.30828857,1.703125,2.40625,0.65625
106,0.9411621,-0.097473145,0.35125732,1.1875,0.375,0.578125
107,0.923584,-0.09454346,0.32537842,1.59375,0.171875,0.4375
108,0.939209,-0.09039307,0.32635498,3.03125,0.828125,0.015625
109,0.93481445,-0.089660645,0.338562,2.890625,0.015625,0.21875
110,0.92700195,-0.07965088,0.34466553,3.125,1.5,0.28125
111,0.9165039,-0.101135254,0.31829834,2.390625,-2.15625,0.125
112,0.8930664,-0.07305908,0.31976318,2.3125,-4.703125,-0.25
113,0.904541,-0.09283447,0.32440186,5.6875,-9.171875,-0.984375
114,0.97558594,-0.14141846,0.3336792,5.453125,-5.515625,-1.59375
115,0.95751953,-0.11187744,0.30804443,1.71875,-3.046875,-0.578125
116,0.9316406,-0.09576416,0.32122803,2.109375,-0.78125,-0.296875
117,0.9304199,-0.11529541,0.33709717,1.359375,-1.484375,-0.109375
118,0.92993164,-0.124572754,0.34246826,0.625,-2.4375,-0.078125
119,0.9182129,-0.124816895,0.34857178,-0.59375,-2.296875,-0.328125
120,0.9328613,-0.11871338,0.34320068,-1.65625,-2.265625,-0.25
121,0.9152832,-0.11505127,0.37249756,-0.25,-3.328125,-0.40625
122,0.91625977,-0.117004395,0.36224365,-1.359375,-3.890625,-0.40625
123,0.9189453,-0.117004395,0.34881592,-0.296875,-1.890625,-0.0625
124,0.90966797,-0.10821533,0.34222412,-0.890625,-1.34375,0.078125
125,0.9033203,-0.10675049,0.38323975,0.953125,-1.53125,-0.359375
126,0.923584,-0.12506104,0.3690796,-0.21875,-1.3125,-0.53125
127,0.9121094,-0.121154785,0.3703003,-0.28125,-0.953125,-0.453125
128,0.9255371,-0.12261963,0.38616943,-1.890625,2.03125,0.046875
129,0.9379883,-0.13604736,0.37664795,-5.71875,2.890625,0.703125
130,0.9379883,-0.12237549,0.34124756,-6.25,2.328125,1.484375
131,0.8925781,-0.08795166,0.34881592,-4.25,2.96875,1.21875
132,0.9147949,-0.09918213,0.36712646,-1.0,2.1875,1.046875
133,0.92993164,-0.10772705,0.37445068,-0.53125,1.421875,1.296875
134,0.9182129,-0.1026001,0.35614014,0.4375,1.890625,1.328125
135,0.91674805,-0.094055176,0.34979248,0.859375,1.46875,1.4375
136,0.92333984,-0.09088135,0.34857178,1.46875,1.359375,1.265625
137,0.9152832,-0.090148926,0.3336792,1.84375,1.234375,1.078125
138,0.93530273,-0.09063721,0.3505249,2.40625,2.140625,0.78125
139,0.9250488,-0.09161377,0.3143921,0.5,1.15625,0.890625
140,0.9326172,-0.09063721,0.31756592,2.3125,3.15625,0.671875
141,0.93310547,-0.09649658,0.32684326,2.84375,1.734375,0.515625
142,0.9375,-0.101867676,0.30975342,3.53125,-0.171875,0.90625
143,0.9460449,-0.09210205,0.34246826,2.3125,2.390625,0.296875
144,0.9206543,-0.0947876,0.276062,1.984375,1.328125,0.34375
145,0.94555664,-0.09967041,0.33148193,2.421875,0.625,0.359375
146,0.93725586,-0.09307861,0.32537842,3.421875,0.421875,-0.203125
147,0.923584,-0.09088135,0.3139038,2.265625,-1.859375,-0.34375
148,0.8967285,-0.08282471,0.30633545,0.5625,-6.59375,-0.03125
149,0.8977051,-0.09307861,0.32122803,3.390625,-10.328125,-0.921875
150,0.9733887,-0.15167236,0.30755615,3.84375,-7.203125,-1.671875
151,0.96655273,-0.11090088,0.3065796,0.640625,-2.515625,-0.71875
152,0.95043945,-0.108947754,0.3217163,0.8125,-1.625,-0.171875
153,0.9255371,-0.116760254,0.3085327,-1.09375,-3.40625,0.21875
154,0.92993164,-0.109191895,0.34661865,-0.40625,-3.59375,0.140625
155,0.92333984,-0.1194458,0.35931396,-0.078125,-2.890625,-0.40625
156,0.93066406,-0.12506104,0.35858154,0.046875,-2.296875,-0.390625
157,0.92089844,-0.11187744,0.34613037,-1.109375,-3.8125,-0.1875
158,0.920166,-0.113586426,0.3637085,-1.28125,-3.84375,0.03125
159,0.9145508,-0.1194458,0.35491943,-0.90625,-3.1875,0.109375
160,0.9123535,-0.105285645,0.35516357,-1.234375,-2.8125,0.234375
161,0.91503906,-0.10430908,0.38616943,-0.703125,-2.796875,0.109375
162,0.9194336,-0.113586426,0.3727417,-2.609375,-2.328125,0.15625
163,0.91748047,-0.113342285,0.3571167,-2.328125,-1.453125,0.25
164,0.9128418,-0.10357666,0.37445068,-1.171875,-0.0625,-0.09375
165,0.89819336,-0.10675049,0.3908081,0.90625,0.484375,-0.359375
166,0.9094238,-0.116760254,0.38690186,-1.515625,3.53125,-0.75
167,0.94555664,-0.13726807,0.3973999,-2.375,4.890625,-0.390625
168,0.9399414,-0.13043213,0.35614014,-3.625,3.703125,0.765625
169,0.90966797,-0.09259033,0.34417725,-3.578125,3.484375,0.984375
170,0.923584,-0.1038208,0.34539795,-1.1875,2.515625,0.625
171,0.921875,-0.10821533,0.36395264,-0.53125,2.03125,1.203125
172,0.9160156,-0.09674072,0.36834717,1.640625,2.078125,1.328125
173,0.9187012,-0.09698486,0.35882568,2.46875,1.3125,1.109375
174,0.920166,-0.10797119,0.33953857,2.453125,0.1875,1.234375
175,0.92529297,-0.10211182,0.324646,1.953125,1.078125,1.0625
176,0.9291992,-0.09161377,0.32391357,1.703125,2.265625,1.3125
177,0.9350586,-0.093322754,0.33685303,3.421875,2.203125,0.9375
178,0.93774414,-0.089904785,0.32244873,1.515625,1.171875,0.515625
179,0.9248047,-0.09844971,0.31903076,2.65625,1.265625,0.765625
180,0.93237305,-0.10479736,0.31292725,3.484375,1.46875,0.3125
181,0.94873047,-0.097229004,0.35882568,5.078125,-0.0625,0.40625
182,0.9362793,-0.1038208,0.31707764,2.5,-0.8125,0.484375
183,0.91845703,-0.09063721,0.29608154,1.78125,2.96875,0.28125
184,0.92529297,-0.097229004,0.34222412,2.5,0.125,0.25
185,0.89331055,-0.078186035,0.31365967,1.015625,-5.5,-0.140625
186,0.89941406,-0.10821533,0.2909546,1.828125,-10.59375,-0.734375
187,0.9760742,-0.12750244,0.30926514,1.5625,-6.40625,-1.546875
188,0.9663086,-0.12359619,0.3163452,1.328125,-3.40625,-0.8125
189,0.9511719,-0.117248535,0.3348999,-0.703125,-2.09375,-0.421875
190,0.9289551,-0.10455322,0.3180542,-1.34375,-3.21875,-0.078125
191,0.9194336,-0.11090088,0.3463745,-0.21875,-3.25,0.09375
192,0.9309082,-0.113586426,0.34710693,-0.21875,-3.59375,0.140625
193,0.9206543,-0.10845947,0.36224365,-0.703125,-4.609375,-0.046875
194,0.9177246,-0.105529785,0.36468506,-0.53125,-5.171875,-0.1875
195,0.91918945,-0.11627197,0.35931396,-0.8125,-3.484375,-0.140625
196,0.90771484,-0.11090088,0.37078857,-0.5,-2.984375,0.0
197,0.90893555,-0.109436035,0.37322998,-0.515625,-2.828125,-0.234375
198,0.9172363,-0.10870361,0.38519287,-0.53125,-2.96875,-0.125
199,0.9033203,-0.10430908,0.37200928,-0.875,-1.515625,-0.15625
200,0.9121094,-0.11090088,0.387146,-0.5625,0.09375,-0.4375
201,0.90234375,-0.10723877,0.4069214,0.375,0.3125,-0.59375
202,0.9362793,-0.12554932,0.40423584,-2.875,4.078125,0.0625
203,0.94091797,-0.13189697,0.34320068,-4.40625,4.375,0.859375
204,0.9033203,-0.09185791,0.3607788,-4.84375,4.65625,0.9375
205,0.9094238,-0.10748291,0.38079834,-1.59375,3.125,0.65625
206,0.923584,-0.105285645,0.37225342,-2.5,2.640625,0.640625
207,0.91796875,-0.10626221,0.34368896,-1.203125,1.828125,1.375
208,0.9321289,-0.0960083,0.35638428,0.109375,2.265625,1.046875
209,0.91845703,-0.09698486,0.34832764,0.40625,2.1875,1.0625
210,0.92333984,-0.09234619,0.33099365,1.5,1.78125,1.1875
211,0.92285156,-0.082336426,0.34368896,3.828125,2.84375,0.921875
212,0.9345703,-0.09210205,0.34222412,4.890625,1.296875,1.0
213,0.9367676,-0.09649658,0.32635498,3.609375,0.828125,0.921875
214,0.93652344,-0.093566895,0.30975342,3.890625,0.046875,0.84375
215,0.92822266,-0.10430908,0.307312,3.5,0.25,0.625
216,0.93896484,-0.08721924,0.33514404,2.5625,1.078125,0.671875
217,0.93188477,-0.10089111,0.3151245,2.03125,-0.953125,0.640625
218,0.93481445,-0.089660645,0.34588623,2.578125,1.1875,0.5
219,0.9165039,-0.093811035,0.31781006,2.25,-0.09375,-0.046875
220,0.9133301,-0.07696533,0.35784912,2.015625,-3.8125,0.0
221,0.8779297,-0.082336426,0.30194092,1.421875,-9.375,-0.46875
222,0.951416,-0.1375122,0.29486084,2.421875,-7.6875,-1.640625
223,0.97436523,-0.11602783,0.30975342,2.578125,-2.453125,-0.578125
224,0.95458984,-0.112854004,0.3451538,1.734375,-1.671875,-0.390625
225,0.93237305,-0.11651611,0.32562256,-0.796875,-2.75,-0.28125
226,0.9399414,-0.11236572,0.33392334,-0.828125,-2.96875,-0.4375
227,0.93188477,-0.11627197,0.34002686,-1.5,-4.109375,-0.34375
228,0.9248047,-0.11138916,0.36151123,-1.53125,-3.5,-0.015625
229,0.9172363,-0.117492676,0.3505249,-1.765625,-3.671875,-0.109375
230,0.91015625,-0.1038208,0.38250732,-0.703125,-4.09375,-0.15625
231,0.9116211,-0.11065674,0.36517334,0.796875,-2.859375,-0.09375
232,0.9091797,-0.10870361,0.38397217,0.671875,-2.40625,-0.203125
233,0.90844727,-0.11529541,0.3781128,0.609375,-2.0,-0.390625
234,0.91064453,-0.12554932,0.371521,-0.265625,-0.546875,-0.734375
235,0.9223633,-0.12799072,0.3847046,-1.6875,2.53125,0.140625
236,0.9152832,-0.121398926,0.39056396,-3.09375,3.515625,0.359375
237,0.9367676,-0.12286377,0.37738037,-3.421875,1.828125,0.828125
238,0.91064453,-0.11065674,0.34246826,-5.296875,2.96875,1.078125
239,0.91064453,-0.09844971,0.35565186,-2.109375,5.03125,0.515625
240,0.9094238,-0.09698486,0.3908081,0.875,3.15625,0.703125
241,0.9250488,-0.10284424,0.3703003,-0.328125,2.5625,0.625
242,0.9082031,-0.12188721,0.23480225,-4.015625,0.28125,2.65625
243,0.92871094,-0.058410645,0.35443115,1.796875,2.890625,0.9375
244,1.0095215,-0.10406494,0.44476318,11.71875,10.34375,0.640625
245,1.0070801,-0.22491455,0.3048706,7.234375,-2.984375,-1.5625
246,0.9536133,-0.13922119,0.322937,1.0625,-4.015625,2.78125
247,0.8618164,-0.10211182,0.30145264,1.40625,1.703125,3.125
248,0.88305664,-0.10211182,0.2994995,0.78125,5.875,3.5625
249,0.9790039,-0.06793213,0.36956787,2.359375,3.921875,2.546875
250,0.88500977,-0.10015869,0.30340576,4.90625,3.96875,2.046875
251,0.93774414,-0.08453369,0.31414795,4.59375,5.375,3.4375
252,0.9406738,-0.078430176,0.3053589,2.71875,2.75,2.609375
253,0.8718262,-0.059143066,0.3241577,3.96875,5.828125,-0.0625
254,0.9169922,-0.07745361,0.30023193,2.28125,9.921875,-0.125
255,0.90844727,-0.054748535,0.20648193,2.34375,-3.796875,0.375
256,0.93603516,-0.093566895,0.2765503,3.453125,-2.5,-1.046875
257,1.0393066,-0.16827393,0.24456787,-0.375,0.6875,-1.875
258,1.0378418,-0.13092041,0.20574951,-2.640625,-2.109375,0.015625
259,0.9790039,-0.07940674,0.20941162,-2.9375,-3.78125,-1.609375
260,0.95947266,-0.08135986,0.23431396,-0.390625,-1.984375,-1.25
261,0.9291992,-0.06964111,0.23822021,0.96875,-2.703125,0.03125
262,0.92041016,-0.06744385,0.33294678,6.0625,-0.84375,-0.46875
263,0.9572754,-0.12335205,0.29608154,5.515625,0.375,-0.5
264,0.9909668,-0.13677979,0.33099365,3.65625,0.359375,-0.234375
265,0.9421387,-0.1416626,0.26898193,0.515625,-2.125,0.34375
266,0.935791,-0.12774658,0.277771,-0.265625,-3.328125,0.609375
267,0.9042969,-0.11212158,0.31292725,2.34375,0.5,-1.484375
268,0.94018555,-0.15240479,0.25238037,-0.453125,3.109375,-1.1875
269,0.98461914,-0.15557861,0.2831421,-4.734375,3.96875,0.125
270,0.95288086,-0.11627197,0.24481201,-9.3125,4.21875,1.890625
271,0.92285156,-0.07476807,0.28997803,-4.640625,4.75,1.703125
272,0.9589844,-0.018615723,0.29852295,-0.71875,5.125,-1.875
273,0.99194336,-0.11065674,0.3114624,2.125,2.609375,-2.90625
274,0.9790039,-0.17486572,0.22991943,-0.53125,-1.421875,-0.109375
275,0.9123535,-0.14263916,0.23651123,-1.734375,-1.65625,1.8125
276,0.9511719,-0.12335205,0.2086792,-2.546875,-0.609375,2.765625
277,0.9667969,-0.07086182,0.23626709,-1.65625,-1.375,0.921875
278,0.95288086,-0.085754395,0.24749756,1.40625,-3.75,-0.046875
279,0.9465332,-0.09136963,0.260437,3.59375,-5.640625,-0.25
280,0.9772949,-0.10064697,0.2597046,1.40625,-1.78125,-0.359375
281,0.95825195,-0.13043213,0.24359131,1.0625,-0.46875,-0.65625
282,0.92041016,-0.086242676,0.27581787,0.59375,-4.0625,-1.578125
283,0.90478516,-0.12652588,0.28167725,3.828125,0.359375,-0.21875
284,0.9602051,-0.113342285,0.2609253,2.5,-0.984375,1.03125
285,0.96972656,-0.10748291,0.2501831,2.109375,-2.40625,-0.328125
286,0.91064453,-0.090148926,0.27288818,1.578125,-3.703125,-1.140625
287,0.91748047,-0.09967041,0.2723999,0.3125,-2.609375,-1.53125
288,0.9160156,-0.085510254,0.27069092,1.625,-5.828125,-3.25
289,0.9265137,-0.10040283,0.27630615,4.71875,-13.015625,-4.796875
290,0.9785156,-0.17779541,0.2579956,4.546875,-10.3125,-4.40625
291,0.9897461,-0.15631104,0.31463623,1.5625,-9.0625,-2.234375
292,0.9206543,-0.16021729,0.3053589,-0.265625,-6.609375,-1.09375
293,0.9199219,-0.1651001,0.30804443,-1.890625,-5.625,1.265625
294,0.9350586,-0.13116455,0.30755615,-2.109375,-4.8125,2.703125
295,0.9001465,-0.12530518,0.33441162,-0.875,-3.71875,2.890625
296,0.9169922,-0.12554932,0.3348999,-1.125,-6.203125,1.0
297,0.9724121,-0.120910645,0.4159546,1.390625,-6.3125,-2.875
298,0.9267578,-0.15435791,0.40008545,1.8125,-7.65625,-1.140625
299,0.8635254,-0.16949463,0.35101318,-2.28125,-7.171875,-0.78125
300,0.8640137,-0.1506958,0.36541748,-1.84375,-3.375,-0.34375
301,0.8996582,-0.121154785,0.3998413,0.921875,2.265625,-1.546875
302,0.91503906,-0.15802002,0.38104248,0.0,3.578125,0.171875
303,0.9157715,-0.1416626,0.3529663,-1.65625,1.640625,2.3125
304,0.8835449,-0.13336182,0.35321045,-1.25,2.28125,2.9375
305,0.9211426,-0.14849854,0.3895874,-2.3125,6.140625,3.234375
306,1.0004883,-0.1416626,0.33880615,-5.546875,3.875,1.46875
307,0.923584,-0.10479736,0.34124756,-1.203125,-1.796875,-2.328125
308,0.91430664,-0.12823486,0.33709717,1.3125,-8.15625,-2.796875
309,0.92163086,-0.12701416,0.3751831,-0.59375,-5.109375,-2.453125
310,0.9055176,-0.15802002,0.38568115,-1.421875,-0.125,0.15625
311,0.92089844,-0.16656494,0.354187,-3.4375,-0.171875,3.171875
312,0.89624023,-0.12921143,0.37176514,-3.0,-0.703125,3.953125
313,0.91064453,-0.112854004,0.37322998,-2.125,-0.640625,3.4375
314,0.9128418,-0.101379395,0.3817749,-0.015625,-0.875,1.734375
315,0.904541,-0.09307861,0.36273193,-0.015625,-2.21875,0.6875
316,0.90722656,-0.101867676,0.37347412,1.296875,-1.078125,0.3125
317,0.9082031,-0.10797119,0.3685913,1.640625,0.546875,0.296875
318,0.91967773,-0.11138916,0.42010498,4.078125,1.28125,0.578125
319,0.9182129,-0.12017822,0.35443115,2.640625,1.0,1.078125
320,0.9223633,-0.12628174,0.32684326,1.34375,3.03125,1.125
321,0.9082031,-0.117004395,0.38128662,3.828125,2.734375,1.109375
322,0.9260254,-0.11383057,0.3751831,2.734375,2.328125,0.765625
323,0.92041016,-0.10455322,0.35125732,4.703125,1.671875,0.234375
324,0.8930664,-0.10040283,0.3324585,1.328125,-4.703125,0.40625
325,0.8703613,-0.09527588,0.3156128,-0.265625,-12.484375,0.09375
326,0.93188477,-0.121398926,0.37347412,2.609375,-9.21875,-2.296875
327,0.9526367,-0.13287354,0.34100342,1.140625,-7.59375,-3.0
328,0.93188477,-0.121398926,0.36468506,1.1875,-4.78125,-2.421875
329,0.9057617,-0.13165283,0.39007568,2.203125,-3.765625,-2.09375
330,0.8996582,-0.14385986,0.4003296,0.34375,-4.03125,-1.4375
331,0.90356445,-0.14996338,0.4142456,0.734375,-3.125,-0.484375
332,0.8984375,-0.14459229,0.4022827,0.140625,-1.9375,-0.203125
333,0.9013672,-0.13946533,0.41619873,-0.34375,-2.3125,0.40625
334,0.8942871,-0.14459229,0.41400146,-0.421875,-2.9375,0.453125
335,0.8935547,-0.13677979,0.41522217,-0.484375,-2.875,0.53125
336,0.8840332,-0.14141846,0.39959717,-0.96875,-0.421875,0.34375
337,0.8898926,-0.13580322,0.41326904,-0.296875,0.109375,0.234375
338,0.89331055,-0.13458252,0.42523193,1.28125,0.375,-0.0625
339,0.90063477,-0.13946533,0.4232788,0.4375,0.828125,-0.046875
340,0.9057617,-0.13873291,0.3895874,-0.734375,1.625,-0.0625
341,0.8942871,-0.13482666,0.39227295,-0.140625,1.40625,-0.125
342,0.90112305,-0.14678955,0.4232788,1.25,1.0625,-0.640625
343,0.91845703,-0.1729126,0.42474365,-3.75,2.953125,-0.515625
344,0.92626953,-0.14630127,0.37664795,-7.921875,3.3125,0.453125
345,0.8881836,-0.12335205,0.39666748,-5.171875,3.875,1.890625
346,0.89746094,-0.12554932,0.39276123,-2.3125,4.078125,2.3125
347,0.90771484,-0.13043213,0.37347412,-2.34375,1.375,2.21875
348,0.89990234,-0.10870361,0.36834717,0.390625,2.328125,1.59375
349,0.9111328,-0.11895752,0.387146,2.234375,0.265625,0.734375
350,0.9172363,-0.12506104,0.36834717,1.859375,-1.234375,0.515625
351,0.91625977,-0.117492676,0.3776245,1.359375,-0.78125,0.8125
352,0.9133301,-0.1194458,0.36029053,1.0625,0.546875,1.546875
353,0.9116211,-0.11260986,0.37786865,1.75,2.171875,1.546875
354,0.9165039,-0.11798096,0.3793335,2.1875,1.40625,1.4375
355,0.91137695,-0.121398926,0.37347412,1.875,0.6875,1.21875
356,0.9250488,-0.11090088,0.35101318,1.96875,2.625,0.828125
357,0.91503906,-0.12017822,0.35394287,2.671875,1.5625,0.65625
358,0.91845703,-0.12286377,0.33343506,3.203125,-1.125,1.3125
359,0.92822266,-0.10015869,0.40130615,2.46875,2.875,1.03125
360,0.8972168,-0.105285645,0.3151245,1.921875,1.015625,0.90625
361,0.8996582,-0.09918213,0.3624878,2.375,-2.765625,0.578125
362,0.8725586,-0.09820557,0.31976318,0.90625,-10.75,-0.125
363,0.9279785,-0.12188721,0.35687256,4.078125,-10.6875,-2.84375
364,0.95214844,-0.1404419,0.3637085,3.46875,-7.625,-2.671875
365,0.9267578,-0.1272583,0.35980225,0.65625,-5.8125,-2.15625
366,0.91137695,-0.13287354,0.38519287,0.265625,-5.296875,-1.5
367,0.89990234,-0.14263916,0.38812256,-0.6875,-3.15625,-0.84375
368,0.89282227,-0.14337158,0.416687,-0.3125,-2.234375,0.078125
369,0.9020996,-0.14361572,0.3817749,-0.15625,-2.21875,0.046875
370,0.90234375,-0.14141846,0.4179077,-0.125,-2.953125,0.046875
371,0.8869629,-0.13702393,0.42132568,-0.5,-3.828125,-0.0625
372,0.8955078,-0.14459229,0.41351318,-0.65625,-2.796875,-0.28125
373,0.8911133,-0.12554932,0.41375732,-0.5,-1.640625,-0.125
374,0.89038086,-0.1375122,0.42010498,0.15625,-0.140625,0.125
375,0.8898926,-0.13067627,0.41619873,0.328125,0.328125,0.25
376,0.88720703,-0.1338501,0.39642334,-0.734375,1.828125,-0.015625
377,0.89624023,-0.1416626,0.41326904,-0.875,2.359375,0.0625
378,0.9086914,-0.1572876,0.4406128,-3.046875,4.203125,0.1875
379,0.9128418,-0.12921143,0.3829956,-3.8125,4.5,0.625
380,0.89038086,-0.11602783,0.3949585,-4.53125,5.328125,1.265625
381,0.90478516,-0.1296997,0.4130249,-2.078125,3.90625,1.984375
382,0.9157715,-0.13165283,0.38446045,-2.734375,2.921875,1.40625
383,0.90722656,-0.11407471,0.3788452,-0.625,2.265625,1.0625
384,0.92211914,-0.117248535,0.38104248,1.265625,1.5,0.71875
385,0.91552734,-0.12408447,0.36956787,0.765625,0.53125,0.96875
386,0.9111328,-0.11968994,0.37982178,1.21875,2.1875,1.125
387,0.91186523,-0.10430908,0.36468506,2.265625,2.75,1.625
388,0.9194336,-0.12261963,0.36712646,3.515625,2.03125,1.75
389,0.9248047,-0.11553955,0.3554077,3.65625,1.53125,1.5
390,0.9177246,-0.109680176,0.34588623,4.078125,1.109375,1.875
391,0.9265137,-0.11627197,0.3554077,3.84375,0.875,1.53125
392,0.9313965,-0.10821533,0.3456421,2.28125,0.28125,1.21875
393,0.94091797,-0.10821533,0.34490967,2.34375,3.859375,1.484375
394,0.9177246,-0.11798096,0.36883545,3.578125,4.75,1.296875
395,0.892334,-0.10333252,0.34466553,1.921875,1.0625,1.015625
396,0.92041016,-0.10699463,0.3439331,2.46875,-1.71875,0.6875
397,0.87841797,-0.08892822,0.29412842,-0.484375,-10.5,0.4375
398,0.9001465,-0.1104126,0.2831421,1.21875,-13.328125,-1.90625
399,0.95703125,-0.13677979,0.3649292,2.484375,-9.75,-2.640625
400,0.96728516,-0.12554932,0.3649292,0.5625,-8.0,-3.765625
401,0.91137695,-0.121398926,0.3685913,1.15625,-6.25,-3.53125
402,0.90527344,-0.14385986,0.39398193,-0.375,-4.90625,-2.359375
403,0.9082031,-0.1404419,0.3998413,-1.1875,-3.15625,-1.21875
404,0.91064453,-0.15582275,0.4093628,-1.375,-2.4375,-0.46875
405,0.892334,-0.14581299,0.3925171,-1.90625,-2.453125,0.171875
406,0.8869629,-0.13433838,0.42840576,-0.546875,-2.71875,0.546875
407,0.8930664,-0.13311768,0.39837646,0.5625,-2.953125,0.5
408,0.892334,-0.12774658,0.4262085,-0.109375,-2.34375,0.390625
409,0.8911133,-0.11505127,0.41375732,0.484375,-1.0625,0.34375
410,0.8942871,-0.124572754,0.40594482,0.4375,0.59375,0.015625
411,0.89160156,-0.14385986,0.40960693,0.375,0.515625,-0.09375
412,0.9128418,-0.14971924,0.42694092,-0.640625,3.9375,-0.140625
413,0.9111328,-0.16143799,0.4076538,-3.421875,4.796875,0.015625
414,0.90283203,-0.13092041,0.3998413,-4.25,4.40625,0.9375
415,0.88549805,-0.121398926,0.42279053,-1.515625,3.703125,1.53125
416,0.9094238,-0.12701416,0.387146,-2.03125,2.265625,1.890625
417,0.9104004,-0.1404419,0.34197998,-2.078125,3.390625,1.578125
418,0.904541,-0.109191895,0.38079834,0.328125,4.515625,1.640625
419,0.91625977,-0.12188721,0.38739014,1.046875,2.3125,0.96875
420,0.9135742,-0.11651611,0.37322998,0.984375,1.359375,0.546875
421,0.92163086,-0.109436035,0.35760498,1.671875,1.09375,1.15625
422,0.9187012,-0.1182251,0.36663818,1.828125,1.03125,1.28125
423,0.9147949,-0.11065674,0.34710693,0.5,0.734375,1.859375
424,0.92041016,-0.11407471,0.3607788,0.75,1.328125,1.515625
425,0.9189453,-0.10308838,0.36541748,3.375,2.46875,1.125
426,0.92529297,-0.11871338,0.3583374,3.671875,0.515625,1.15625
427,0.91430664,-0.11993408,0.34832764,3.21875,-0.8125,1.4375
428,0.9211426,-0.10772705,0.35394287,2.796875,-0.859375,1.546875
429,0.9182129,-0.108947754,0.3607788,1.40625,-0.28125,1.109375
430,0.90527344,-0.09503174,0.34906006,0.328125,1.03125,1.125
431,0.8937988,-0.093566895,0.355896,2.171875,-1.171875,0.640625
432,0.8679199,-0.08355713,0.31781006,1.734375,-9.984375,-0.296875
433,0.9189453,-0.11920166,0.3529663,3.34375,-12.28125,-2.5
434,0.96191406,-0.121398926,0.3768921,2.546875,-7.140625,-2.84375
435,0.9326172,-0.12774658,0.33343506,-0.421875,-5.25,-2.4375
436,0.9086914,-0.11798096,0.39349365,1.0625,-3.421875,-2.15625
437,0.90356445,-0.13800049,0.41497803,0.265625,-4.078125,-1.5625
438,0.9099121,-0.14801025,0.39593506,-1.125,-2.140625,-1.453125
439,0.90771484,-0.13580322,0.39300537,-1.40625,-1.484375,-0.5625
440,0.9074707,-0.14483643,0.38909912,-1.46875,-2.921875,0.03125
441,0.90185547,-0.14605713,0.42913818,-0.703125,-2.96875,0.359375
442,0.88916016,-0.1375122,0.4022827,-1.65625,-3.015625,0.359375
443,0.8833008,-0.12188721,0.41693115,-0.6875,-2.390625,0.609375
444,0.88549805,-0.12750244,0.40716553,0.484375,-1.1875,0.4375
445,0.8955078,-0.12408447,0.42010498,0.921875,0.390625,0.40625
446,0.8881836,-0.124816895,0.41888428,1.359375,0.5625,-0.1875
447,0.8977051,-0.1428833,0.402771,0.140625,3.09375,-0.59375
448,0.9169922,-0.13604736,0.43695068,-1.015625,3.921875,-0.46875
449,0.90966797,-0.15484619,0.40325928,-2.421875,3.25,0.234375
450,0.90063477,-0.13287354,0.3788452,-4.921875,3.875,1.125
451,0.9016113,-0.12042236,0.3895874,-2.9375,3.3125,2.015625
452,0.9050293,-0.13092041,0.39178467,-0.015625,1.953125,2.03125
453,0.9182129,-0.10845947,0.40716553,-0.09375,2.0,1.421875
454,0.90893555,-0.10308838,0.33392334,-1.6875,2.890625,1.203125
455,0.9111328,-0.1182251,0.3991089,1.84375,1.53125,1.0625
456,0.9177246,-0.11846924,0.36688232,0.125,0.390625,0.46875
457,0.9108887,-0.11212158,0.36297607,1.671875,1.234375,0.671875
458,0.9250488,-0.11138916,0.35760498,1.578125,0.921875,1.21875
459,0.9187012,-0.117004395,0.3649292,1.234375,0.53125,1.421875
460,0.9199219,-0.10723877,0.3624878,0.34375,2.515625,1.359375
461,0.9104004,-0.11114502,0.3378296,1.390625,0.96875,1.53125
462,0.9255371,-0.113342285,0.37786865,3.96875,1.109375,1.328125
463,0.9213867,-0.10455322,0.36590576,4.234375,0.59375,1.484375
464,0.9116211,-0.109680176,0.34466553,3.625,-0.4375,1.578125
465,0.9182129,-0.10040283,0.3624878,3.5625,-0.125,1.046875
466,0.9147949,-0.10089111,0.33831787,1.515625,0.84375,0.625
467,0.87597656,-0.07281494,0.32928467,0.53125,-4.515625,0.234375
468,0.8959961,-0.09259033,0.30560303,2.75,-11.96875,-1.515625
469,0.95043945,-0.120910645,0.38372803,2.921875,-11.328125,-2.875
470,0.9523926,-0.11090088,0.36102295,1.09375,-6.3125,-2.921875
471,0.9194336,-0.1338501,0.35565186,-0.453125,-5.984375,-2.421875
472,0.8947754,-0.12432861,0.3842163,-0.109375,-3.015625,-1.5625
473,0.9147949,-0.14141846,0.41888428,0.328125,-2.25,-1.015625
474,0.91064453,-0.14971924,0.4052124,-1.125,-1.21875,-0.953125
475,0.9038086,-0.14459229,0.39666748,-1.734375,-2.1875,-0.390625
476,0.90356445,-0.13897705,0.40130615,-1.34375,-2.828125,0.109375
477,0.90478516,-0.13409424,0.40863037,-0.859375,-2.421875,0.578125
478,0.8930664,-0.121154785,0.4105835,-1.1875,-2.328125,0.734375
479,0.8869629,-0.11529541,0.42156982,-0.71875,-1.703125,0.578125
480,0.8935547,-0.11651611,0.4179077,0.75,0.078125,0.03125
481,0.89404297,-0.11895752,0.42034912,0.9375,1.21875,-0.078125
482,0.8918457,-0.13189697,0.4159546,2.078125,0.640625,-0.421875
483,0.8996582,-0.13458252,0.40863037,1.328125,3.0625,-0.375
484,0.9182129,-0.14385986,0.44256592,1.546875,3.40625,-0.1875
485,0.90600586,-0.15216064,0.3908081,-2.171875,2.359375,0.5
486,0.8967285,-0.13311768,0.3756714,-5.21875,3.875,1.34375
487,0.9020996,-0.113586426,0.40252686,-2.6875,3.640625,1.6875
488,0.904541,-0.13922119,0.37225342,-0.921875,1.9375,1.90625
489,0.91748047,-0.11529541,0.37982178,-0.859375,3.078125,1.15625
490,0.91259766,-0.10699463,0.35638428,-1.359375,4.140625,1.203125
491,0.9206543,-0.12506104,0.38275146,0.71875,0.984375,0.96875
492,0.9194336,-0.11529541,0.35809326,-0.125,1.234375,0.484375
493,0.9199219,-0.1116333,0.35736084,1.34375,1.484375,0.90625
494,0.923584,-0.10748291,0.35394287,1.28125,1.171875,1.53125
495,0.9189453,-0.11627197,0.34613037,1.03125,1.390625,1.609375
496,0.9316406,-0.10699463,0.35906982,0.96875,2.59375,1.484375
497,0.92041016,-0.10284424,0.34173584,2.15625,2.34375,1.140625
498,0.9272461,-0.11602783,0.3607788,4.125,0.984375,1.09375
499,0.9250488,-0.112854004,0.34246826,3.453125,-1.15625,1.359375
500,0.9152832,-0.10308838,0.35247803,3.234375,-1.75,1.296875
501,0.9194336,-0.10235596,0.34735107,2.5625,-1.0625,0.78125
502,0.9038086,-0.089416504,0.3373413,0.953125,-0.828125,0.5
503,0.88964844,-0.08428955,0.3361206,1.265625,-6.046875,0.265625
504,0.9030762,-0.10308838,0.3156128,2.171875,-13.796875,-1.4375
505,0.9555664,-0.1404419,0.33758545,2.265625,-10.984375,-2.53125
506,0.9589844,-0.11798096,0.38006592,2.28125,-5.28125,-3.109375
507,0.91381836,-0.120666504,0.34197998,-0.71875,-4.078125,-2.078125
508,0.8979492,-0.13067627,0.40423584,0.625,-3.5,-1.59375
509,0.9086914,-0.14971924,0.4069214,-0.46875,-3.046875,-1.328125
510,0.9152832,-0.14215088,0.40496826,-1.171875,-1.921875,-0.921875
511,0.90600586,-0.13800049,0.3949585,-0.765625,-2.09375,-0.203125
512,0.89331055,-0.13995361,0.41033936,-1.078125,-2.515625,0.140625
513,0.8979492,-0.13165283,0.41326904,-0.984375,-3.1875,0.6875
514,0.89160156,-0.11578369,0.41131592,-1.09375,-1.09375,0.578125
515,0.8898926,-0.1182251,0.41619873,0.40625,-0.21875,0.4375
516,0.88916016,-0.13018799,0.39788818,0.3125,1.015625,0.109375
517,0.89746094,-0.12750244,0.41766357,1.515625,0.84375,-0.296875
518,0.8911133,-0.12921143,0.39886475,1.078125,0.359375,-0.453125
519,0.9055176,-0.13897705,0.40350342,0.65625,0.015625,-0.53125
520,0.90722656,-0.14898682,0.40985107,-0.4375,1.0625,-0.140625
521,0.9248047,-0.15875244,0.38885498,-3.5,4.0,0.140625
522,0.90234375,-0.1296997,0.40179443,-4.09375,2.46875,0.96875
523,0.89282227,-0.1326294,0.38104248,-2.59375,1.484375,1.859375
524,0.91918945,-0.12017822,0.39813232,-1.84375,2.75,1.53125
525,0.90527344,-0.113342285,0.35638428,-3.5,3.921875,1.34375
526,0.90844727,-0.11798096,0.39544678,0.03125,1.984375,0.953125
527,0.9140625,-0.12506104,0.3685913,-1.484375,0.84375,0.484375
528,0.91308594,-0.11138916,0.37176514,0.34375,0.796875,0.78125
529,0.9223633,-0.11505127,0.37298584,0.609375,1.109375,1.21875
530,0.90893555,-0.105773926,0.37347412,0.671875,1.953125,1.625
531,0.92333984,-0.11114502,0.37738037,1.421875,2.625,1.640625
532,0.9147949,-0.10455322,0.35150146,2.359375,1.671875,1.375
533,0.9267578,-0.10723877,0.36419678,3.828125,1.03125,1.296875
534,0.9177246,-0.1182251,0.35565186,4.0,-0.53125,1.125
535,0.9194336,-0.10626221,0.35394287,3.3125,-1.25,1.625
536,0.92456055,-0.11383057,0.354187,2.234375,-0.5,1.3125
537,0.9135742,-0.09527588,0.3522339,0.9375,0.875,0.765625
538,0.9033203,-0.09991455,0.34539795,1.21875,-2.25,0.6875
539,0.8781738,-0.08746338,0.32757568,0.96875,-8.390625,0.0625
540,0.91381836,-0.11065674,0.32562256,4.265625,-11.796875,-1.96875
541,0.9641113,-0.12921143,0.38690186,5.328125,-7.109375,-2.578125
542,0.92578125,-0.11895752,0.34661865,-0.015625,-3.765625,-2.046875
543,0.904541,-0.12799072,0.3949585,0.609375,-3.828125,-1.4375
544,0.90722656,-0.13946533,0.39105225,-0.375,-4.34375,-1.296875
545,0.91137695,-0.13897705,0.39788818,-1.625,-2.5625,-0.71875
546,0.9069824,-0.13482666,0.3937378,-3.28125,-2.828125,-0.078125
547,0.90405273,-0.13775635,0.4100952,-2.65625,-2.03125,-0.109375
548,0.89501953,-0.13726807,0.40594482,-2.890625,-3.921875,0.5
549,0.89208984,-0.1182251,0.4232788,-1.8125,-2.0625,0.609375
550,0.89453125,-0.11602783,0.43206787,-0.328125,-0.921875,0.78125
551,0.89282227,-0.11407471,0.4196167,-0.171875,-0.1875,0.453125
552,0.8894043,-0.11895752,0.4315796,1.265625,1.3125,0.015625
553,0.8959961,-0.12042236,0.4159546,2.59375,1.921875,-0.4375
554,0.90356445,-0.12652588,0.42694092,2.953125,1.78125,-0.53125
555,0.90478516,-0.14312744,0.40252686,1.140625,2.0625,-0.234375
556,0.9211426,-0.13946533,0.39569092,-1.03125,2.34375,-0.125
557,0.9050293,-0.12799072,0.41448975,-1.875,2.203125,0.328125
558,0.9086914,-0.13848877,0.38275146,-3.546875,1.734375,0.53125
559,0.9147949,-0.13946533,0.36444092,-3.625,3.71875,1.234375
560,0.90283203,-0.11480713,0.3920288,-2.421875,5.703125,1.34375
561,0.9111328,-0.124572754,0.40423584,-0.6875,2.25,1.375
562,0.91064453,-0.12017822,0.37713623,-1.15625,1.0625,0.875
563,0.9199219,-0.113098145,0.36151123,0.953125,1.03125,0.78125
564,0.9199219,-0.11016846,0.36224365,0.6875,0.265625,1.28125
565,0.9211426,-0.11456299,0.3637085,0.140625,1.484375,1.890625
566,0.91137695,-0.10821533,0.37005615,1.515625,1.78125,1.78125
567,0.9189453,-0.09967041,0.3690796,2.84375,2.5625,1.265625
568,0.9187012,-0.113342285,0.35906982,3.96875,0.5,1.21875
569,0.91381836,-0.1116333,0.34002686,3.328125,-0.453125,1.265625
570,0.92333984,-0.11236572,0.35150146,4.125,-0.9375,1.15625
571,0.9169922,-0.10821533,0.34222412,1.265625,-0.71875,0.75
572,0.91064453,-0.09918213,0.35858154,1.6875,1.0625,0.9375
573,0.9121094,-0.093811035,0.35614014,2.109375,-0.6875,0.90625
574,0.90405273,-0.08746338,0.37860107,2.96875,-3.140625,0.015625
575,0.87719727,-0.0803833,0.34344482,2.40625,-8.046875,-0.5
576,0.9194336,-0.12042236,0.31414795,4.421875,-12.109375,-1.984375
577,0.9411621,-0.13018799,0.3554077,3.546875,-6.40625,-2.328125
578,0.939209,-0.12994385,0.3908081,1.53125,-5.328125,-2.078125
579,0.90527344,-0.13140869,0.3920288,0.421875,-4.1875,-1.828125
580,0.90527344,-0.13824463,0.4003296,-0.765625,-1.96875,-0.96875
581,0.9091797,-0.14752197,0.38885498,-1.828125,-1.578125,-0.125
582,0.90185547,-0.13824463,0.402771,-1.65625,-1.828125,-0.046875
583,0.8964844,-0.1338501,0.38934326,-1.890625,-1.984375,0.421875
584,0.89575195,-0.13165283,0.4069214,-1.40625,-2.96875,0.40625
585,0.89501953,-0.1182251,0.41986084,-0.21875,-2.265625,0.46875
586,0.89819336,-0.11456299,0.41693115,-0.0625,-0.953125,0.59375
587,0.88549805,-0.11383057,0.4081421,0.09375,-0.546875,0.65625
588,0.8911133,-0.12359619,0.4159546,0.671875,0.953125,0.140625
589,0.9030762,-0.120666504,0.4237671,1.359375,1.3125,-0.203125
590,0.89990234,-0.13726807,0.39105225,0.8125,3.640625,-0.765625
591,0.91625977,-0.14361572,0.42010498,-0.21875,3.765625,-0.453125
592,0.9121094,-0.15924072,0.41033936,-2.28125,2.296875,0.234375
593,0.91137695,-0.11993408,0.4022827,-3.640625,3.109375,0.5625
594,0.90185547,-0.10601807,0.36810303,-4.859375,3.9375,1.28125
595,0.9067383,-0.12506104,0.40496826,-1.1875,4.46875,1.546875
596,0.9108887,-0.12799072,0.37493896,-2.078125,2.4375,0.8125
597,0.9116211,-0.109191895,0.3624878,-0.09375,2.234375,0.484375
598,0.9328613,-0.116760254,0.3661499,0.453125,0.25,0.875
599,0.9145508,-0.11383057,0.3673706,1.203125,0.203125,1.390625
600,0.91748047,-0.10870361,0.3661499,1.109375,2.28125,1.390625
601,0.9157715,-0.09869385,0.354187,2.328125,2.234375,1.453125
602,0.9226074,-0.117492676,0.3583374,4.03125,1.234375,1.375
603,0.9187012,-0.10650635,0.35101318,3.28125,-0.1875,1.328125
604,0.9226074,-0.11773682,0.3456421,2.875,-0.421875,1.359375
605,0.92529297,-0.11846924,0.3414917,1.296875,-0.171875,0.984375
606,0.9230957,-0.10284424,0.35028076,0.875,1.109375,0.96875
607,0.9128418,-0.10333252,0.34881592,1.046875,-0.03125,1.09375
608,0.91381836,-0.08673096,0.39398193,3.375,-0.875,0.265625
609,0.91064453,-0.09649658,0.32733154,1.234375,-3.65625,0.390625
610,0.8935547,-0.093811035,0.3078003,0.25,-6.0,0.15625
611,0.8786621,-0.09234619,0.3373413,4.171875,-10.265625,-0.953125
612,0.9538574,-0.13458252,0.38616943,4.125,-9.859375,-2.421875
613,0.95947266,-0.11871338,0.35931396,1.140625,-6.421875,-2.96875
614,0.9135742,-0.11627197,0.36566162,1.03125,-3.921875,-2.46875
615,0.9025879,-0.13922119,0.38641357,0.546875,-3.34375,-1.453125
616,0.9067383,-0.14605713,0.41326904,-0.578125,-1.953125,-0.828125
617,0.9030762,-0.14215088,0.3768921,-2.078125,-2.53125,-0.1875
618,0.89819336,-0.14093018,0.41082764,-1.265625,-2.0,0.171875
619,0.8937988,-0.13433838,0.41253662,-0.390625,-3.203125,0.15625
620,0.8964844,-0.12506104,0.42303467,-0.390625,-2.359375,0.375
621,0.89404297,-0.117492676,0.41644287,0.484375,-1.796875,0.359375
622,0.89086914,-0.12677002,0.40545654,0.765625,-0.015625,0.140625
623,0.8918457,-0.11529541,0.41156006,0.734375,1.3125,-0.078125
624,0.89746094,-0.13116455,0.40570068,0.4375,2.546875,-0.34375
625,0.89331055,-0.12750244,0.4257202,0.984375,1.203125,-0.625
626,0.92285156,-0.14312744,0.42010498,-1.0,2.40625,-0.328125
627,0.92407227,-0.15362549,0.36956787,-3.859375,2.9375,0.125
628,0.89941406,-0.12530518,0.39886475,-5.09375,4.328125,1.0625
629,0.9094238,-0.12554932,0.41375732,-2.953125,3.75,1.3125
630,0.907959,-0.120666504,0.38397217,-3.03125,4.125,1.0625
631,0.9108887,-0.117492676,0.3678589,-1.125,3.28125,1.171875
632,0.91503906,-0.11212158,0.3673706,-0.015625,1.671875,1.40625
633,0.9152832,-0.11968994,0.3710327,-0.21875,1.21875,1.359375
634,0.91674805,-0.11578369,0.35882568,0.671875,0.6875,1.265625
635,0.9206543,-0.10772705,0.37005615,2.890625,2.578125,1.203125
636,0.91967773,-0.10845947,0.36590576,3.671875,1.453125,1.546875
637,0.9194336,-0.113098145,0.3517456,3.65625,1.734375,1.484375
638,0.92626953,-0.109436035,0.35614014,2.859375,0.765625,1.609375
639,0.9250488,-0.10723877,0.33099365,0.84375,1.03125,1.453125
640,0.9267578,-0.10357666,0.34857178,2.109375,2.59375,1.390625
641,0.91967773,-0.105529785,0.34466553,3.15625,-0.234375,1.125
642,0.9250488,-0.105285645,0.31707764,2.296875,-2.0,0.625
643,0.9284668,-0.09967041,0.3690796,1.40625,0.71875,0.03125
644,0.9003906,-0.09893799,0.32440186,1.9375,0.59375,0.328125
645,0.9199219,-0.10748291,0.34832764,1.171875,-2.078125,0.125
646,0.88134766,-0.09844971,0.31292725,-0.34375,-9.71875,0.359375
647,0.9272461,-0.10284424,0.35321045,2.765625,-11.96875,-1.015625
648,0.96118164,-0.13189697,0.3522339,2.953125,-10.078125,-1.734375
649,0.9350586,-0.113098145,0.36297607,0.75,-5.578125,-2.125
650,0.9030762,-0.12188721,0.36444092,-0.734375,-5.09375,-1.53125
651,0.9038086,-0.12335205,0.38494873,-1.125,-3.28125,-1.0
652,0.90844727,-0.12750244,0.41326904,-1.078125,-2.578125,-0.140625
653,0.9074707,-0.13311768,0.39935303,-2.0,-2.53125,0.46875
654,0.9025879,-0.12164307,0.41082764,-1.46875,-3.265625,0.484375
655,0.89331055,-0.12286377,0.4130249,-0.390625,-2.671875,0.203125
656,0.90478516,-0.116760254,0.41766357,-1.21875,-1.109375,0.15625
657,0.89038086,-0.121398926,0.4118042,-1.140625,0.0,0.296875
658,0.90625,-0.12432861,0.43621826,0.578125,0.53125,0.046875
659,0.8972168,-0.1104126,0.42840576,1.09375,1.828125,-0.109375
660,0.90527344,-0.12017822,0.37542725,0.34375,3.109375,-0.28125
661,0.90478516,-0.12335205,0.39886475,0.40625,2.125,-0.484375
662,0.9172363,-0.14068604,0.4179077,0.8125,1.328125,-0.734375
663,0.9272461,-0.1506958,0.40570068,-1.46875,3.421875,-0.9375
664,0.91015625,-0.12237549,0.38104248,-4.296875,2.015625,-0.0625
665,0.91625977,-0.12384033,0.3895874,-2.984375,4.578125,0.796875
666,0.90844727,-0.12799072,0.38153076,-1.5,5.046875,1.3125
667,0.907959,-0.1194458,0.36224365,-1.078125,3.578125,1.609375
668,0.9123535,-0.112854004,0.3788452,2.328125,2.859375,1.4375
669,0.92529297,-0.12384033,0.36932373,2.140625,-0.1875,1.15625
670,0.9182129,-0.10992432,0.3595581,2.78125,-0.34375,1.296875
671,0.92407227,-0.11260986,0.355896,2.21875,-0.46875,1.046875
672,0.9135742,-0.10211182,0.3324585,-0.140625,1.09375,1.296875
673,0.9182129,-0.1104126,0.34173584,1.1875,1.46875,1.234375
674,0.9182129,-0.10601807,0.3751831,3.0625,0.921875,0.96875
675,0.92944336,-0.11407471,0.34539795,1.109375,-0.984375,0.796875
676,0.9328613,-0.1116333,0.30877686,-0.734375,0.859375,0.859375
677,0.91503906,-0.1182251,0.36517334,1.375,0.109375,0.578125
678,0.9367676,-0.105773926,0.34466553,-1.53125,-0.125,0.78125
679,0.9277344,-0.09820557,0.3678589,1.015625,1.234375,0.65625
680,0.8977051,-0.08746338,0.3468628,0.609375,-3.296875,1.15625
681,0.8703613,-0.07745361,0.3295288,1.28125,-8.375,0.875
682,0.9069824,-0.105041504,0.34954834,4.703125,-10.453125,-1.234375
683,0.9482422,-0.13214111,0.338562,3.859375,-8.65625,-2.4375
684,0.94799805,-0.10772705,0.37542725,2.984375,-5.5,-2.1875
685,0.9152832,-0.124572754,0.38104248,2.625,-4.53125,-1.96875
686,0.89697266,-0.13165283,0.40838623,0.90625,-4.0625,-0.890625
687,0.90600586,-0.13311768,0.402771,0.421875,-3.109375,-0.328125
688,0.90600586,-0.14093018,0.37445068,-1.40625,-0.53125,0.09375
689,0.8952637,-0.1338501,0.39691162,-1.265625,-0.578125,0.609375
690,0.8984375,-0.12945557,0.45013428,0.46875,-1.265625,0.203125
691,0.8911133,-0.12042236,0.4232788,-0.4375,-1.828125,0.15625
692,0.9147949,-0.12652588,0.38031006,-1.6875,0.21875,0.546875
693,0.89453125,-0.117492676,0.39520264,-0.78125,2.203125,0.3125
694,0.88964844,-0.12506104,0.4225464,1.125,1.578125,-0.21875
695,0.90478516,-0.12994385,0.40472412,0.78125,1.453125,-0.78125
696,0.9111328,-0.13360596,0.38153076,0.390625,0.828125,-0.625
697,0.91674805,-0.13458252,0.4003296,0.078125,2.078125,-0.453125
698,0.9104004,-0.14630127,0.38934326,-2.515625,3.140625,0.046875
699,0.9091797,-0.13482666,0.3703003,-4.5,2.203125,0.78125
700,0.9013672,-0.11383057,0.38128662,-3.15625,3.984375,1.234375
701,0.90771484,-0.117248535,0.39007568,-0.71875,3.75,1.8125
702,0.90600586,-0.11383057,0.36444092,-0.328125,1.875,1.765625
703,0.9050293,-0.12237549,0.3685913,1.921875,-0.03125,1.515625
704,0.92211914,-0.12359619,0.35028076,-0.65625,-0.34375,1.03125
705,0.92529297,-0.10870361,0.36712646,0.359375,1.109375,0.90625
706,0.91430664,-0.09844971,0.37957764,1.96875,1.234375,1.15625
707,0.91845703,-0.11505127,0.34100342,0.75,-0.5,1.140625
708,0.935791,-0.11480713,0.32659912,-0.703125,2.5,0.90625
709,0.90771484,-0.1026001,0.37127686,3.46875,3.140625,0.78125
710,0.9333496,-0.11920166,0.35394287,1.78125,0.90625,0.03125
711,0.9296875,-0.11553955,0.3366089,2.53125,1.5625,-0.140625
712,0.92871094,-0.11651611,0.33807373,2.9375,-0.203125,0.359375
713,0.9284668,-0.11383057,0.34344482,1.9375,0.234375,0.796875
714,0.92749023,-0.10211182,0.3685913,2.25,2.609375,0.765625
715,0.89501953,-0.09136963,0.3241577,2.203125,-1.8125,0.734375
716,0.8935547,-0.082092285,0.32489014,2.46875,-6.953125,0.421875
717,0.9086914,-0.11187744,0.3180542,4.09375,-12.34375,-1.015625
718,0.95288086,-0.13677979,0.35028076,3.15625,-10.765625,-1.90625
719,0.94555664,-0.11773682,0.35369873,1.53125,-8.1875,-2.234375
720,0.9248047,-0.12213135,0.36566162,0.15625,-5.03125,-1.90625
721,0.90478516,-0.13360596,0.3842163,-0.546875,-4.0625,-1.375
722,0.90527344,-0.14068604,0.4286499,-1.03125,-3.40625,-0.453125
723,0.9016113,-0.1362915,0.40667725,-1.4375,-1.765625,-0.125
724,0.90625,-0.13311768,0.39788818,-2.640625,-2.171875,0.265625
725,0.8952637,-0.13189697,0.39788818,-1.453125,-1.296875,0.515625
726,0.8894043,-0.121398926,0.4303589,0.703125,-1.5,0.234375
727,0.89746094,-0.124816895,0.41815186,0.359375,-0.359375,-0.140625
728,0.9057617,-0.12286377,0.40057373,0.5,0.203125,-0.0625
729,0.8959961,-0.12896729,0.39959717,0.15625,0.875,0.171875
730,0.8996582,-0.1338501,0.40374756,0.84375,1.734375,0.046875
731,0.9025879,-0.13482666,0.3859253,0.015625,2.265625,-0.09375
732,0.9074707,-0.1404419,0.40667725,-0.75,2.5625,-0.046875
733,0.9108887,-0.13726807,0.4159546,-0.5,3.234375,-0.34375
734,0.9128418,-0.13946533,0.3866577,-2.890625,2.0,0.421875
735,0.9108887,-0.12554932,0.3895874,-1.84375,1.65625,1.125
736,0.9121094,-0.13531494,0.37249756,-2.84375,2.375,1.359375
737,0.91015625,-0.11871338,0.3661499,-1.703125,3.6875,1.671875
738,0.90844727,-0.11383057,0.38616943,-0.109375,2.03125,1.5
739,0.9133301,-0.12408447,0.34832764,-0.53125,0.140625,1.46875
740,0.9301758,-0.12213135,0.31878662,-1.546875,1.234375,0.890625
741,0.904541,-0.10748291,0.37078857,1.4375,3.015625,0.953125
742,0.9326172,-0.11798096,0.36834717,0.4375,0.859375,0.859375
743,0.921875,-0.10723877,0.35369873,0.78125,2.078125,0.28125
744,0.921875,-0.11065674,0.35638428,1.75,1.671875,0.953125
745,0.92749023,-0.113098145,0.355896,1.875,0.59375,1.203125
746,0.91967773,-0.11236572,0.34661865,1.734375,0.75,1.515625
747,0.9194336,-0.09307861,0.32904053,1.71875,0.234375,1.34375
748,0.9260254,-0.10479736,0.37054443,5.5,0.265625,0.953125
749,0.91552734,-0.105773926,0.3554077,5.109375,-0.984375,0.515625
750,0.9016113,-0.09625244,0.34246826,1.671875,-5.015625,0.765625
751,0.8815918,-0.093322754,0.3065796,1.953125,-11.046875,0.3125
752,0.92529297,-0.12286377,0.35614014,4.078125,-10.3125,-1.1875
753,0.9633789,-0.12774658,0.36102295,1.1875,-7.25,-1.765625
754,0.92749023,-0.10430908,0.37908936,0.21875,-5.453125,-1.90625
755,0.9121094,-0.10870361,0.38787842,-0.546875,-4.015625,-2.0
756,0.9067383,-0.14483643,0.3793335,-0.890625,-2.890625,-1.21875
757,0.9001465,-0.13238525,0.37054443,-1.375,-0.34375,-0.46875
758,0.9025879,-0.13580322,0.40496826,-0.296875,-1.453125,-0.265625
759,0.90356445,-0.13604736,0.40667725,-0.203125,-2.109375,-0.59375
