sample_no,accel_x,accel_y,accel_z,gyro_x,gyro_y,gyro_z
0,0.9057617,-0.16143799,0.46063232,2.34375,-6.59375,-0.078125
1,0.88964844,-0.14263916,0.48675537,9.34375,-2.703125,1.46875
2,0.87646484,-0.17779541,0.47894287,7.109375,2.609375,2.296875
3,0.9016113,-0.12677002,0.5819702,1.03125,25.5,-0.59375
4,0.8952637,-0.1482544,0.45281982,-18.40625,13.28125,2.203125
5,0.8305664,-0.1116333,0.41644287,-0.65625,3.5,-3.171875
6,0.86206055,-0.11236572,0.41156006,11.53125,4.09375,-5.859375
7,0.87060547,-0.11260986,0.3788452,15.53125,9.859375,-0.203125
8,0.8395996,-0.1494751,0.38812256,9.515625,6.484375,-2.140625
9,0.90966797,-0.17852783,0.39691162,8.34375,10.625,-2.359375
10,0.92041016,-0.14117432,0.35760498,2.28125,3.8125,-2.3125
11,0.88500977,-0.1663208,0.35272217,5.90625,2.671875,-0.625
12,0.8737793,-0.1585083,0.33880615,2.90625,-0.984375,0.078125
13,0.86376953,-0.15802002,0.30047607,3.875,-8.71875,-0.96875
14,0.8779297,-0.23199463,0.32806396,6.140625,-6.578125,-2.875
15,0.9160156,-0.2107544,0.38616943,1.421875,3.234375,-0.765625
16,0.91015625,-0.18536377,0.36956787,-3.390625,1.265625,3.984375
17,0.91796875,-0.18389893,0.3612671,-3.640625,-1.6875,-0.203125
18,0.91845703,-0.17242432,0.38031006,1.96875,-1.015625,-0.125
19,0.8959961,-0.17584229,0.38128662,1.78125,-3.890625,1.171875
20,0.8654785,-0.17315674,0.3829956,-3.265625,-9.546875,0.265625
21,0.86621094,-0.17388916,0.36712646,-5.71875,-10.671875,-0.703125
22,0.876709,-0.15826416,0.4076538,-0.8125,-3.28125,0.25
23,0.8811035,-0.18048096,0.38519287,-0.84375,-3.5625,2.578125
24,0.8869629,-0.16314697,0.43182373,0.671875,-3.90625,0.703125
25,0.9069824,-0.17315674,0.43084717,1.59375,0.28125,1.90625
26,0.8791504,-0.17266846,0.45257568,-1.125,2.265625,0.28125
27,0.8991699,-0.17828369,0.49261475,-4.15625,12.515625,-2.140625
28,0.93847656,-0.17974854,0.42791748,-13.734375,10.546875,0.125
29,0.87646484,-0.12384033,0.39886475,-1.6875,3.171875,-0.421875
30,0.88427734,-0.12310791,0.3986206,8.71875,3.34375,-1.53125
31,0.8588867,-0.13824463,0.37591553,4.21875,-0.359375,0.9375
32,0.82592773,-0.15118408,0.36712646,6.921875,2.734375,1.625
33,0.8366699,-0.15875244,0.3192749,-2.984375,-10.0,-0.671875
34,0.8535156,-0.13873291,0.3480835,0.140625,-12.078125,-2.578125
35,0.8886719,-0.2144165,0.40570068,-2.015625,-5.46875,-2.625
36,0.94091797,-0.21490479,0.41986084,-3.734375,7.578125,0.40625
37,0.9499512,-0.17559814,0.4225464,-7.390625,4.203125,0.515625
38,0.9733887,-0.15704346,0.4718628,-11.78125,6.8125,0.375
39,0.9304199,-0.17755127,0.4257202,-5.234375,0.859375,2.5625
40,0.86816406,-0.12432861,0.41693115,8.546875,2.65625,1.734375
41,0.87060547,-0.12554932,0.39959717,6.46875,2.140625,-0.984375
42,0.83813477,-0.14385986,0.385437,3.671875,3.421875,0.375
43,0.85180664,-0.159729,0.37005615,-0.71875,1.953125,0.453125
44,0.85913086,-0.13018799,0.3768921,1.96875,4.015625,-0.25
45,0.88183594,-0.12774658,0.38031006,2.765625,1.921875,-1.09375
46,0.87597656,-0.12310791,0.39227295,4.03125,0.765625,-0.265625
47,0.89038086,-0.14215088,0.36712646,5.609375,0.90625,-1.671875
48,0.8955078,-0.21221924,0.29632568,0.921875,-9.5625,-2.78125
49,0.91259766,-0.1975708,0.39691162,4.953125,1.359375,-1.890625
50,0.9489746,-0.18707275,0.38934326,-0.96875,3.53125,4.703125
51,0.9104004,-0.15753174,0.37908936,3.90625,5.984375,4.171875
52,0.9074707,-0.16534424,0.38739014,6.109375,0.234375,0.65625
53,0.89746094,-0.15240479,0.3661499,2.4375,-1.640625,-0.3125
54,0.88012695,-0.16485596,0.35736084,1.5625,-1.390625,0.203125
55,0.8696289,-0.14361572,0.36273193,-1.046875,-1.546875,0.953125
56,0.88256836,-0.16705322,0.35858154,-2.4375,-0.578125,-0.09375
57,0.88671875,-0.15924072,0.3793335,-2.328125,-2.53125,-0.375
58,0.88305664,-0.15118408,0.38226318,-3.109375,-5.296875,-0.15625
59,0.90063477,-0.16363525,0.39959717,-2.53125,-4.046875,-2.3125
60,0.892334,-0.16558838,0.39764404,-5.8125,-8.359375,-0.515625
61,0.9074707,-0.15582275,0.4298706,-1.03125,-2.015625,-0.203125
62,0.8925781,-0.1651001,0.40545654,-5.40625,-3.78125,0.78125
63,0.8713379,-0.15142822,0.40179443,-5.671875,-9.359375,0.578125
64,0.8623047,-0.12701416,0.45892334,-0.1875,-4.703125,-2.859375
65,0.89941406,-0.15997314,0.42694092,2.296875,4.796875,-0.296875
66,0.9069824,-0.18658447,0.46429443,3.90625,14.40625,0.5625
67,0.9616699,-0.18536377,0.44525146,-10.9375,18.078125,-0.828125
68,0.90234375,-0.12823486,0.3793335,-8.984375,7.765625,2.046875
69,0.8952637,-0.13873291,0.38128662,7.234375,1.65625,-3.0
70,0.8967285,-0.13140869,0.39178467,8.875,4.859375,-3.859375
71,0.85717773,-0.14776611,0.3739624,8.75,2.09375,2.1875
72,0.8273926,-0.12701416,0.35760498,4.890625,1.578125,2.3125
73,0.8647461,-0.14093018,0.2999878,14.484375,9.65625,0.625
74,0.86987305,-0.13702393,0.31829834,-2.828125,-14.359375,-1.296875
75,0.8378906,-0.12530518,0.34124756,0.03125,-9.328125,-1.390625
76,0.8942871,-0.23077393,0.38153076,-5.390625,-9.78125,-0.921875
77,0.9499512,-0.18560791,0.4142456,-6.90625,-1.734375,-1.96875
78,0.96484375,-0.1585083,0.40130615,-6.59375,2.765625,-2.078125
79,0.97021484,-0.16851807,0.42767334,-1.203125,6.40625,2.078125
80,0.9567871,-0.1795044,0.43060303,-10.609375,7.75,1.234375
81,0.9465332,-0.16851807,0.41937256,-13.953125,6.765625,1.6875
82,0.84350586,-0.11114502,0.38397217,-4.953125,-0.21875,0.96875
83,0.8679199,-0.11480713,0.38568115,9.1875,2.828125,-2.875
84,0.85839844,-0.12554932,0.3534546,3.625,-1.78125,-1.734375
85,0.8408203,-0.12017822,0.37469482,1.6875,-1.125,-1.171875
86,0.86572266,-0.14263916,0.3600464,1.765625,1.421875,0.3125
87,0.8684082,-0.09112549,0.36541748,6.28125,0.671875,-0.625
88,0.8967285,-0.13580322,0.33709717,10.28125,-1.375,-2.546875
89,0.8847656,-0.21173096,0.31121826,6.859375,-5.875,-2.75
90,0.91552734,-0.20513916,0.40496826,4.234375,-0.953125,1.8125
91,0.89575195,-0.19390869,0.37225342,-12.171875,-0.796875,5.28125
92,0.89331055,-0.13824463,0.37371826,-7.109375,2.4375,2.015625
93,0.9116211,-0.13409424,0.39691162,0.0,0.3125,-0.203125
94,0.90771484,-0.15655518,0.3600464,-6.9375,-10.71875,-1.3125
95,0.8955078,-0.14361572,0.3944702,-4.8125,-10.5,-3.09375
96,0.8930664,-0.1326294,0.4232788,-4.078125,-6.34375,-1.3125
97,0.8654785,-0.14630127,0.42279053,-0.703125,-3.5625,-2.453125
98,0.9069824,-0.2078247,0.4298706,-2.265625,-2.03125,-4.75
99,0.9465332,-0.13433838,0.48553467,-7.75,16.265625,-1.546875
100,0.9404297,-0.13800049,0.4220581,-12.953125,16.8125,3.296875
101,0.8569336,-0.11895752,0.4039917,3.875,4.078125,0.90625
102,0.9001465,-0.12677002,0.39544678,10.828125,4.78125,-4.0625
103,0.8762207,-0.14605713,0.3776245,5.78125,3.125,-1.390625
104,0.85961914,-0.16705322,0.35125732,1.875,2.375,-1.3125
105,0.8901367,-0.13531494,0.3444214,1.15625,4.25,-0.984375
106,0.89282227,-0.1416626,0.33758545,4.171875,1.09375,0.203125
107,0.88916016,-0.128479,0.3463745,7.359375,-0.53125,-0.375
108,0.8845215,-0.16265869,0.30389404,6.609375,-8.640625,-0.9375
109,0.8774414,-0.20343018,0.36810303,4.390625,-10.609375,-1.609375
110,0.9172363,-0.2041626,0.41448975,-8.203125,2.28125,-0.53125
111,0.90405273,-0.15924072,0.3859253,-7.921875,5.359375,3.359375
112,0.90844727,-0.15362549,0.38372803,-6.09375,-2.0625,0.78125
113,0.92749023,-0.14263916,0.3764038,-2.109375,-5.953125,0.015625
114,0.88549805,-0.16339111,0.38226318,-0.453125,-8.25,0.671875
115,0.87841797,-0.14703369,0.3925171,-0.265625,-6.515625,0.4375
116,0.876709,-0.1338501,0.39227295,-1.671875,-6.765625,0.96875
117,0.8779297,-0.13848877,0.4303589,0.109375,-5.890625,0.296875
118,0.8808594,-0.14678955,0.44866943,1.1875,-1.375,0.078125
119,0.8833008,-0.1585083,0.4389038,-1.3125,-1.125,-0.140625
120,0.8952637,-0.17559814,0.46307373,-5.734375,2.625,-2.578125
121,0.9560547,-0.15582275,0.48114014,-12.8125,17.46875,-2.546875
122,0.8989258,-0.10772705,0.4130249,-13.5,10.453125,2.34375
123,0.87158203,-0.117492676,0.3925171,7.34375,2.828125,-0.21875
124,0.89038086,-0.10430908,0.3925171,9.96875,0.578125,-1.96875
125,0.875,-0.12945557,0.38372803,7.140625,4.4375,0.234375
126,0.86938477,-0.15216064,0.37225342,0.8125,5.328125,0.03125
127,0.87158203,-0.13287354,0.37469482,-1.484375,4.03125,-0.328125
128,0.90283203,-0.13409424,0.36029053,-1.75,0.96875,-2.171875
129,0.8967285,-0.13970947,0.38006592,2.078125,0.265625,-0.953125
130,0.89624023,-0.12530518,0.3739624,4.09375,1.390625,0.703125
131,0.8823242,-0.12872314,0.36102295,6.71875,-2.40625,-0.6875
132,0.8937988,-0.15631104,0.36517334,9.78125,-6.234375,-1.90625
133,0.8925781,-0.22515869,0.3607788,-1.734375,-8.1875,-2.21875
134,0.92211914,-0.14996338,0.4015503,-6.28125,6.46875,1.828125
135,0.8911133,-0.1296997,0.36541748,-3.140625,2.734375,3.53125
136,0.9033203,-0.12921143,0.3859253,3.046875,-1.171875,-0.703125
137,0.90112305,-0.15045166,0.38006592,5.375,-1.6875,0.15625
138,0.888916,-0.1585083,0.38861084,4.09375,-1.46875,0.453125
139,0.8881836,-0.15045166,0.3829956,0.15625,-0.9375,0.203125
140,0.88720703,-0.12921143,0.3973999,-2.90625,-1.40625,0.53125
141,0.8979492,-0.16412354,0.39105225,-0.640625,-1.78125,0.0625
142,0.9013672,-0.15509033,0.3937378,-2.109375,-4.0625,0.359375
143,0.8757324,-0.14190674,0.38372803,-2.3125,-5.046875,0.75
144,0.88964844,-0.1506958,0.40740967,-1.46875,-6.125,-1.34375
145,0.8918457,-0.15411377,0.43670654,-0.078125,-1.109375,-0.953125
146,0.9057617,-0.14727783,0.43206787,-0.984375,1.46875,1.703125
147,0.8913574,-0.14068604,0.41448975,-2.375,-0.03125,0.6875
148,0.90722656,-0.16900635,0.43597412,-5.28125,1.015625,-1.96875
149,0.9404297,-0.1729126,0.45770264,-15.46875,9.96875,-2.5
150,0.89404297,-0.0869751,0.40423584,-17.484375,6.65625,2.5
151,0.83813477,-0.07965088,0.39569092,7.1875,1.28125,0.265625
152,0.8967285,-0.10235596,0.4154663,12.1875,-3.328125,-3.671875
153,0.87475586,-0.10211182,0.3949585,14.796875,-0.796875,-1.296875
154,0.84887695,-0.14678955,0.33294678,11.671875,-3.375,-0.890625
155,0.8574219,-0.14996338,0.34881592,7.484375,-8.078125,-0.78125
156,0.87402344,-0.16192627,0.40570068,5.21875,-6.578125,-0.640625
157,0.87475586,-0.21173096,0.4179077,-6.25,-5.953125,-0.296875
158,0.8967285,-0.15875244,0.42889404,-11.71875,-0.25,2.078125
159,0.9111328,-0.13848877,0.41766357,-7.78125,-1.15625,2.671875
160,0.9177246,-0.14093018,0.42279053,-4.6875,-5.84375,0.625
161,0.9067383,-0.15777588,0.5348511,-9.3125,3.453125,-1.984375
162,0.96435547,-0.15264893,0.5109253,-22.96875,15.765625,-1.390625
163,0.85131836,-0.09576416,0.40130615,-11.84375,3.40625,2.234375
164,0.84521484,-0.07183838,0.42132568,13.171875,0.859375,-4.5
165,0.85668945,-0.077941895,0.4220581,7.671875,0.953125,-2.71875
166,0.82836914,-0.113098145,0.40496826,6.953125,0.984375,1.59375
167,0.8469238,-0.11578369,0.40130615,5.90625,4.5625,0.75
168,0.8640137,-0.11383057,0.36541748,8.125,-0.296875,-0.265625
169,0.8925781,-0.14776611,0.36663818,11.828125,-6.15625,-2.609375
170,0.8823242,-0.1921997,0.3866577,5.5625,-10.90625,-1.046875
171,0.91015625,-0.18170166,0.4508667,-2.015625,-1.890625,-0.828125
172,0.9321289,-0.15826416,0.42303467,-5.59375,4.078125,2.625
173,0.888916,-0.13165283,0.4262085,-0.25,0.734375,2.6875
174,0.8911133,-0.15240479,0.42523193,-1.0625,-5.0625,0.796875
175,0.8828125,-0.1182251,0.42645264,0.0,-4.890625,1.75
176,0.8869629,-0.1362915,0.43743896,1.546875,-4.75,1.40625
177,0.87475586,-0.13897705,0.43304443,-4.90625,-6.546875,-0.453125
178,0.8886719,-0.16534424,0.5062866,-16.484375,5.234375,-4.546875
179,0.9707031,-0.11260986,0.4743042,-21.875,16.375,0.546875
180,0.814209,-0.081604004,0.43304443,0.625,4.78125,1.8125
181,0.8703613,-0.09454346,0.4454956,9.046875,-0.78125,-5.84375
182,0.8601074,-0.086242676,0.42352295,5.0,-0.859375,-1.984375
183,0.85009766,-0.14874268,0.42962646,4.265625,2.984375,-0.5
184,0.8691406,-0.12188721,0.4262085,0.15625,3.890625,0.265625
185,0.8532715,-0.065979004,0.4147339,8.078125,5.265625,0.375
186,0.86816406,-0.12335205,0.3739624,13.4375,2.421875,-1.703125
187,0.8820801,-0.16851807,0.35076904,9.9375,-8.0625,-2.3125
188,0.8679199,-0.1987915,0.38226318,4.734375,-11.78125,0.265625
189,0.89575195,-0.20220947,0.43060303,-9.765625,-3.296875,2.53125
190,0.89697266,-0.12506104,0.42523193,-9.125,3.90625,1.921875
191,0.921875,-0.1572876,0.4142456,-5.375,-4.65625,-0.84375
192,0.9123535,-0.11798096,0.45184326,-1.796875,-5.765625,0.296875
193,0.89086914,-0.14434814,0.44281006,0.140625,-6.578125,1.296875
194,0.8598633,-0.120910645,0.45672607,2.90625,-5.09375,0.984375
195,0.8498535,-0.12164307,0.46209717,4.234375,-2.828125,0.0
196,0.8483887,-0.14019775,0.47113037,2.28125,-1.96875,-0.234375
197,0.86450195,-0.17047119,0.47332764,-7.078125,3.40625,-0.46875
198,0.90893555,-0.11895752,0.5236206,-12.46875,20.21875,-2.765625
199,0.8671875,-0.07989502,0.43743896,-10.921875,9.703125,0.71875
200,0.86572266,-0.09552002,0.4418335,6.796875,2.609375,-3.359375
201,0.8996582,-0.12921143,0.4298706,4.609375,0.546875,-5.21875
202,0.87402344,-0.13067627,0.4208374,6.34375,4.265625,-0.0625
203,0.85791016,-0.1506958,0.40594482,0.8125,4.0625,-0.171875
204,0.8754883,-0.124572754,0.3973999,1.015625,4.75,-1.0625
205,0.8845215,-0.12530518,0.40545654,3.53125,2.328125,-1.171875
206,0.8781738,-0.12774658,0.41229248,5.34375,1.53125,-1.046875
207,0.8769531,-0.11431885,0.3986206,8.140625,3.234375,0.21875
208,0.8796387,-0.16290283,0.34100342,10.515625,-3.046875,-0.671875
209,0.88916016,-0.21051025,0.387146,7.125,-7.296875,-0.953125
210,0.9025879,-0.20343018,0.41522217,-4.765625,-0.453125,1.484375
211,0.9057617,-0.13140869,0.39227295,-6.15625,6.234375,2.6875
212,0.89990234,-0.13360596,0.40374756,3.1875,1.25,0.171875
213,0.9030762,-0.14434814,0.41253662,3.390625,-1.734375,-0.328125
214,0.8798828,-0.15533447,0.39715576,2.90625,-2.59375,1.203125
215,0.8718262,-0.15338135,0.40252686,1.90625,-0.515625,0.875
216,0.8725586,-0.1404419,0.40350342,0.671875,0.03125,-0.25
217,0.8840332,-0.1663208,0.387146,-0.265625,-4.703125,-0.25
218,0.87060547,-0.14703369,0.40618896,-3.046875,-8.84375,-1.015625
219,0.88061523,-0.1519165,0.44036865,0.296875,-0.96875,-2.078125
220,0.9042969,-0.16192627,0.4179077,0.828125,1.453125,0.6875
221,0.904541,-0.19903564,0.4171753,-3.78125,-1.03125,-0.328125
222,0.9177246,-0.17340088,0.48895264,-18.453125,4.875,-3.140625
223,0.9145508,-0.1104126,0.43743896,-19.46875,3.46875,1.28125
224,0.8544922,-0.10601807,0.43304443,2.6875,0.4375,-1.078125
225,0.89990234,-0.09698486,0.43719482,10.015625,3.125,-3.890625
226,0.8684082,-0.14361572,0.38934326,4.28125,-0.234375,0.5
227,0.83862305,-0.13336182,0.42840576,2.046875,4.453125,0.515625
228,0.8718262,-0.13165283,0.3932495,0.46875,6.890625,0.828125
229,0.8684082,-0.08648682,0.3937378,8.140625,8.328125,0.359375
230,0.8483887,-0.15118408,0.3739624,13.84375,3.4375,0.171875
231,0.88500977,-0.17926025,0.3583374,10.421875,-2.671875,-1.234375
232,0.9123535,-0.2119751,0.35443115,-1.828125,-4.5625,-0.9375
233,0.9260254,-0.15289307,0.39422607,-9.703125,3.046875,-0.640625
234,0.9145508,-0.14141846,0.38128662,-3.765625,3.5625,1.84375
235,0.9182129,-0.16412354,0.38812256,1.265625,-1.484375,0.125
236,0.91064453,-0.19000244,0.37469482,-1.484375,-3.84375,-0.765625
237,0.89624023,-0.16314697,0.44403076,-15.15625,-1.28125,-2.53125
238,0.9140625,-0.1026001,0.41522217,-20.609375,0.5625,2.25
239,0.8811035,-0.10089111,0.40203857,1.65625,3.65625,-0.078125
240,0.90893555,-0.10870361,0.39764404,11.703125,0.65625,-1.96875
241,0.8845215,-0.11968994,0.3991089,8.171875,0.84375,-0.546875
242,0.86035156,-0.1638794,0.38739014,2.4375,2.578125,1.359375
243,0.8696289,-0.14093018,0.3768921,1.71875,3.4375,0.421875
244,0.8820801,-0.15289307,0.37420654,1.234375,0.234375,-1.0
245,0.89746094,-0.124572754,0.41156006,3.09375,4.078125,-0.9375
246,0.88720703,-0.13702393,0.37542725,0.75,1.578125,-0.328125
247,0.8725586,-0.11578369,0.3595581,9.625,2.875,0.046875
248,0.89086914,-0.14898682,0.35443115,12.609375,4.078125,-0.375
249,0.9091797,-0.21929932,0.32244873,9.28125,-0.078125,0.625
250,0.9128418,-0.16827393,0.35394287,3.34375,4.421875,1.828125
251,0.90234375,-0.13702393,0.33319092,1.34375,3.703125,3.421875
252,0.90893555,-0.15240479,0.34613037,5.625,3.625,0.828125
253,0.921875,-0.16802979,0.34661865,2.75,-0.28125,-0.90625
254,0.91674805,-0.16973877,0.3463745,0.25,-1.375,0.1875
255,0.89404297,-0.1531372,0.3414917,-1.546875,-1.84375,0.8125
256,0.9057617,-0.13824463,0.33758545,2.3125,0.34375,0.8125
257,0.90234375,-0.16558838,0.355896,0.453125,-4.53125,1.390625
258,0.8820801,-0.16607666,0.35198975,-10.234375,-12.125,-0.453125
259,0.88720703,-0.16021729,0.35760498,-13.328125,-15.390625,-2.953125
260,0.9169922,-0.15557861,0.40594482,-9.515625,-7.75,-1.828125
261,0.9074707,-0.13677979,0.41326904,-5.84375,-0.53125,-0.59375
262,0.8989258,-0.13092041,0.41375732,-6.5625,-3.046875,2.359375
263,0.88061523,-0.1296997,0.41888428,-5.84375,-3.8125,2.921875
264,0.8947754,-0.13580322,0.4232788,1.625,0.609375,1.671875
265,0.88183594,-0.16607666,0.44647217,-4.359375,3.078125,0.046875
266,0.9733887,-0.13922119,0.48406982,-17.546875,19.078125,-6.296875
267,0.8664551,-0.06329346,0.36395264,-12.203125,6.390625,3.328125
268,0.8820801,-0.070617676,0.38494873,21.875,3.765625,-1.65625
269,0.8845215,-0.09039307,0.36883545,20.96875,1.078125,-1.28125
270,0.84716797,-0.13458252,0.34857178,17.203125,1.015625,1.140625
271,0.8703613,-0.18951416,0.33294678,9.0625,-0.1875,-0.78125
272,0.8864746,-0.15484619,0.32244873,1.578125,-4.484375,-0.328125
273,0.9020996,-0.17608643,0.38153076,-0.578125,-2.953125,-1.375
274,0.92089844,-0.18536377,0.387146,-10.78125,-0.203125,-0.546875
275,0.9111328,-0.12432861,0.37420654,-6.046875,0.171875,0.046875
276,0.93310547,-0.12677002,0.3920288,-3.453125,-4.15625,-1.0625
277,0.91748047,-0.16021729,0.37786865,-5.703125,-8.984375,0.765625
278,0.8864746,-0.14385986,0.416687,-3.09375,-10.5625,0.34375
279,0.8947754,-0.15093994,0.4225464,-5.109375,-6.40625,-0.359375
280,0.88061523,-0.10430908,0.41375732,-6.484375,-6.40625,0.859375
281,0.86450195,-0.1194458,0.434021,-3.609375,-7.328125,-1.046875
282,0.87597656,-0.16265869,0.4454956,-6.015625,-1.328125,-1.046875
283,0.9116211,-0.11968994,0.5343628,-8.46875,18.03125,-2.796875
284,0.88964844,-0.101867676,0.41888428,-19.390625,7.25,0.984375
285,0.85839844,-0.06719971,0.42279053,3.640625,3.9375,-1.734375
286,0.8977051,-0.094055176,0.43377686,11.078125,4.921875,-3.71875
287,0.8857422,-0.13018799,0.40472412,10.328125,5.71875,0.59375
288,0.8803711,-0.12994385,0.38494873,5.28125,3.90625,-0.0625
289,0.88061523,-0.10406494,0.36444092,2.921875,1.671875,0.34375
290,0.87109375,-0.12530518,0.34588623,6.546875,-2.078125,-0.875
291,0.8835449,-0.14630127,0.35272217,3.09375,-7.765625,-1.359375
292,0.8544922,-0.15045166,0.37493896,-0.125,-13.015625,-0.5625
293,0.9267578,-0.18756104,0.4286499,-1.640625,0.078125,-2.0
294,0.9272461,-0.14849854,0.42669678,-4.390625,7.046875,2.1875
295,0.90356445,-0.1585083,0.44696045,-12.78125,0.71875,-0.203125
296,0.9838867,-0.13140869,0.47698975,-17.0625,9.875,-3.421875
297,0.88378906,-0.13336182,0.38275146,-9.28125,-1.71875,3.40625
298,0.8859863,-0.09185791,0.42816162,9.71875,1.15625,-2.65625
299,0.8718262,-0.09942627,0.3932495,7.953125,5.3125,-1.71875
300,0.8408203,-0.121154785,0.38372803,7.203125,4.1875,1.34375
301,0.8635254,-0.12408447,0.36883545,0.78125,3.265625,-0.40625
302,0.87939453,-0.101867676,0.36688232,1.484375,0.28125,-0.109375
303,0.88427734,-0.097717285,0.38739014,5.296875,-0.921875,-0.390625
304,0.8791504,-0.1338501,0.36541748,6.65625,-3.96875,-1.0
305,0.873291,-0.13824463,0.37005615,5.4375,-8.859375,-1.203125
306,0.8684082,-0.19464111,0.3764038,-1.1875,-16.984375,-2.453125
307,0.9260254,-0.19049072,0.4401245,-7.625,-5.28125,-2.5
308,0.9172363,-0.12335205,0.42767334,-2.46875,7.5625,4.21875
309,0.9091797,-0.12579346,0.41864014,-1.484375,-1.140625,2.140625
310,0.91308594,-0.13214111,0.4237671,-1.484375,-9.34375,0.25
311,0.876709,-0.124572754,0.44989014,3.921875,-10.03125,1.84375
312,0.8618164,-0.13092041,0.45306396,2.21875,-6.328125,0.109375
313,0.8564453,-0.12945557,0.45916748,-1.390625,-6.921875,-0.40625
314,0.85717773,-0.13287354,0.46795654,-4.5625,-7.21875,-0.625
315,0.85839844,-0.12017822,0.48480225,-5.4375,-5.40625,0.203125
316,0.86376953,-0.13580322,0.49456787,-2.671875,-4.21875,-0.5
317,0.8569336,-0.16168213,0.5067749,-7.171875,-2.0,-2.84375
318,0.8989258,-0.109680176,0.6078491,-8.296875,21.25,-5.546875
319,0.88500977,-0.08892822,0.5031128,-23.703125,17.890625,0.234375
320,0.82470703,-0.09039307,0.42694092,-5.453125,4.765625,-1.59375
321,0.8474121,-0.08062744,0.4262085,12.8125,0.25,-3.875
322,0.8408203,-0.082092285,0.3944702,25.46875,11.125,1.484375
323,0.8833008,-0.14801025,0.3866577,23.1875,5.375,3.203125
324,0.8532715,-0.13116455,0.36566162,6.71875,-5.140625,1.328125
325,0.8835449,-0.16046143,0.36834717,4.40625,-12.125,-1.125
326,0.8894043,-0.18389893,0.42913818,-3.71875,-13.03125,-0.75
327,0.9069824,-0.19854736,0.4315796,-16.359375,-15.578125,-0.140625
328,0.89697266,-0.14678955,0.56829834,-14.328125,-3.96875,-3.984375
329,0.9597168,-0.11798096,0.59710693,-23.140625,5.59375,-1.046875
330,0.84033203,-0.08355713,0.5165405,-17.0,2.9375,1.59375
331,0.85180664,-0.07574463,0.50823975,5.296875,7.3125,-4.6875
332,0.8339844,-0.09161377,0.43597412,10.4375,4.453125,-1.109375
333,0.80737305,-0.08868408,0.4701538,14.3125,10.078125,0.546875
334,0.84228516,-0.120910645,0.39593506,2.8125,7.484375,0.578125
335,0.8322754,-0.0725708,0.42181396,6.75,5.609375,2.375
336,0.84350586,-0.0725708,0.42279053,8.109375,4.15625,1.15625
337,0.86694336,-0.13995361,0.38079834,11.5,0.6875,-2.03125
338,0.88378906,-0.15362549,0.39813232,12.25,-6.078125,-5.34375
339,0.90478516,-0.2078247,0.41131592,2.453125,-6.234375,-1.796875
340,0.8898926,-0.16778564,0.46014404,0.625,6.15625,1.84375
341,0.9304199,-0.20489502,0.4389038,0.0,5.234375,1.125
342,0.9169922,-0.17584229,0.39569092,-1.75,-8.3125,0.46875
343,0.8676758,-0.13189697,0.42059326,2.1875,-14.15625,0.359375
344,0.86035156,-0.14508057,0.45965576,0.09375,-9.75,-0.046875
345,0.8625488,-0.15557861,0.46380615,-2.984375,-4.71875,1.1875
346,0.8544922,-0.15582275,0.4537964,-7.4375,-7.3125,0.5
347,0.86328125,-0.1638794,0.5084839,-12.46875,0.71875,-2.953125
348,0.9069824,-0.09967041,0.53289795,-17.640625,10.65625,-0.671875
349,0.8544922,-0.08721924,0.49212646,-7.21875,12.078125,2.203125
350,0.8557129,-0.07550049,0.47576904,5.46875,8.234375,-1.46875
351,0.86938477,-0.11114502,0.4467163,9.890625,2.515625,-2.234375
352,0.8515625,-0.13824463,0.44744873,6.171875,6.0,-0.546875
353,0.859375,-0.13140869,0.418396,4.75,10.046875,1.5625
354,0.8725586,-0.112854004,0.4039917,4.546875,7.53125,0.0
355,0.8742676,-0.11065674,0.4208374,10.578125,7.78125,-1.96875
356,0.8820801,-0.116760254,0.39227295,15.078125,8.390625,-0.34375
357,0.8754883,-0.16656494,0.32977295,8.546875,-0.453125,-2.015625
358,0.87524414,-0.1843872,0.3427124,-0.4375,-13.6875,-2.515625
359,0.86938477,-0.22052002,0.38934326,-7.984375,-15.25,-2.984375
360,0.93481445,-0.16802979,0.4550171,-3.40625,9.0625,0.765625
361,0.90966797,-0.12164307,0.401062,-0.625,5.484375,4.6875
362,0.9099121,-0.12628174,0.41033936,2.390625,-3.828125,-0.1875
363,0.8964844,-0.15386963,0.41522217,1.84375,-7.078125,0.734375
364,0.85913086,-0.16656494,0.4003296,-2.203125,-13.53125,1.1875
365,0.85009766,-0.14117432,0.44354248,-2.0625,-8.171875,-0.4375
366,0.86450195,-0.144104,0.4393921,-4.21875,-1.203125,0.453125
367,0.8725586,-0.13995361,0.45672607,-6.328125,-0.421875,0.40625
368,0.8845215,-0.12823486,0.4640503,-4.3125,-0.578125,-0.375
369,0.88623047,-0.13726807,0.48016357,-4.578125,1.734375,-2.484375
370,0.90234375,-0.14239502,0.5241089,-8.1875,11.953125,-2.484375
371,0.8918457,-0.12774658,0.45281982,-15.375,8.359375,-0.390625
372,0.84887695,-0.10015869,0.4315796,0.046875,-0.15625,-0.53125
373,0.86816406,-0.09991455,0.43743896,7.203125,-0.53125,-1.671875
374,0.8652344,-0.1350708,0.4069214,11.296875,3.734375,1.59375
375,0.8395996,-0.14068604,0.37371826,14.28125,3.671875,1.78125
376,0.88427734,-0.13677979,0.36883545,5.25,-4.546875,-0.765625
377,0.86987305,-0.16046143,0.39471436,4.078125,-10.015625,-1.78125
378,0.8964844,-0.20855713,0.43792725,-6.046875,-7.09375,-1.375
379,0.9145508,-0.1585083,0.50457764,-9.296875,10.328125,-1.3125
380,0.970459,-0.14801025,0.48114014,-15.765625,13.34375,0.796875
381,0.8876953,-0.105773926,0.44403076,-9.359375,6.109375,1.78125
382,0.8811035,-0.10675049,0.43133545,4.515625,-1.515625,-2.359375
383,0.87475586,-0.12042236,0.4232788,7.859375,-0.1875,-1.078125
384,0.8474121,-0.14605713,0.39031982,3.78125,0.90625,1.515625
385,0.8364258,-0.08917236,0.41351318,6.34375,5.6875,2.140625
386,0.8540039,-0.124816895,0.36566162,6.21875,0.515625,0.21875
387,0.8552246,-0.1194458,0.3703003,10.34375,-1.734375,-1.0625
388,0.85424805,-0.17120361,0.38128662,2.296875,-10.15625,-2.46875
389,0.9160156,-0.22247314,0.43084717,-4.421875,-1.96875,-3.78125
390,0.9230957,-0.1453247,0.43450928,-9.15625,5.46875,-0.0625
391,0.92089844,-0.17510986,0.41522217,-5.90625,1.0,0.578125
392,0.94677734,-0.18682861,0.49432373,-17.171875,1.203125,-4.28125
393,0.90112305,-0.09674072,0.4274292,-21.484375,-2.96875,2.4375
394,0.86035156,-0.07867432,0.43743896,4.421875,2.484375,0.421875
395,0.85180664,-0.07232666,0.41448975,16.96875,2.703125,-0.046875
396,0.83691406,-0.09454346,0.3973999,16.9375,0.703125,1.28125
397,0.8339844,-0.14678955,0.3834839,12.015625,0.34375,0.78125
398,0.85424805,-0.1609497,0.37322998,6.421875,-1.109375,0.859375
399,0.8811035,-0.17608643,0.40203857,2.046875,-1.65625,1.078125
400,0.8918457,-0.16925049,0.42010498,-6.859375,-1.3125,-1.15625
401,0.9279785,-0.15020752,0.42230225,-0.5,4.171875,-1.875
402,0.9250488,-0.12774658,0.4352417,-0.125,0.1875,-0.265625
403,0.9133301,-0.14801025,0.42059326,0.34375,-1.65625,0.609375
404,0.8820801,-0.16925049,0.40618896,-2.546875,-8.828125,1.0625
405,0.85546875,-0.13018799,0.42938232,-1.53125,-7.9375,0.296875
406,0.8642578,-0.13238525,0.44281006,-2.5625,-3.765625,-0.203125
407,0.85668945,-0.13311768,0.4328003,-4.578125,-5.40625,0.1875
408,0.8630371,-0.1182251,0.45428467,-2.5,-4.375,0.078125
409,0.8713379,-0.12945557,0.46209717,-2.0625,-2.84375,-0.5
410,0.88061523,-0.13922119,0.46209717,-0.734375,-2.578125,-1.046875
411,0.88793945,-0.14630127,0.4850464,0.03125,-1.625,-0.265625
412,0.8696289,-0.17218018,0.5126343,-10.734375,3.609375,-2.140625
413,0.9406738,-0.10455322,0.5265503,-11.90625,21.71875,-1.9375
414,0.85058594,-0.09210205,0.42059326,-4.84375,5.21875,4.703125
415,0.83984375,-0.08721924,0.41082764,11.953125,-2.515625,-2.296875
416,0.845459,-0.10333252,0.41229248,12.640625,-1.390625,-2.09375
417,0.8366699,-0.13043213,0.39178467,11.765625,0.9375,0.46875
418,0.8666992,-0.1531372,0.3908081,3.453125,-2.40625,-1.375
419,0.8725586,-0.14874268,0.38763428,-0.890625,-6.90625,-1.171875
420,0.8930664,-0.18487549,0.44622803,-3.5,-9.5,-1.25
421,0.89697266,-0.16046143,0.46722412,-10.625,-5.6875,-0.71875
422,0.89697266,-0.14239502,0.5116577,-4.046875,3.609375,-1.421875
423,0.91967773,-0.13653564,0.53582764,-13.859375,6.296875,-0.921875
424,0.8532715,-0.09893799,0.48724365,-16.296875,4.640625,1.15625
425,0.8588867,-0.11602783,0.4569702,2.15625,2.015625,-1.1875
426,0.8691406,-0.085510254,0.45135498,9.09375,4.90625,-0.71875
427,0.8286133,-0.0960083,0.41375732,4.875,3.0625,0.59375
428,0.8430176,-0.1194458,0.42645264,2.578125,4.953125,-0.15625
429,0.8703613,-0.124816895,0.41766357,1.78125,3.09375,0.171875
430,0.8696289,-0.113586426,0.4154663,1.46875,0.421875,-1.0
431,0.8828125,-0.13092041,0.41522217,1.421875,-1.328125,-1.421875
432,0.8811035,-0.1404419,0.4274292,2.203125,-1.46875,-1.265625
433,0.88671875,-0.14068604,0.4232788,2.546875,-2.890625,-0.234375
434,0.8742676,-0.17266846,0.43206787,1.265625,-9.265625,-0.140625
435,0.8952637,-0.1675415,0.46673584,-1.234375,-4.796875,-0.046875
436,0.8664551,-0.12261963,0.44647217,-4.109375,-0.8125,1.890625
437,0.8703613,-0.11798096,0.4413452,-1.546875,-0.703125,0.40625
438,0.86743164,-0.117248535,0.45770264,-2.5,-3.90625,-0.0625
439,0.8774414,-0.14019775,0.4352417,1.6875,-7.59375,0.96875
440,0.8564453,-0.11407471,0.4755249,3.90625,-8.25,1.21875
441,0.8586426,-0.11968994,0.4857788,2.171875,-6.234375,1.25
442,0.8535156,-0.13189697,0.5126343,0.671875,-3.265625,-0.078125
443,0.8601074,-0.14337158,0.52142334,-2.140625,-2.21875,-0.015625
444,0.8515625,-0.14190674,0.5663452,-8.5625,3.84375,-2.546875
445,0.890625,-0.13653564,0.53582764,-17.546875,12.828125,-2.6875
446,0.85131836,-0.06378174,0.4960327,-11.59375,12.71875,-0.421875
447,0.8469238,-0.0791626,0.45526123,-3.265625,4.03125,-3.671875
448,0.83251953,-0.06695557,0.44085693,10.0625,2.421875,-1.484375
449,0.8366699,-0.093566895,0.4237671,26.0,8.375,1.03125
450,0.8532715,-0.18023682,0.35760498,26.640625,3.8125,3.390625
451,0.9069824,-0.14752197,0.42401123,9.53125,0.53125,1.890625
452,0.8598633,-0.19683838,0.4574585,-13.90625,6.421875,-5.265625
453,0.9616699,-0.19268799,0.4616089,-20.71875,11.453125,-4.0625
454,0.91674805,-0.11090088,0.43377686,-14.65625,4.59375,4.546875
455,0.87841797,-0.055236816,0.4208374,-1.953125,-7.3125,-2.859375
456,0.8520508,-0.101623535,0.4430542,6.359375,-7.140625,-1.8125
457,0.8498535,-0.17144775,0.38739014,15.125,2.65625,1.3125
458,0.8676758,-0.14459229,0.37615967,11.71875,1.859375,2.546875
459,0.8569336,-0.12677002,0.4147339,5.28125,-4.609375,1.859375
460,0.87109375,-0.15411377,0.4459839,-1.96875,-5.390625,-0.515625
461,0.8798828,-0.13824463,0.43695068,-8.109375,-3.578125,-0.953125
462,0.8874512,-0.12310791,0.43988037,-8.96875,-6.171875,-2.203125
463,0.89404297,-0.17437744,0.43914795,-14.890625,-8.8125,-3.6875
464,0.94311523,-0.13214111,0.55584717,-17.1875,10.015625,-5.265625
465,0.88623047,-0.10675049,0.45159912,-20.71875,2.953125,4.5
466,0.8613281,-0.06915283,0.46258545,6.859375,3.28125,0.34375
467,0.86694336,-0.077941895,0.46038818,12.921875,3.84375,-1.28125
468,0.8535156,-0.12261963,0.43475342,9.5,3.765625,0.3125
469,0.86621094,-0.13897705,0.42816162,6.21875,7.140625,-0.640625
470,0.86621094,-0.12017822,0.39813232,3.625,4.421875,0.359375
471,0.87890625,-0.11993408,0.4015503,6.109375,2.875,-1.0
472,0.8730469,-0.13360596,0.41156006,2.71875,1.421875,-1.65625
473,0.8840332,-0.12872314,0.4179077,5.96875,1.484375,0.046875
474,0.876709,-0.159729,0.387146,5.5,-2.34375,0.09375
475,0.88134766,-0.12286377,0.39788818,3.90625,-4.515625,-0.1875
476,0.8652344,-0.17730713,0.39105225,-0.75,-13.46875,0.734375
477,0.861084,-0.17388916,0.4533081,-5.546875,-8.890625,0.171875
478,0.89697266,-0.12921143,0.4550171,-6.703125,4.078125,1.453125
479,0.8930664,-0.11383057,0.43328857,-1.625,1.671875,0.65625
480,0.8901367,-0.11602783,0.45135498,-2.8125,-4.03125,-0.921875
481,0.88793945,-0.13409424,0.4459839,-0.34375,-5.4375,0.015625
482,0.87841797,-0.1362915,0.46600342,3.765625,-3.578125,1.234375
483,0.8588867,-0.13604736,0.4701538,1.3125,-2.5,0.765625
484,0.888916,-0.13726807,0.479187,6.5,4.515625,-0.421875
485,0.8547363,-0.11602783,0.4508667,2.171875,2.46875,5.0
486,0.8498535,-0.10357666,0.4376831,3.40625,-0.015625,1.25
487,0.8623047,-0.12701416,0.44891357,3.78125,-2.375,-0.734375
488,0.8605957,-0.13897705,0.45477295,2.609375,-3.671875,-1.03125
489,0.8720703,-0.13311768,0.4713745,0.875,-2.625,-0.9375
490,0.8769531,-0.17047119,0.46917725,-6.40625,-3.34375,-1.890625
491,0.92089844,-0.14190674,0.53900146,-15.34375,10.859375,-3.78125
492,0.8815918,-0.089660645,0.4491577,-23.140625,7.203125,2.078125
493,0.85839844,-0.06793213,0.45477295,2.421875,0.890625,-0.390625
494,0.83569336,-0.06768799,0.4977417,15.328125,7.96875,-3.609375
495,0.83691406,-0.14190674,0.40374756,29.75,23.734375,2.171875
496,0.88012695,-0.16314697,0.34490967,28.09375,20.59375,7.25
497,0.9194336,-0.13116455,0.30877686,16.625,7.8125,5.453125
498,0.9016113,-0.15484619,0.36029053,8.40625,-2.484375,1.203125
499,0.9020996,-0.15924072,0.36956787,-2.09375,-1.96875,-1.6875
500,0.9291992,-0.20440674,0.35906982,-6.78125,-2.4375,-3.140625
501,0.95654297,-0.17071533,0.39593506,-9.96875,-0.28125,-2.5
502,0.9416504,-0.1375122,0.40496826,-21.015625,-2.90625,-2.265625
503,0.9211426,-0.11846924,0.44891357,-25.984375,-10.46875,-4.84375
504,0.8659668,-0.12042236,0.4208374,-11.0625,-3.125,-2.109375
505,0.8754883,-0.101379395,0.4015503,9.296875,4.859375,-1.265625
506,0.86865234,-0.11798096,0.38372803,11.96875,6.375,-0.640625
507,0.8635254,-0.124572754,0.36883545,10.40625,7.59375,0.671875
508,0.8930664,-0.13018799,0.3493042,7.03125,7.203125,-0.546875
509,0.88623047,-0.14312744,0.35247803,4.09375,6.0625,-0.1875
510,0.9111328,-0.16168213,0.34783936,4.046875,3.078125,-1.1875
511,0.91259766,-0.13165283,0.35321045,0.21875,-3.5,-0.578125
512,0.9067383,-0.15533447,0.3546753,0.0,-5.15625,-0.703125
513,0.8955078,-0.15826416,0.37542725,-4.390625,-9.125,-0.421875
514,0.84399414,-0.14141846,0.36541748,-14.0625,-20.390625,1.640625
515,0.8466797,-0.14605713,0.4100952,-13.140625,-17.46875,-4.015625
516,0.9099121,-0.16290283,0.43206787,-5.234375,-5.1875,-2.515625
517,0.9108887,-0.11846924,0.42913818,-6.328125,-2.796875,2.953125
518,0.8935547,-0.09918213,0.44622803,-5.140625,-4.265625,0.265625
519,0.8840332,-0.13409424,0.45965576,-0.828125,-4.03125,0.296875
520,0.8828125,-0.19464111,0.43377686,-0.390625,-5.15625,0.28125
521,0.8779297,-0.1350708,0.55340576,-3.234375,9.6875,-3.78125
522,0.92578125,-0.12994385,0.48480225,-17.71875,12.234375,0.84375
523,0.8395996,-0.061340332,0.4533081,-5.625,5.421875,3.015625
524,0.8676758,-0.07696533,0.4520874,7.546875,2.421875,-3.15625
525,0.85253906,-0.08648682,0.43450928,6.84375,0.671875,-2.203125
526,0.83325195,-0.11383057,0.3944702,11.328125,4.21875,0.3125
527,0.8569336,-0.11187744,0.3768921,16.734375,6.84375,-1.0
528,0.87646484,-0.13970947,0.37591553,14.78125,2.4375,-0.4375
529,0.8886719,-0.17803955,0.35760498,6.671875,-4.859375,-0.6875
530,0.8979492,-0.18414307,0.41375732,0.484375,-1.109375,-0.109375
531,0.92211914,-0.17047119,0.4076538,-6.9375,-1.3125,1.328125
532,0.90966797,-0.13800049,0.4076538,-4.25,-1.34375,0.71875
533,0.90405273,-0.14361572,0.43988037,-1.03125,-3.796875,0.140625
534,0.8947754,-0.15264893,0.447937,-3.203125,-6.546875,-0.671875
535,0.8859863,-0.14483643,0.42303467,-4.03125,-8.96875,-0.09375
536,0.8625488,-0.12310791,0.43255615,-2.171875,-8.921875,0.84375
537,0.86328125,-0.12579346,0.43133545,0.125,-11.1875,0.359375
538,0.8508301,-0.12872314,0.48602295,0.796875,-11.859375,0.21875
539,0.84887695,-0.15826416,0.5360718,-6.015625,-3.671875,-0.484375
540,0.9248047,-0.13433838,0.56707764,-16.59375,17.3125,-2.15625
541,0.8425293,-0.06109619,0.49578857,-24.125,7.9375,3.015625
542,0.83374023,-0.05670166,0.496521,-0.65625,7.21875,-4.890625
543,0.84814453,-0.06915283,0.46868896,11.484375,3.65625,-5.0
544,0.82128906,-0.10430908,0.4352417,21.765625,7.09375,-1.75
545,0.85253906,-0.18096924,0.3475952,21.015625,9.90625,0.421875
546,0.8671875,-0.11431885,0.354187,14.609375,2.3125,3.671875
547,0.87524414,-0.14654541,0.3961792,6.484375,-0.4375,1.46875
548,0.88623047,-0.22393799,0.4064331,-2.953125,-5.5,-1.65625
549,0.9296875,-0.17803955,0.4491577,-3.765625,1.984375,-3.125
550,0.9550781,-0.14801025,0.47601318,-12.015625,7.75,-0.5
551,0.9128418,-0.116760254,0.45941162,-21.96875,6.4375,0.828125
552,0.8815918,-0.13238525,0.43670654,-13.453125,-3.703125,-1.609375
553,0.86157227,-0.11553955,0.416687,4.875,-3.25,-1.265625
554,0.8557129,-0.09185791,0.41351318,15.6875,1.515625,0.453125
555,0.82250977,-0.10430908,0.41644287,14.578125,3.171875,1.875
556,0.82421875,-0.12994385,0.36566162,12.984375,7.640625,1.65625
557,0.8918457,-0.16607666,0.35687256,11.390625,2.3125,1.515625
558,0.89575195,-0.15093994,0.37713623,-7.21875,-13.15625,-1.125
559,0.8679199,-0.18487549,0.40545654,-9.65625,-7.421875,-5.453125
560,0.98999023,-0.159729,0.48358154,-2.59375,12.6875,-2.328125
561,0.9304199,-0.16656494,0.44232178,-21.390625,2.015625,3.84375
562,0.92700195,-0.13897705,0.44696045,-17.03125,-1.5625,-2.125
563,0.8820801,-0.1194458,0.41033936,-0.1875,-0.75,-0.125
564,0.8779297,-0.09918213,0.4225464,14.28125,6.453125,0.40625
565,0.8659668,-0.13653564,0.39642334,11.78125,5.375,0.65625
566,0.8540039,-0.109680176,0.3932495,8.90625,2.953125,2.125
567,0.8640137,-0.11846924,0.35784912,10.234375,2.4375,1.28125
568,0.8557129,-0.11651611,0.35125732,9.015625,-0.9375,-0.421875
569,0.857666,-0.14239502,0.36224365,2.265625,-9.796875,-0.84375
570,0.85424805,-0.16070557,0.39886475,-8.3125,-14.546875,-1.6875
571,0.8811035,-0.20172119,0.42596436,-10.609375,-8.25,-2.640625
572,0.9379883,-0.15557861,0.4442749,-12.28125,-4.734375,-0.125
573,0.9223633,-0.12408447,0.43206787,-8.03125,-4.515625,0.875
574,0.9082031,-0.11920166,0.45135498,-2.265625,-8.90625,0.09375
575,0.8955078,-0.1560669,0.4833374,-1.578125,-10.90625,0.40625
576,0.8486328,-0.13922119,0.48651123,-4.46875,-7.21875,1.578125
577,0.8300781,-0.15899658,0.4730835,-6.453125,-6.671875,-0.75
578,0.87841797,-0.10089111,0.6100464,-1.953125,16.90625,-3.890625
579,0.8701172,-0.10723877,0.4953003,-24.9375,10.40625,3.46875
580,0.8312988,-0.053527832,0.4755249,-8.0,8.671875,-2.734375
581,0.87158203,-0.07476807,0.45916748,8.28125,5.9375,-6.3125
582,0.8911133,-0.11138916,0.4550171,16.28125,14.796875,-3.421875
583,0.8684082,-0.13604736,0.38616943,11.5,10.453125,1.5
584,0.87939453,-0.117492676,0.40008545,14.09375,7.859375,1.21875
585,0.8979492,-0.13726807,0.37738037,11.90625,8.625,0.09375
586,0.8786621,-0.13067627,0.3678589,11.765625,7.390625,0.9375
587,0.85791016,-0.12017822,0.37420654,12.984375,5.203125,1.4375
588,0.8847656,-0.15899658,0.3209839,10.546875,1.546875,-0.796875
589,0.8737793,-0.16851807,0.30047607,1.140625,-12.65625,-2.1875
590,0.8955078,-0.2312622,0.37738037,1.625,-7.4375,-2.96875
591,0.93408203,-0.18121338,0.402771,-8.078125,1.28125,1.234375
592,0.9067383,-0.12506104,0.37615967,-5.640625,0.578125,4.828125
593,0.91674805,-0.16558838,0.37982178,-9.765625,-11.328125,-1.234375
594,0.9069824,-0.15411377,0.4159546,-3.796875,-8.671875,-1.296875
595,0.93115234,-0.20709229,0.46014404,-13.8125,0.828125,-2.09375
596,0.9367676,-0.0803833,0.46868896,-22.375,8.875,2.0625
597,0.8483887,-0.085754395,0.41400146,-5.125,0.53125,5.703125
598,0.85498047,-0.06036377,0.43182373,21.484375,0.71875,-1.046875
599,0.8540039,-0.07159424,0.40203857,24.296875,0.875,-1.6875
600,0.8562012,-0.16534424,0.3637085,23.625,5.015625,0.015625
601,0.873291,-0.18243408,0.34539795,20.53125,6.625,3.078125
602,0.8959961,-0.19952393,0.35662842,0.515625,-4.890625,3.984375
603,0.85913086,-0.16168213,0.39813232,-13.0,-6.96875,-0.546875
604,0.91625977,-0.16656494,0.37420654,-12.5625,-4.0,-3.09375
605,0.91503906,-0.13409424,0.40838623,-6.34375,-3.140625,0.203125
606,0.92871094,-0.14385986,0.40008545,-10.65625,-8.421875,-0.625
607,0.91967773,-0.1638794,0.43133545,-14.46875,-10.765625,-2.765625
608,0.8745117,-0.13189697,0.4381714,-19.71875,-5.03125,-0.390625
609,0.8713379,-0.11236572,0.4389038,-6.328125,-0.125,-0.453125
610,0.8833008,-0.12774658,0.46624756,-0.109375,-0.828125,-0.75
611,0.87158203,-0.121154785,0.5597534,-9.5625,5.625,-5.40625
612,0.92333984,-0.12701416,0.44891357,-24.671875,3.3125,0.03125
613,0.8232422,-0.032287598,0.45794678,-3.953125,3.875,2.125
614,0.8935547,-0.057434082,0.44696045,20.359375,6.703125,-3.375
615,0.84033203,-0.04473877,0.42767334,38.75,10.1875,0.765625
616,0.87158203,-0.18365479,0.39154053,39.421875,14.6875,2.234375
617,0.88183594,-0.14654541,0.31951904,20.546875,12.34375,1.734375
618,0.8598633,-0.15802002,0.3085327,15.046875,10.75,4.875
619,0.9375,-0.19024658,0.34979248,15.828125,9.359375,1.96875
620,0.9316406,-0.15777588,0.3312378,2.875,5.84375,3.84375
621,0.91674805,-0.18267822,0.28240967,-3.671875,-1.421875,1.546875
622,0.9614258,-0.16827393,0.2909546,-0.796875,-8.328125,-0.609375
623,0.89208984,-0.13531494,0.3583374,-11.875,-16.53125,-1.5625
624,0.9042969,-0.19073486,0.32928467,-20.296875,-14.640625,-4.734375
625,0.91430664,-0.15167236,0.41375732,-12.875,-7.203125,-3.109375
626,0.9160156,-0.16168213,0.43450928,-23.328125,-12.296875,-3.53125
627,0.87158203,-0.13116455,0.42694092,-21.1875,-10.53125,-0.6875
628,0.93774414,-0.10089111,0.52557373,-11.734375,2.96875,-3.5
629,0.83203125,-0.08917236,0.4701538,-21.890625,-5.28125,1.34375
630,0.8630371,-0.08062744,0.46136475,9.546875,3.484375,-2.375
631,0.8811035,-0.08917236,0.4257202,13.765625,7.046875,0.765625
632,0.84472656,-0.10845947,0.38690186,7.3125,1.59375,3.28125
633,0.8327637,-0.066467285,0.4352417,23.59375,13.3125,0.390625
634,0.8964844,-0.1494751,0.3319702,41.484375,32.84375,5.625
635,0.92822266,-0.14727783,0.2921753,26.0,7.5625,5.109375
636,0.8913574,-0.13604736,0.33050537,7.546875,-0.21875,-3.265625
637,0.89746094,-0.22613525,0.27825928,-9.078125,-6.203125,-3.140625
638,0.9350586,-0.2354126,0.37200928,-8.6875,6.8125,-5.21875
639,1.0373535,-0.17828369,0.40301514,-18.984375,11.28125,-4.15625
640,0.94970703,-0.13555908,0.3151245,-24.28125,-6.84375,2.546875
641,0.9057617,-0.10748291,0.34588623,-2.125,-10.578125,-3.421875
642,0.90283203,-0.13653564,0.37445068,6.765625,-2.859375,-2.34375
643,0.8828125,-0.15216064,0.34613037,11.484375,4.828125,1.875
644,0.89086914,-0.1428833,0.33758545,10.0625,8.109375,0.421875
645,0.86279297,-0.10308838,0.3397827,8.203125,4.765625,3.34375
646,0.8679199,-0.12261963,0.30682373,6.953125,-2.796875,1.65625
647,0.87475586,-0.15460205,0.307312,9.359375,-6.6875,-0.25
648,0.85791016,-0.15948486,0.3324585,-5.328125,-15.984375,-2.703125
649,0.83203125,-0.20709229,0.29119873,-22.46875,-29.5625,-3.828125
650,0.9309082,-0.16119385,0.4743042,-6.171875,-2.828125,-7.734375
651,0.9716797,-0.16729736,0.41693115,-6.40625,3.375,4.578125
652,0.91430664,-0.109191895,0.4225464,-8.671875,-6.25,3.90625
653,0.904541,-0.16290283,0.44232178,-7.5625,-13.796875,-1.96875
654,0.8654785,-0.15582275,0.45477295,-11.046875,-14.109375,-0.046875
655,0.84155273,-0.12359619,0.46087646,-10.734375,-7.796875,-0.171875
656,0.85717773,-0.13775635,0.43963623,-9.203125,-9.578125,-0.515625
657,0.8388672,-0.077697754,0.49310303,-7.421875,-8.359375,-0.125
658,0.8503418,-0.113586426,0.49725342,-4.703125,-4.28125,-0.046875
659,0.8547363,-0.11187744,0.51678467,-3.203125,-2.109375,-1.046875
660,0.8586426,-0.116760254,0.52679443,-2.671875,-1.4375,-1.375
661,0.85839844,-0.15777588,0.53289795,-10.171875,1.234375,-3.34375
662,0.87719727,-0.093566895,0.618103,-11.953125,22.078125,-6.921875
663,0.88012695,-0.07183838,0.4935913,-18.9375,14.0,1.875
664,0.7832031,0.02166748,0.4533081,16.96875,14.1875,-3.890625
665,0.94140625,-0.21539307,0.33685303,50.609375,14.53125,0.609375
666,0.88305664,-0.14581299,0.34344482,20.03125,-14.609375,7.0625
667,0.8430176,-0.077941895,0.43499756,11.78125,-2.953125,-0.609375
668,0.8664551,-0.22613525,0.40667725,-8.609375,-1.765625,-0.875
669,0.8881836,-0.17803955,0.5001831,-11.765625,2.65625,-4.671875
670,0.8996582,-0.13800049,0.49725342,-24.25,1.9375,-0.015625
671,0.9033203,-0.054504395,0.54119873,-9.53125,14.0,-4.046875
672,0.9350586,-0.093566895,0.43572998,5.203125,12.53125,-2.6875
673,0.8642578,-0.13336182,0.39056396,30.59375,15.484375,1.09375
674,0.8991699,-0.16827393,0.38519287,32.140625,10.875,2.328125
675,0.9267578,-0.2119751,0.34173584,13.546875,7.78125,5.75
676,0.85302734,-0.09942627,0.33758545,6.671875,5.46875,4.453125
677,0.8769531,-0.13702393,0.2909546,6.65625,4.875,0.328125
678,0.8618164,-0.12017822,0.3209839,5.59375,-1.125,0.796875
679,0.8630371,-0.15557861,0.32781982,0.265625,-6.203125,-0.265625
680,0.87060547,-0.14776611,0.3312378,-13.046875,-17.5,-2.5
681,0.8820801,-0.19488525,0.34881592,-13.765625,-15.515625,-5.9375
682,0.9421387,-0.19927979,0.45037842,-9.5,4.359375,-6.609375
683,0.96875,-0.14654541,0.43450928,-7.84375,4.140625,1.109375
684,0.92333984,-0.13580322,0.4003296,-3.0,-2.984375,2.734375
685,0.89404297,-0.13604736,0.41131592,5.890625,-4.375,0.53125
686,0.8918457,-0.14190674,0.40985107,10.703125,2.234375,1.375
687,0.85180664,-0.16290283,0.3781128,1.921875,-2.453125,4.125
688,0.85546875,-0.144104,0.3727417,-6.03125,-6.3125,0.9375
689,0.8605957,-0.14239502,0.3776245,-13.21875,-11.296875,-0.3125
690,0.8449707,-0.11236572,0.4262085,-8.15625,-10.390625,-2.4375
691,0.9243164,-0.18096924,0.47894287,-4.84375,3.71875,-6.125
692,0.97265625,-0.1741333,0.50946045,-18.328125,13.421875,-3.859375
693,0.90063477,-0.074279785,0.43084717,-23.515625,2.921875,3.921875
694,0.87060547,-0.07672119,0.4328003,4.890625,0.53125,-0.765625
695,0.8562012,-0.07330322,0.45428467,24.9375,7.953125,-1.21875
696,0.8586426,-0.13970947,0.39666748,20.65625,6.46875,1.234375
697,0.83203125,-0.16827393,0.3390503,7.5,-3.109375,-0.0625
698,0.8491211,-0.13238525,0.34710693,12.34375,1.984375,0.25
699,0.8898926,-0.1519165,0.38446045,1.875,-6.671875,1.046875
700,0.8630371,-0.16314697,0.39349365,-14.5,-14.078125,-3.15625
701,0.90356445,-0.17266846,0.41033936,-14.640625,-7.265625,-4.875
702,0.9086914,-0.11212158,0.43841553,-13.03125,-6.109375,-0.640625
703,0.91552734,-0.12506104,0.44989014,-7.5625,-8.5625,-1.484375
704,0.89331055,-0.15582275,0.47528076,-3.421875,-11.78125,-0.234375
705,0.8833008,-0.15142822,0.5092163,-2.703125,-7.046875,1.59375
706,0.86865234,-0.19195557,0.4677124,-7.0,-5.84375,1.171875
707,0.8876953,-0.11993408,0.58099365,-1.890625,15.40625,-3.65625
708,0.8754883,-0.073791504,0.5223999,-15.1875,12.328125,6.078125
709,0.79345703,-0.031555176,0.4611206,-2.09375,4.765625,2.875
710,0.8120117,-0.034729004,0.4647827,15.84375,5.609375,-7.03125
711,0.82910156,-0.14654541,0.3986206,35.484375,18.578125,-1.984375
712,0.88500977,-0.1873169,0.3554077,16.453125,6.53125,0.40625
713,0.888916,-0.15948486,0.3312378,0.8125,1.96875,-1.65625
714,0.93774414,-0.2197876,0.40863037,6.484375,14.921875,-3.890625
715,1.0292969,-0.17218018,0.4389038,-4.296875,18.390625,2.203125
716,0.9616699,-0.12652588,0.3768921,-4.578125,13.171875,6.109375
717,0.9206543,-0.12017822,0.33807373,10.3125,0.71875,2.015625
718,0.8955078,-0.13140869,0.34368896,18.671875,0.546875,0.453125
719,0.8383789,-0.1609497,0.33441162,4.484375,-6.625,2.53125
720,0.8166504,-0.16656494,0.322937,2.609375,-3.3125,2.109375
721,0.8540039,-0.12701416,0.3258667,5.875,1.140625,-0.578125
722,0.8977051,-0.12774658,0.324646,-8.015625,-11.953125,-0.875
723,0.82006836,-0.13360596,0.34710693,-26.6875,-23.671875,-0.9375
724,0.9116211,-0.19732666,0.39886475,-18.28125,-17.921875,-8.828125
725,0.9680176,-0.11920166,0.4472046,-10.59375,-8.453125,-1.203125
726,0.91748047,-0.07940674,0.43011475,-6.609375,-1.28125,7.765625
727,0.93725586,-0.112854004,0.47991943,-2.890625,-4.609375,4.109375
728,0.90356445,-0.13677979,0.5092163,3.09375,-6.21875,5.734375
729,0.86279297,-0.15093994,0.48480225,2.203125,-4.578125,1.484375
730,0.83813477,-0.15411377,0.4598999,-6.65625,-1.171875,-2.703125
731,0.9543457,-0.13165283,0.50701904,-14.125,24.671875,-8.234375
732,0.8432617,-0.026916504,0.41644287,-23.90625,8.984375,3.171875
733,0.83374023,-0.026184082,0.42230225,7.484375,6.53125,-0.390625
734,0.86376953,-0.027893066,0.42474365,19.296875,2.3125,-2.390625
735,0.84228516,-0.08428955,0.402771,23.8125,3.125,-0.09375
736,0.86987305,-0.15557861,0.37860107,18.53125,3.484375,-1.265625
737,0.8808594,-0.1338501,0.34417725,6.484375,-1.671875,0.21875
738,0.87158203,-0.14508057,0.38128662,-2.4375,-11.59375,-0.046875
739,0.8876953,-0.16583252,0.43743896,-11.6875,-10.234375,-1.59375
740,0.90893555,-0.13116455,0.4376831,-10.546875,-6.953125,-0.203125
741,0.9116211,-0.11993408,0.43328857,-3.34375,-7.515625,1.0
742,0.8876953,-0.09259033,0.47869873,-3.109375,-4.21875,-0.078125
743,0.88916016,-0.12921143,0.46551514,-3.015625,-2.75,-0.90625
744,0.8803711,-0.12530518,0.44256592,-2.5,-5.0625,1.09375
745,0.86938477,-0.13702393,0.45721436,-1.1875,-5.984375,-0.15625
746,0.85424805,-0.113586426,0.543396,-3.5,4.671875,-4.0625
747,0.92749023,-0.11846924,0.50457764,-2.5625,18.359375,1.71875
748,0.8430176,-0.046691895,0.45916748,-11.265625,10.3125,4.390625
749,0.87768555,-0.058898926,0.46307373,1.515625,6.859375,-5.21875
750,0.8442383,-0.085510254,0.42840576,9.6875,-0.84375,0.0625
751,0.85668945,-0.06866455,0.42425537,19.21875,11.859375,2.40625
752,0.8498535,-0.11651611,0.32928467,14.28125,7.71875,3.15625
753,0.86816406,-0.10797119,0.3727417,9.484375,2.015625,-0.578125
754,0.89038086,-0.15435791,0.38275146,-8.984375,-9.828125,-2.9375
755,0.91137695,-0.19537354,0.3805542,-10.84375,-6.015625,-4.625
756,0.97509766,-0.13238525,0.50115967,-3.4375,11.46875,-4.578125
757,0.96069336,-0.09649658,0.44744873,-24.421875,1.171875,4.203125
758,0.876709,-0.04034424,0.43621826,-11.4375,-4.59375,2.25
759,0.84277344,-0.02154541,0.4574585,10.296875,2.65625,-3.203125
