sample_no,accel_x,accel_y,accel_z,gyro_x,gyro_y,gyro_z
0,-0.32788086,-0.9612427,0.078552246,0.203125,1.984375,0.265625
1,-0.34692383,-0.9612427,0.0770874,1.0625,3.484375,1.421875
2,-0.34204102,-0.9702759,0.057556152,1.515625,2.5,1.421875
3,-0.31640625,-0.93536377,0.062927246,1.4375,1.875,1.25
4,-0.31982422,-0.93585205,0.049743652,2.3125,2.265625,1.5625
5,-0.3310547,-0.9546509,0.050964355,2.90625,1.625,1.515625
6,-0.31762695,-0.9512329,0.05999756,1.921875,1.453125,0.8125
7,-0.31958008,-0.94732666,0.054626465,0.921875,1.3125,0.875
8,-0.29638672,-0.93170166,0.046081543,0.140625,-0.140625,0.484375
9,-0.29638672,-0.9470825,0.024108887,-0.203125,-0.5,0.75
10,-0.30322266,-0.944397,0.04486084,0.0625,-0.859375,0.453125
11,-0.30297852,-0.9378052,0.046081543,-0.4375,-1.625,0.578125
12,-0.28979492,-0.9192505,0.039001465,-2.796875,-2.203125,-0.53125
13,-0.31469727,-0.93414307,0.04925537,-2.796875,-3.140625,-1.1875
14,-0.31811523,-0.9685669,0.0680542,-1.34375,-1.96875,-0.328125
15,-0.32299805,-0.9373169,0.057556152,-2.265625,-1.28125,-0.90625
16,-0.30444336,-0.93096924,0.055847168,-2.453125,-2.125,-1.21875
17,-0.31567383,-0.9522095,0.07196045,-1.3125,-2.53125,-0.78125
18,-0.32177734,-0.95147705,0.0758667,-1.375,-2.578125,-0.953125
19,-0.31762695,-0.94781494,0.05682373,-1.609375,-1.28125,-0.65625
20,-0.31591797,-0.9522095,0.07171631,-0.015625,-1.03125,-0.578125
21,-0.31933594,-0.9517212,0.06341553,0.515625,-1.015625,0.609375
22,-0.32910156,-0.9522095,0.070007324,-0.015625,0.0,0.765625
23,-0.32543945,-0.95977783,0.09515381,1.28125,3.390625,1.265625
24,-0.3474121,-0.9673462,0.073913574,1.1875,4.296875,1.6875
25,-0.31152344,-0.94122314,0.07537842,2.28125,1.15625,1.65625
26,-0.2939453,-0.93463135,0.047302246,-0.625,2.328125,-0.1875
27,-0.33447266,-0.9585571,0.06854248,1.109375,3.5625,0.96875
28,-0.31713867,-0.97003174,0.07147217,1.9375,5.296875,0.703125
29,-0.31274414,-0.94488525,0.059753418,1.71875,4.0625,0.625
30,-0.3034668,-0.9429321,0.058044434,1.1875,3.40625,0.734375
31,-0.31396484,-0.95147705,0.061706543,2.265625,3.4375,1.0625
32,-0.30688477,-0.9590454,0.06121826,2.921875,4.5,2.6875
33,-0.31298828,-0.93951416,0.027282715,2.265625,1.84375,2.0625
34,-0.3046875,-0.9331665,0.046569824,2.328125,0.5625,1.953125
35,-0.29003906,-0.9397583,0.047790527,0.921875,-0.71875,0.96875
36,-0.29907227,-0.94122314,0.035583496,-0.203125,-1.9375,0.640625
37,-0.28198242,-0.93292236,0.034851074,-1.90625,-2.78125,-0.4375
38,-0.28295898,-0.954895,0.0602417,-0.1875,-1.125,-0.546875
39,-0.3137207,-0.9727173,0.055847168,0.1875,-1.640625,-0.09375
40,-0.3154297,-0.94537354,0.05682373,-1.078125,-2.1875,-0.640625
41,-0.31811523,-0.94317627,0.04949951,-1.59375,-2.703125,-1.0
42,-0.3215332,-0.9434204,0.06439209,-0.640625,-5.796875,-0.796875
43,-0.3022461,-0.94415283,0.043640137,-4.734375,-2.25,-1.84375
44,-0.31518555,-0.9458618,0.058776855,-2.4375,-1.921875,-2.0625
45,-0.32641602,-0.97003174,0.06072998,-1.328125,-1.0,-0.875
46,-0.31958008,-0.9475708,0.06536865,-1.40625,-1.71875,-1.453125
47,-0.30981445,-0.94366455,0.06488037,0.21875,-1.921875,-0.984375
48,-0.3251953,-0.95440674,0.10003662,1.390625,-0.046875,0.015625
49,-0.32763672,-0.9602661,0.06781006,1.015625,1.609375,0.9375
50,-0.3322754,-0.95269775,0.07562256,1.53125,3.8125,0.984375
51,-0.33642578,-0.9649048,0.07489014,2.9375,2.625,1.609375
52,-0.30859375,-0.94122314,0.05609131,0.8125,0.578125,0.921875
53,-0.30932617,-0.9385376,0.040222168,0.765625,0.0625,0.5625
54,-0.32666016,-0.94732666,0.05682373,0.453125,0.640625,0.515625
55,-0.3076172,-0.9505005,0.05731201,0.453125,0.453125,0.078125
56,-0.3022461,-0.94537354,0.05999756,0.34375,0.03125,0.984375
57,-0.3244629,-0.9458618,0.0524292,-0.5,-0.71875,0.109375
58,-0.31201172,-0.94488525,0.06463623,1.140625,-0.875,0.078125
59,-0.29833984,-0.93463135,0.039245605,-1.03125,-1.046875,-0.0625
60,-0.3125,-0.9331665,0.04876709,-0.359375,-2.78125,0.203125
61,-0.2890625,-0.9302368,0.03729248,-1.4375,-1.75,-0.46875
62,-0.3244629,-0.9512329,0.055847168,-0.546875,-2.78125,-0.328125
63,-0.3178711,-0.9380493,0.046325684,-2.140625,-3.953125,-0.625
64,-0.30419922,-0.93096924,0.06781006,-2.078125,-4.421875,-1.8125
65,-0.33398438,-0.9651489,0.08123779,-1.484375,-2.765625,-1.359375
66,-0.3359375,-0.95269775,0.06903076,-0.484375,-1.5625,-0.8125
67,-0.31420898,-0.940979,0.054626465,-0.625,-1.734375,-0.6875
68,-0.31567383,-0.9429321,0.06121826,-0.875,-1.984375,-0.703125
69,-0.32861328,-0.96173096,0.06488037,-0.25,-2.453125,-0.265625
70,-0.3227539,-0.954895,0.06072998,-0.984375,-1.546875,0.28125
71,-0.31982422,-0.94122314,0.061462402,-1.3125,0.59375,-0.15625
72,-0.33813477,-0.95391846,0.07879639,0.0,3.28125,0.28125
73,-0.34423828,-0.9651489,0.09564209,1.515625,4.484375,0.953125
74,-0.3244629,-0.9463501,0.059509277,0.53125,2.34375,0.890625
75,-0.30395508,-0.94317627,0.058288574,2.40625,2.78125,0.765625
76,-0.31640625,-0.94854736,0.05999756,2.53125,2.453125,0.59375
77,-0.3400879,-0.95440674,0.03338623,2.171875,1.328125,0.859375
78,-0.3005371,-0.93756104,0.08001709,2.84375,-0.09375,0.390625
79,-0.30639648,-0.93096924,0.044128418,-0.484375,0.859375,0.5
80,-0.3413086,-0.956604,0.06829834,0.609375,-0.046875,0.15625
81,-0.31225586,-0.9483032,0.050964355,-0.578125,-0.3125,0.5
82,-0.2998047,-0.9336548,0.049743652,-0.359375,-0.734375,0.203125
83,-0.31420898,-0.93829346,0.046569824,-0.515625,-2.1875,0.328125
84,-0.31884766,-0.94610596,0.054626465,0.015625,-2.625,0.125
85,-0.30297852,-0.9229126,0.048034668,-2.28125,-2.390625,-0.734375
86,-0.3244629,-0.94000244,0.054138184,-1.65625,-3.375,-0.59375
87,-0.3317871,-0.954895,0.070007324,-1.0625,-2.640625,-0.046875
88,-0.31176758,-0.94488525,0.06341553,-1.78125,-2.265625,-0.828125
89,-0.3371582,-0.9378052,0.055847168,-1.4375,-2.578125,-0.4375
90,-0.32788086,-0.9326782,0.0692749,-1.78125,-3.09375,-1.21875
91,-0.31860352,-0.93463135,0.07244873,-1.15625,-2.875,-1.71875
92,-0.33374023,-0.95391846,0.06854248,-0.15625,-2.328125,-0.859375
93,-0.33544922,-0.95025635,0.06878662,-0.6875,-2.03125,-0.5625
94,-0.3347168,-0.94317627,0.074645996,-0.515625,-1.984375,-0.015625
95,-0.31884766,-0.9517212,0.06585693,-1.109375,0.703125,0.25
96,-0.35913086,-0.9656372,0.077819824,-0.328125,2.125,1.375
97,-0.3347168,-0.94903564,0.07635498,-0.625,1.59375,0.90625
98,-0.33984375,-0.94317627,0.081726074,0.28125,1.421875,1.90625
99,-0.31982422,-0.942688,0.059265137,0.0,1.109375,0.46875
100,-0.31860352,-0.9312134,0.07244873,0.375,0.640625,0.875
101,-0.3203125,-0.94488525,0.061462402,0.21875,0.859375,1.171875
102,-0.34106445,-0.9470825,0.08270264,0.640625,0.3125,0.859375
103,-0.3232422,-0.9446411,0.08392334,0.015625,1.4375,0.609375
104,-0.328125,-0.9451294,0.05609131,-0.34375,0.25,0.859375
105,-0.30541992,-0.92926025,0.06097412,-0.359375,-1.046875,0.0625
106,-0.31982422,-0.93414307,0.06414795,0.15625,-1.296875,0.28125
107,-0.31835938,-0.93414307,0.06512451,-0.5,-2.125,-0.078125
108,-0.31201172,-0.9336548,0.05999756,-1.53125,-2.421875,-0.53125
109,-0.31152344,-0.928772,0.057800293,-1.296875,-2.71875,-1.15625
110,-0.32641602,-0.94366455,0.08099365,-0.453125,-3.015625,-0.9375
111,-0.3269043,-0.9529419,0.09124756,-0.03125,-1.640625,-0.734375
112,-0.32958984,-0.94317627,0.0848999,-0.171875,-1.921875,-0.984375
113,-0.32348633,-0.93585205,0.066101074,-1.171875,-1.484375,-1.046875
114,-0.33666992,-0.9602661,0.07977295,1.109375,-2.5,0.171875
115,-0.3154297,-0.93707275,0.06561279,-1.546875,-0.984375,-0.546875
116,-0.34692383,-0.9456177,0.08026123,-0.34375,-1.609375,0.3125
117,-0.33081055,-0.9470825,0.086120605,-0.921875,-0.5,0.296875
118,-0.32910156,-0.9517212,0.09124756,-0.59375,2.125,0.640625
119,-0.3486328,-0.95269775,0.07122803,-1.0,1.796875,1.109375
120,-0.33642578,-0.9573364,0.090270996,0.875,1.4375,1.6875
121,-0.31860352,-0.93414307,0.08270264,-0.078125,1.96875,0.84375
122,-0.3347168,-0.94073486,0.082458496,0.109375,2.46875,1.296875
123,-0.33325195,-0.9517212,0.07562256,-0.328125,1.890625,1.0625
124,-0.32250977,-0.940979,0.078308105,-0.265625,1.453125,0.484375
125,-0.3251953,-0.9380493,0.086120605,0.125,1.0625,0.171875
126,-0.31567383,-0.9458618,0.08782959,0.171875,1.21875,0.171875
127,-0.30908203,-0.94659424,0.07733154,0.6875,0.828125,0.75
128,-0.32739258,-0.93756104,0.07733154,0.71875,0.078125,0.46875
129,-0.31274414,-0.93878174,0.07659912,1.109375,-0.6875,0.453125
130,-0.31835938,-0.9265747,0.06903076,0.484375,-1.078125,0.109375
131,-0.3154297,-0.93341064,0.07147217,0.1875,-0.921875,0.015625
132,-0.30395508,-0.9324341,0.081970215,1.046875,-1.1875,-0.421875
133,-0.33447266,-0.9517212,0.06439209,-0.1875,-1.140625,0.515625
134,-0.31518555,-0.9397583,0.0836792,-0.203125,-1.4375,-0.515625
135,-0.32788086,-0.94610596,0.08660889,0.515625,-0.921875,0.5625
136,-0.32421875,-0.9451294,0.078308105,-0.375,-1.84375,-0.34375
137,-0.3293457,-0.940979,0.08294678,-1.171875,-1.9375,-0.625
138,-0.3293457,-0.9456177,0.07366943,-1.5,-2.34375,-0.375
139,-0.32983398,-0.9451294,0.07952881,-0.703125,-2.5625,-0.140625
140,-0.3125,-0.9456177,0.07952881,-0.8125,-1.0625,-0.078125
141,-0.33691406,-0.9573364,0.08758545,0.1875,1.59375,-0.109375
142,-0.34179688,-0.95684814,0.09197998,0.34375,1.5625,0.65625
143,-0.32958984,-0.95440674,0.07733154,0.34375,1.15625,0.609375
144,-0.32373047,-0.944397,0.08807373,0.578125,1.671875,0.609375
145,-0.32958984,-0.944397,0.08148193,0.796875,2.125,0.953125
146,-0.3256836,-0.9434204,0.07318115,0.703125,1.765625,0.96875
147,-0.31713867,-0.94903564,0.07952881,0.875,0.8125,0.625
148,-0.32836914,-0.93878174,0.08416748,0.84375,0.40625,0.8125
149,-0.3244629,-0.9404907,0.0848999,0.3125,1.0,0.421875
150,-0.32080078,-0.94659424,0.07757568,1.328125,0.859375,0.65625
151,-0.3112793,-0.9338989,0.0758667,1.828125,-1.125,0.3125
152,-0.31518555,-0.9404907,0.0524292,-0.078125,-0.5625,0.375
153,-0.3125,-0.9385376,0.061462402,0.609375,-1.1875,0.234375
154,-0.30322266,-0.9468384,0.06854248,0.78125,-0.875,0.265625
155,-0.31958008,-0.94244385,0.061950684,0.03125,-2.0625,-0.25
156,-0.32617188,-0.95928955,0.07757568,0.390625,-1.90625,0.21875
157,-0.32592773,-0.95025635,0.0758667,-0.671875,-2.0625,0.125
158,-0.32861328,-0.9446411,0.07220459,-0.875,-1.921875,0.0
159,-0.32373047,-0.93756104,0.06878662,-1.40625,-2.53125,-0.015625
160,-0.31982422,-0.93707275,0.07635498,-0.578125,-2.0625,0.015625
161,-0.33422852,-0.94488525,0.07513428,-0.875,-2.796875,-0.359375
162,-0.3232422,-0.94415283,0.07122803,-1.09375,-2.3125,-0.6875
163,-0.30810547,-0.94000244,0.039978027,-1.078125,-1.8125,-0.453125
164,-0.3125,-0.9512329,0.047058105,-0.84375,-2.421875,-0.125
165,-0.31347656,-0.95635986,0.058288574,-0.4375,-1.796875,0.15625
166,-0.31762695,-0.9421997,0.04876709,-0.890625,-1.59375,-0.203125
167,-0.33276367,-0.9463501,0.051208496,-0.734375,-1.890625,0.203125
168,-0.3190918,-0.94732666,0.049987793,-0.953125,-2.390625,0.015625
169,-0.31567383,-0.9380493,0.050231934,-1.25,-3.40625,-0.203125
170,-0.32177734,-0.944397,0.06121826,-1.921875,-2.90625,-0.078125
171,-0.33911133,-0.9480591,0.073913574,-1.234375,-3.0625,-0.34375
172,-0.32666016,-0.956604,0.06488037,-1.96875,1.171875,-0.65625
173,-0.34423828,-0.9727173,0.09124756,-0.96875,2.109375,0.21875
174,-0.32104492,-0.94195557,0.0524292,-2.5625,1.015625,0.390625
175,-0.3244629,-0.9397583,0.07220459,-0.25,0.515625,1.1875
176,-0.32641602,-0.95025635,0.070007324,-0.828125,0.703125,0.921875
177,-0.3310547,-0.94610596,0.066833496,-0.359375,1.203125,0.90625
178,-0.3190918,-0.9546509,0.0680542,0.140625,0.5625,0.671875
179,-0.32788086,-0.94366455,0.081726074,0.484375,0.71875,0.609375
180,-0.30786133,-0.93878174,0.06512451,-0.609375,0.515625,0.375
181,-0.32861328,-0.94122314,0.0680542,-0.421875,0.328125,0.0625
182,-0.31030273,-0.94317627,0.06097412,-1.734375,-0.09375,0.1875
183,-0.28735352,-0.9439087,0.06097412,-1.15625,-1.421875,1.0
184,-0.3215332,-0.9356079,0.062438965,-0.390625,-2.71875,0.265625
185,-0.3161621,-0.93634033,0.05731201,0.03125,-1.78125,0.53125
186,-0.30151367,-0.9390259,0.06512451,-0.453125,-1.640625,0.09375
187,-0.31958008,-0.94854736,0.070739746,-0.109375,-2.59375,0.28125
188,-0.3149414,-0.94366455,0.07342529,-0.40625,-2.53125,0.484375
189,-0.32421875,-0.9456177,0.07635498,-1.375,-2.4375,-0.09375
190,-0.32250977,-0.9421997,0.08001709,-0.890625,-2.296875,0.0
191,-0.30639648,-0.95025635,0.06048584,-1.515625,-1.546875,-0.375
192,-0.328125,-0.9458618,0.086120605,-0.015625,-3.25,0.328125
193,-0.30249023,-0.94415283,0.066101074,-1.5625,-0.59375,-0.515625
194,-0.33740234,-0.95196533,0.08538818,0.265625,0.125,0.265625
195,-0.33129883,-0.95562744,0.08270264,-0.09375,1.296875,0.796875
196,-0.3244629,-0.9590454,0.09515381,0.1875,2.859375,0.375
197,-0.3334961,-0.9553833,0.07147217,-0.125,1.859375,1.0625
198,-0.31225586,-0.9365845,0.086120605,0.578125,1.46875,0.59375
199,-0.31420898,-0.95098877,0.07635498,-0.140625,1.828125,0.515625
200,-0.32543945,-0.94488525,0.07489014,0.109375,1.734375,0.65625
201,-0.31933594,-0.95098877,0.08148193,1.046875,1.640625,0.984375
202,-0.29345703,-0.9512329,0.07757568,1.078125,0.75,1.171875
203,-0.3125,-0.9480591,0.07293701,0.703125,0.71875,0.875
204,-0.3076172,-0.9507446,0.07293701,1.0625,-0.015625,0.59375
205,-0.30029297,-0.94366455,0.06732178,0.375,-0.765625,0.84375
206,-0.30419922,-0.9368286,0.06121826,0.15625,-1.21875,0.265625
207,-0.30004883,-0.9319458,0.06951904,-0.171875,-1.40625,0.078125
208,-0.30639648,-0.94122314,0.06463623,-0.15625,-1.28125,-0.453125
209,-0.31518555,-0.94903564,0.07171631,0.125,-1.953125,-0.0625
210,-0.32177734,-0.94610596,0.078063965,0.265625,-1.984375,0.015625
211,-0.3154297,-0.94317627,0.094177246,0.0625,-2.359375,-0.125
212,-0.31347656,-0.94781494,0.049743652,-2.078125,-1.34375,-0.265625
213,-0.31689453,-0.9417114,0.070251465,-0.9375,-2.40625,-0.84375
214,-0.32055664,-0.94366455,0.08831787,-1.296875,-1.796875,-0.515625
215,-0.32080078,-0.9456177,0.0848999,-1.125,-1.625,-1.0625
216,-0.31762695,-0.9500122,0.08123779,-0.0625,-0.484375,-0.171875
217,-0.31982422,-0.9585571,0.08123779,-0.1875,1.109375,0.0625
218,-0.33935547,-0.9673462,0.09320068,0.59375,2.328125,0.28125
219,-0.3256836,-0.9536743,0.07904053,-0.40625,2.109375,0.265625
220,-0.32421875,-0.9500122,0.101501465,0.984375,2.875,0.359375
221,-0.31176758,-0.93951416,0.07244873,0.375,2.921875,0.453125
222,-0.31762695,-0.940979,0.070007324,1.609375,1.0,0.734375
223,-0.30981445,-0.94415283,0.08660889,1.234375,0.640625,0.59375
224,-0.31347656,-0.9561157,0.086120605,0.90625,1.1875,0.75
225,-0.31982422,-0.94732666,0.07928467,-0.5,0.203125,0.6875
226,-0.31079102,-0.93927,0.0692749,0.28125,-0.265625,0.34375
227,-0.30810547,-0.9365845,0.078063965,0.328125,-0.640625,0.734375
228,-0.30322266,-0.93829346,0.06536865,-0.203125,-1.40625,0.84375
229,-0.30737305,-0.9360962,0.0692749,-0.15625,-2.078125,0.296875
230,-0.3022461,-0.9373169,0.07513428,0.078125,-1.4375,0.40625
231,-0.30786133,-0.9458618,0.08099365,0.703125,-2.484375,-0.21875
232,-0.32226562,-0.94195557,0.05706787,-1.453125,-3.171875,0.328125
233,-0.3125,-0.942688,0.07635498,-0.6875,-3.1875,-0.734375
234,-0.30639648,-0.9517212,0.07904053,1.390625,-1.53125,0.140625
235,-0.33007812,-0.9483032,0.08123779,-0.15625,-1.296875,-0.6875
236,-0.31225586,-0.9500122,0.070251465,-0.453125,-2.03125,-1.328125
237,-0.31079102,-0.9390259,0.066345215,-0.875,-1.25,-0.890625
238,-0.3244629,-0.9534302,0.07171631,-0.421875,-1.609375,-0.75
239,-0.3137207,-0.9495239,0.07879639,-0.84375,-0.75,-0.8125
240,-0.3334961,-0.95684814,0.09613037,0.40625,2.625,-0.046875
241,-0.35253906,-0.9680786,0.089782715,0.03125,3.296875,0.296875
242,-0.32348633,-0.95391846,0.07659912,0.1875,1.703125,0.890625
243,-0.30004883,-0.92388916,0.07269287,0.078125,0.90625,0.0
244,-0.3256836,-0.94976807,0.07513428,0.265625,1.28125,0.8125
245,-0.3256836,-0.95440674,0.078308105,0.65625,1.34375,0.8125
246,-0.31591797,-0.9451294,0.08001709,0.640625,0.4375,0.296875
247,-0.31933594,-0.940979,0.074157715,0.140625,0.328125,0.3125
248,-0.3137207,-0.9434204,0.08074951,-0.125,-0.75,0.15625
249,-0.3125,-0.9324341,0.066833496,-0.34375,-1.0625,0.09375
250,-0.32104492,-0.9468384,0.077819824,0.578125,-1.453125,0.265625
251,-0.2980957,-0.9348755,0.059753418,-1.03125,-1.609375,-0.359375
252,-0.3076172,-0.9360962,0.07562256,-0.546875,-1.78125,0.015625
253,-0.31347656,-0.9380493,0.07196045,-1.015625,-1.09375,-1.09375
254,-0.33666992,-0.9421997,0.085632324,0.25,-2.3125,-0.640625
255,-0.32910156,-0.93292236,0.082214355,-1.359375,-3.4375,-1.75
256,-0.3269043,-0.9429321,0.09197998,-0.390625,-1.6875,-1.03125
257,-0.3425293,-0.9578247,0.074645996,-0.671875,-1.9375,-0.484375
258,-0.33129883,-0.9451294,0.08392334,-0.484375,-1.65625,-0.765625
259,-0.32788086,-0.9417114,0.07537842,-0.390625,-2.0625,-0.84375
260,-0.33447266,-0.9373169,0.08099365,-1.125,-1.71875,-0.765625
261,-0.34277344,-0.94317627,0.09320068,-0.328125,-0.859375,-0.171875
262,-0.34179688,-0.94488525,0.082214355,-0.234375,-0.546875,-0.1875
263,-0.32861328,-0.9451294,0.07879639,0.140625,0.5625,0.171875
264,-0.33276367,-0.94488525,0.08441162,0.546875,1.625,0.765625
265,-0.34692383,-0.95758057,0.10272217,1.640625,3.4375,0.984375
266,-0.34716797,-0.9624634,0.10247803,1.71875,4.703125,1.6875
267,-0.32861328,-0.9299927,0.06341553,0.171875,1.78125,1.515625
268,-0.32666016,-0.93170166,0.0758667,-0.1875,0.46875,1.15625
269,-0.3239746,-0.9429321,0.081726074,0.28125,-0.875,1.015625
270,-0.32861328,-0.9360962,0.07098389,0.734375,0.421875,1.265625
271,-0.33129883,-0.95098877,0.09881592,1.578125,-0.109375,1.078125
272,-0.32055664,-0.94317627,0.066345215,-1.46875,-0.578125,0.453125
273,-0.32104492,-0.93951416,0.08123779,0.296875,-1.234375,0.65625
274,-0.30932617,-0.9439087,0.0680542,-0.328125,-0.953125,-0.15625
275,-0.3330078,-0.93707275,0.09564209,0.3125,-1.9375,0.203125
276,-0.3112793,-0.927063,0.070251465,-0.5,-1.546875,-0.8125
277,-0.32592773,-0.9348755,0.07611084,-0.203125,-1.390625,-0.875
278,-0.3293457,-0.94732666,0.078063965,-0.046875,-2.5,-0.328125
279,-0.3269043,-0.93927,0.09197998,-0.640625,-2.4375,-0.796875
280,-0.33081055,-0.93634033,0.07879639,-0.875,-1.78125,-0.546875
281,-0.34448242,-0.94195557,0.08123779,-1.15625,-2.203125,-1.140625
282,-0.34057617,-0.94317627,0.09320068,-0.953125,-2.59375,-0.796875
283,-0.3232422,-0.9446411,0.08050537,0.15625,-1.828125,-0.25
284,-0.3244629,-0.93878174,0.07879639,-0.421875,-0.625,-0.015625
285,-0.34106445,-0.9451294,0.08074951,-0.078125,0.0,0.140625
286,-0.34057617,-0.9517212,0.09197998,0.609375,1.640625,0.515625
287,-0.34228516,-0.9546509,0.08465576,0.0,3.328125,1.03125
288,-0.33764648,-0.9492798,0.08929443,0.453125,2.390625,1.171875
289,-0.32299805,-0.94122314,0.078308105,0.203125,2.59375,1.140625
290,-0.3305664,-0.9368286,0.08001709,0.09375,1.875,0.984375
291,-0.32226562,-0.93878174,0.085632324,0.84375,0.9375,0.578125
292,-0.34814453,-0.9570923,0.07366943,4.953125,1.0,0.625
293,-0.31860352,-0.92388916,0.05706787,0.8125,0.671875,0.484375
294,-0.27416992,-0.94366455,0.070739746,3.390625,-0.265625,2.390625
295,-0.31567383,-0.9314575,0.0524292,1.078125,-0.25,1.0625
296,-0.32836914,-0.9507446,0.06903076,1.609375,-1.09375,1.34375
297,-0.30322266,-0.9324341,0.047058105,0.46875,-1.671875,0.40625
298,-0.30981445,-0.9299927,0.05218506,-0.203125,-1.015625,0.09375
299,-0.32470703,-0.96221924,0.059020996,-0.453125,-1.734375,-0.328125
300,-0.33374023,-0.94073486,0.07659912,-0.3125,-2.4375,0.375
301,-0.3149414,-0.93951416,0.06829834,-1.34375,-2.6875,-0.078125
302,-0.32592773,-0.9421997,0.06341553,-1.578125,-1.734375,-0.5
303,-0.3388672,-0.9529419,0.07513428,-0.625,-1.40625,0.171875
304,-0.3232422,-0.94073486,0.06585693,-0.875,-2.140625,-0.265625
305,-0.31420898,-0.93927,0.066345215,-0.609375,-2.21875,-0.484375
306,-0.32104492,-0.94781494,0.06878662,-0.546875,-2.296875,-0.234375
307,-0.34179688,-0.9546509,0.0758667,-1.078125,-1.703125,-0.25
308,-0.33129883,-0.94610596,0.07366943,-1.5,-0.515625,-0.78125
309,-0.32617188,-0.940979,0.0848999,-0.71875,0.890625,0.0625
310,-0.33398438,-0.9570923,0.089782715,-0.3125,2.125,0.34375
311,-0.34423828,-0.95758057,0.08026123,-0.34375,2.1875,0.40625
312,-0.31958008,-0.9397583,0.08148193,0.125,2.546875,0.53125
313,-0.33007812,-0.9390259,0.08294678,1.328125,2.15625,1.03125
314,-0.32104492,-0.93951416,0.058776855,-0.390625,0.953125,0.421875
315,-0.31982422,-0.9553833,0.08343506,0.59375,0.40625,0.640625
316,-0.32226562,-0.9429321,0.070739746,-0.21875,1.09375,0.1875
317,-0.3383789,-0.9463501,0.09661865,0.375,0.46875,0.625
318,-0.30859375,-0.93829346,0.07196045,-0.296875,-1.03125,0.328125
319,-0.3166504,-0.9307251,0.07318115,0.078125,-1.140625,0.1875
320,-0.33154297,-0.9380493,0.07098389,-0.71875,-1.75,0.171875
321,-0.31713867,-0.93341064,0.08294678,0.1875,-1.515625,-0.09375
322,-0.31420898,-0.9326782,0.06048584,-1.703125,-1.71875,-0.625
323,-0.33666992,-0.9417114,0.08123779,-0.09375,-1.640625,-0.40625
324,-0.33007812,-0.95318604,0.0848999,-0.4375,-2.484375,-0.265625
325,-0.3239746,-0.93927,0.08856201,-1.5,-2.1875,-0.53125
326,-0.33154297,-0.94000244,0.08441162,-1.421875,-1.828125,-0.75
327,-0.33984375,-0.93878174,0.09197998,-1.515625,-1.953125,-0.5
328,-0.32666016,-0.94244385,0.08270264,-0.828125,-2.234375,-0.265625
329,-0.33032227,-0.9417114,0.0770874,-0.296875,-1.890625,-0.5
330,-0.3330078,-0.94659424,0.08343506,0.515625,-0.828125,-0.046875
331,-0.3347168,-0.9483032,0.105651855,0.953125,2.21875,0.375
332,-0.34643555,-0.9636841,0.08319092,0.0625,2.953125,0.484375
333,-0.3408203,-0.94976807,0.081970215,0.546875,1.59375,0.671875
334,-0.3232422,-0.9390259,0.101501465,1.03125,1.8125,0.671875
335,-0.3293457,-0.93585205,0.086364746,1.953125,2.078125,0.78125
336,-0.33203125,-0.9451294,0.06439209,-0.203125,1.78125,0.78125
337,-0.33813477,-0.9500122,0.09124756,1.0,0.84375,0.375
338,-0.33398438,-0.94073486,0.08807373,0.375,0.671875,0.953125
339,-0.3173828,-0.93218994,0.081970215,-0.265625,0.75,0.1875
340,-0.32910156,-0.9439087,0.0770874,0.875,0.03125,0.671875
341,-0.32055664,-0.944397,0.070739746,0.734375,-0.15625,0.984375
342,-0.3293457,-0.94610596,0.07684326,1.8125,-1.25,0.890625
343,-0.31274414,-0.92437744,0.06439209,0.421875,-0.6875,0.71875
344,-0.31958008,-0.9351196,0.06781006,0.546875,-1.65625,0.640625
345,-0.31518555,-0.93585205,0.06561279,-0.09375,-1.984375,0.015625
346,-0.32080078,-0.9421997,0.08026123,0.546875,-1.921875,0.484375
347,-0.33569336,-0.9475708,0.07879639,0.265625,-1.984375,0.421875
348,-0.33544922,-0.9475708,0.0758667,-0.578125,-2.0,0.1875
349,-0.32983398,-0.9360962,0.07122803,-0.484375,-1.796875,0.046875
350,-0.32739258,-0.94415283,0.07342529,-0.828125,-2.046875,-0.21875
351,-0.32421875,-0.9417114,0.07342529,-1.234375,-3.0,-0.28125
352,-0.32250977,-0.94610596,0.08465576,-0.765625,-2.671875,-0.5
353,-0.32641602,-0.960022,0.07659912,-0.515625,0.078125,0.171875
354,-0.33984375,-0.956604,0.07757568,0.09375,1.390625,0.265625
355,-0.3256836,-0.9429321,0.09906006,0.703125,1.921875,0.265625
356,-0.3408203,-0.9421997,0.07513428,-1.140625,0.984375,0.734375
357,-0.31689453,-0.93463135,0.07977295,-0.65625,1.125,-0.546875
358,-0.34960938,-0.96295166,0.09075928,1.234375,2.15625,0.78125
359,-0.32861328,-0.94317627,0.07293701,0.0625,1.71875,-0.0625
360,-0.3071289,-0.9380493,0.07904053,0.34375,1.09375,-0.046875
361,-0.31982422,-0.9534302,0.078552246,-0.09375,0.078125,0.3125
362,-0.33251953,-0.9458618,0.078308105,0.515625,-0.34375,0.21875
363,-0.3088379,-0.9336548,0.07366943,-0.765625,-0.328125,-0.3125
364,-0.3227539,-0.9365845,0.08050537,0.171875,-1.328125,0.078125
365,-0.31982422,-0.9402466,0.06903076,-0.203125,-1.921875,0.140625
366,-0.3112793,-0.9351196,0.07611084,-0.515625,-1.265625,-0.046875
367,-0.32177734,-0.93878174,0.070495605,-0.21875,-1.09375,0.046875
368,-0.328125,-0.9470825,0.078552246,0.40625,-1.421875,0.046875
369,-0.31982422,-0.93634033,0.074645996,0.03125,-2.59375,0.09375
370,-0.32836914,-0.94073486,0.078552246,-0.546875,-2.265625,0.328125
371,-0.32373047,-0.9365845,0.073913574,-0.65625,-2.453125,0.109375
372,-0.33447266,-0.9505005,0.093444824,0.0,-1.65625,0.171875
373,-0.32763672,-0.9470825,0.07952881,0.0,-1.09375,0.34375
374,-0.3310547,-0.9451294,0.07562256,0.59375,-1.390625,0.515625
375,-0.32495117,-0.93878174,0.07659912,-1.0,-0.90625,0.109375
376,-0.33520508,-0.9468384,0.07611084,-0.734375,-1.5,0.5
377,-0.32006836,-0.94195557,0.077819824,-1.21875,0.796875,-0.46875
378,-0.3503418,-0.96173096,0.10809326,1.046875,2.515625,0.546875
379,-0.3449707,-0.95977783,0.09442139,-0.046875,2.390625,0.0625
380,-0.31469727,-0.93414307,0.08343506,0.234375,1.8125,-0.0625
381,-0.3244629,-0.94366455,0.08319092,-0.59375,1.265625,-0.203125
382,-0.33935547,-0.9578247,0.09173584,1.765625,1.0,-0.234375
383,-0.30859375,-0.93829346,0.08001709,1.359375,1.421875,0.171875
384,-0.32885742,-0.9397583,0.07366943,1.171875,1.46875,0.328125
385,-0.33764648,-0.94317627,0.08294678,0.546875,0.21875,0.1875
386,-0.3244629,-0.9368286,0.07635498,0.109375,-0.5,-0.125
387,-0.32470703,-0.9336548,0.070007324,-0.171875,-0.671875,0.09375
388,-0.32983398,-0.9338989,0.07611084,-0.0625,-1.546875,-0.0625
389,-0.31713867,-0.9368286,0.074401855,-0.390625,-2.34375,0.125
390,-0.3166504,-0.9326782,0.066589355,-0.734375,-1.78125,-0.25
391,-0.32983398,-0.9417114,0.07196045,-0.390625,-2.28125,-0.4375
392,-0.33374023,-0.94122314,0.085876465,-0.515625,-3.109375,-0.0625
393,-0.32885742,-0.94317627,0.08831787,-0.34375,-2.21875,-0.0625
394,-0.3371582,-0.940979,0.07757568,-0.96875,-1.40625,-0.25
395,-0.33374023,-0.93927,0.07489014,-1.109375,-1.78125,-0.3125
396,-0.3310547,-0.93536377,0.09979248,-0.09375,-2.296875,-0.515625
397,-0.33618164,-0.94244385,0.06365967,-1.75,-1.6875,-0.53125
398,-0.3479004,-0.94073486,0.08050537,-1.515625,-1.78125,-0.59375
399,-0.34960938,-0.9512329,0.09637451,0.625,0.390625,0.140625
400,-0.34057617,-0.9505005,0.09197998,0.796875,1.71875,0.5625
401,-0.34301758,-0.9534302,0.109558105,0.765625,2.84375,0.78125
402,-0.35668945,-0.9475708,0.08148193,0.015625,1.46875,0.890625
403,-0.32250977,-0.94000244,0.08441162,0.15625,0.703125,0.796875
404,-0.32666016,-0.94659424,0.08294678,0.328125,1.671875,0.4375
405,-0.33935547,-0.94610596,0.081970215,0.953125,2.046875,1.03125
406,-0.3256836,-0.9475708,0.08538818,1.265625,1.3125,0.765625
407,-0.31518555,-0.93756104,0.0758667,0.96875,0.453125,1.1875
408,-0.32836914,-0.94366455,0.082458496,0.28125,0.28125,0.921875
409,-0.33203125,-0.9404907,0.078308105,0.25,0.015625,0.578125
410,-0.31396484,-0.9331665,0.074157715,0.265625,-1.171875,0.6875
411,-0.3190918,-0.9365845,0.07293701,-0.4375,-1.84375,0.234375
412,-0.3166504,-0.93536377,0.07513428,-0.6875,-1.546875,-0.03125
413,-0.32177734,-0.9360962,0.07611084,-0.234375,-1.328125,-0.1875
414,-0.3293457,-0.9434204,0.08001709,-0.03125,-2.203125,-0.203125
415,-0.3310547,-0.93536377,0.09222412,0.109375,-3.171875,0.015625
416,-0.32348633,-0.9331665,0.07977295,-2.109375,-2.71875,-0.53125
417,-0.34594727,-0.95025635,0.09100342,-1.046875,-3.3125,0.109375
418,-0.32128906,-0.9312134,0.07269287,-2.5,-2.484375,-1.0
419,-0.35058594,-0.9373169,0.10003662,-0.71875,-3.578125,-0.28125
420,-0.33813477,-0.9505005,0.08148193,-1.234375,-3.3125,-1.109375
421,-0.32495117,-0.9343872,0.09246826,-0.859375,-1.0,-0.546875
422,-0.34814453,-0.94073486,0.08905029,-0.5,-0.671875,0.0
423,-0.33691406,-0.94317627,0.10247803,0.375,0.171875,-0.375
424,-0.3383789,-0.95318604,0.09246826,0.421875,1.171875,0.265625
425,-0.34204102,-0.94781494,0.10296631,0.5,3.375,0.484375
426,-0.35473633,-0.9651489,0.1083374,1.546875,4.28125,1.671875
427,-0.3239746,-0.928772,0.07098389,-0.203125,1.75,1.125
428,-0.32470703,-0.9258423,0.08148193,1.140625,0.3125,0.734375
429,-0.33618164,-0.9456177,0.08734131,1.03125,0.546875,0.90625
430,-0.3293457,-0.94781494,0.0836792,0.78125,0.78125,0.71875
431,-0.32250977,-0.94488525,0.08001709,0.71875,-0.203125,0.875
432,-0.3305664,-0.94366455,0.078308105,0.015625,-0.234375,0.90625
433,-0.32836914,-0.9365845,0.082458496,0.015625,-0.875,0.46875
434,-0.3227539,-0.9338989,0.0758667,-0.734375,-1.265625,0.46875
435,-0.32739258,-0.9290161,0.07684326,-0.734375,-2.09375,-0.0625
436,-0.31567383,-0.93096924,0.073913574,-0.625,-1.28125,-0.296875
437,-0.32958984,-0.9470825,0.08905029,0.5625,-2.28125,-0.484375
438,-0.32495117,-0.9390259,0.07611084,-1.234375,-1.65625,-0.40625
439,-0.34326172,-0.93756104,0.09320068,-0.515625,-2.703125,-0.5
440,-0.33642578,-0.9500122,0.093444824,-0.578125,-2.5,-0.125
441,-0.34204102,-0.9402466,0.09222412,-1.484375,-2.5625,-0.71875
442,-0.3425293,-0.94195557,0.086364746,-1.453125,-2.640625,-0.953125
443,-0.3408203,-0.93829346,0.082458496,-1.4375,-3.171875,-0.84375
444,-0.3400879,-0.9463501,0.09613037,-0.703125,-2.078125,-0.765625
445,-0.33032227,-0.94415283,0.09075928,-0.703125,-1.078125,-0.828125
446,-0.34985352,-0.95562744,0.1071167,1.0,1.71875,0.15625
447,-0.35595703,-0.94903564,0.10394287,0.75,2.640625,0.46875
448,-0.34985352,-0.94903564,0.10443115,0.8125,2.125,0.859375
449,-0.3334961,-0.93048096,0.086120605,0.359375,0.78125,0.703125
450,-0.33935547,-0.9421997,0.10076904,0.921875,1.765625,0.875
451,-0.3425293,-0.95025635,0.08856201,-0.1875,0.859375,1.0625
452,-0.32836914,-0.93951416,0.08392334,0.5625,0.796875,0.390625
453,-0.3322754,-0.9385376,0.08880615,1.765625,0.6875,0.96875
454,-0.33032227,-0.94000244,0.06512451,0.09375,0.734375,0.75
455,-0.32128906,-0.92755127,0.085632324,0.484375,-0.125,0.609375
456,-0.3408203,-0.9351196,0.089538574,0.8125,-0.21875,0.703125
457,-0.33032227,-0.93707275,0.09857178,1.078125,-1.859375,-0.140625
458,-0.32128906,-0.923645,0.06048584,-1.40625,-1.59375,-0.359375
459,-0.34204102,-0.93756104,0.086364746,0.078125,-0.90625,-0.625
460,-0.3359375,-0.9480591,0.07366943,0.03125,-1.40625,-0.671875
461,-0.3305664,-0.928772,0.08416748,-0.625,-2.875,-0.546875
462,-0.3383789,-0.9265747,0.08392334,-0.984375,-3.625,-0.609375
463,-0.34057617,-0.9456177,0.08929443,-1.875,-2.40625,-0.65625
464,-0.3413086,-0.95440674,0.08880615,-1.375,-2.8125,-0.546875
465,-0.33203125,-0.9351196,0.08319092,-1.703125,-2.765625,-0.953125
466,-0.34765625,-0.9348755,0.09100342,-0.625,-2.703125,-0.390625
467,-0.34716797,-0.94537354,0.09075928,-0.765625,-2.484375,-0.328125
468,-0.34155273,-0.944397,0.08538818,-0.578125,-1.734375,-0.015625
469,-0.3408203,-0.93756104,0.0993042,0.21875,-0.140625,0.25
470,-0.34985352,-0.9487915,0.10272217,0.3125,2.171875,0.671875
471,-0.35229492,-0.9553833,0.10003662,0.59375,2.5625,1.0
472,-0.34448242,-0.9446411,0.094177246,1.015625,1.96875,1.640625
473,-0.3334961,-0.92144775,0.089782715,-0.15625,1.109375,1.203125
474,-0.3400879,-0.94000244,0.074157715,0.453125,-0.1875,1.421875
475,-0.3474121,-0.9507446,0.10882568,1.765625,0.359375,1.875
476,-0.32348633,-0.92144775,0.08294678,0.34375,0.203125,0.984375
477,-0.33276367,-0.9402466,0.08319092,-0.375,-1.0,1.671875
478,-0.32373047,-0.9421997,0.08319092,0.21875,-0.859375,1.0625
479,-0.33398438,-0.9475708,0.08416748,1.453125,-0.3125,1.96875
480,-0.31762695,-0.9331665,0.07122803,-0.28125,-1.765625,0.703125
481,-0.32348633,-0.9380493,0.070251465,-0.40625,-3.015625,0.359375
482,-0.32641602,-0.9402466,0.078552246,-0.59375,-2.65625,0.203125
483,-0.33007812,-0.9402466,0.08050537,-0.5,-2.015625,-0.328125
484,-0.32861328,-0.9324341,0.08441162,-1.140625,-2.6875,-0.390625
485,-0.3395996,-0.95025635,0.098083496,0.25,-1.578125,0.25
486,-0.33544922,-0.9414673,0.08465576,-0.34375,-2.0,0.109375
487,-0.3269043,-0.9373169,0.078552246,-0.59375,-1.734375,0.390625
488,-0.33251953,-0.93707275,0.081970215,-0.8125,-2.421875,-0.40625
489,-0.34033203,-0.9397583,0.08758545,-1.09375,-2.703125,-0.34375
490,-0.3479004,-0.940979,0.09588623,-0.796875,-2.484375,-0.859375
491,-0.32861328,-0.9468384,0.08734131,-0.828125,-2.046875,-0.953125
492,-0.3334961,-0.9434204,0.093444824,-0.375,-0.984375,0.5
493,-0.34301758,-0.9558716,0.08734131,-0.21875,1.234375,0.3125
494,-0.35546875,-0.95977783,0.10760498,0.578125,3.625,0.859375
495,-0.35131836,-0.92926025,0.1149292,1.265625,1.203125,1.015625
496,-0.31835938,-0.9180298,0.07293701,-1.109375,1.9375,0.1875
497,-0.34545898,-0.9480591,0.097595215,0.59375,1.3125,1.25
498,-0.34179688,-0.9434204,0.09320068,1.0625,1.171875,1.0625
499,-0.32373047,-0.93756104,0.085876465,0.03125,0.78125,0.9375
500,-0.33007812,-0.9439087,0.09197998,-0.109375,0.375,0.9375
501,-0.33496094,-0.9404907,0.08856201,-0.15625,0.09375,0.671875
502,-0.32666016,-0.944397,0.07879639,0.390625,-0.984375,0.703125
503,-0.31933594,-0.9338989,0.0836792,0.28125,-1.78125,0.1875
504,-0.328125,-0.94366455,0.08685303,0.46875,-2.015625,0.28125
505,-0.31518555,-0.9351196,0.0758667,-0.4375,-1.90625,0.09375
506,-0.3190918,-0.94000244,0.08294678,-0.28125,-2.3125,-0.46875
507,-0.33325195,-0.9534302,0.09442139,-0.140625,-2.828125,0.3125
508,-0.33496094,-0.9463501,0.097839355,-0.40625,-2.4375,0.3125
509,-0.33007812,-0.93829346,0.085632324,-0.984375,-2.0625,0.265625
510,-0.3425293,-0.9336548,0.0914917,-0.640625,-2.09375,0.109375
511,-0.33154297,-0.9468384,0.08660889,-1.546875,-2.875,-0.46875
512,-0.31640625,-0.94195557,0.09075928,-1.21875,-3.0,-0.28125
513,-0.3388672,-0.940979,0.093933105,-1.40625,-0.3125,-0.671875
514,-0.35986328,-0.9529419,0.117614746,1.265625,0.109375,0.53125
515,-0.32763672,-0.9380493,0.07977295,-1.0,3.6875,-0.234375
516,-0.34838867,-0.95880127,0.09906006,1.28125,3.28125,1.0
517,-0.3293457,-0.95025635,0.09613037,1.234375,1.578125,1.25
518,-0.31176758,-0.9248657,0.09515381,1.328125,2.703125,1.171875
519,-0.32836914,-0.95269775,0.07733154,0.984375,1.828125,1.875
520,-0.32983398,-0.9451294,0.101989746,2.40625,2.359375,1.71875
521,-0.3100586,-0.94781494,0.0770874,0.71875,0.890625,0.875
522,-0.32128906,-0.9378052,0.086364746,1.1875,1.359375,1.515625
523,-0.31689453,-0.93341064,0.08148193,1.40625,0.84375,1.15625
524,-0.3112793,-0.94488525,0.07537842,0.5,-1.484375,1.46875
525,-0.30786133,-0.9390259,0.070251465,0.71875,-1.921875,0.78125
526,-0.31201172,-0.93536377,0.078552246,0.1875,-1.515625,0.703125
527,-0.31079102,-0.9522095,0.07757568,0.03125,-1.125,0.421875
528,-0.32006836,-0.9456177,0.07562256,0.25,-1.625,0.46875
529,-0.31103516,-0.9468384,0.07879639,-0.140625,-2.0,0.078125
530,-0.31469727,-0.9487915,0.08685303,-0.6875,-2.390625,0.265625
531,-0.3244629,-0.9492798,0.08856201,-0.625,-1.3125,0.234375
532,-0.3244629,-0.9546509,0.08050537,-0.265625,-1.21875,0.546875
533,-0.30249023,-0.93634033,0.082214355,-0.4375,-0.90625,-0.125
534,-0.3317871,-0.9517212,0.07684326,0.0,-1.34375,0.421875
535,-0.31054688,-0.93756104,0.0770874,-0.796875,-1.53125,-0.5
536,-0.32080078,-0.9500122,0.09100342,1.21875,-0.234375,0.15625
537,-0.31591797,-0.9546509,0.09320068,0.46875,0.703125,-0.171875
538,-0.31152344,-0.9570923,0.08343506,0.640625,1.46875,-0.03125
539,-0.32470703,-0.9595337,0.08685303,0.359375,1.6875,0.265625
540,-0.32104492,-0.95635986,0.08856201,1.125,1.328125,0.515625
541,-0.29833984,-0.9522095,0.082214355,0.625,2.5625,0.171875
542,-0.32177734,-0.95806885,0.082458496,1.109375,2.484375,0.75
543,-0.31054688,-0.9607544,0.0836792,1.34375,1.53125,1.015625
544,-0.2980957,-0.9434204,0.07952881,0.484375,0.578125,0.75
545,-0.31176758,-0.9483032,0.08294678,0.390625,0.6875,0.765625
546,-0.3166504,-0.9439087,0.08294678,-0.21875,0.3125,0.421875
547,-0.30664062,-0.9487915,0.07562256,0.9375,-0.796875,0.484375
548,-0.29370117,-0.94073486,0.06536865,1.40625,-1.421875,0.84375
549,-0.3161621,-0.9343872,0.061950684,0.8125,-1.75,0.546875
550,-0.30419922,-0.9365845,0.074645996,-0.09375,-1.953125,0.359375
551,-0.30249023,-0.9534302,0.07293701,-0.734375,-1.1875,-0.109375
552,-0.32421875,-0.94073486,0.0836792,0.109375,-2.234375,0.21875
553,-0.31103516,-0.9470825,0.07733154,-0.96875,-1.640625,-0.203125
554,-0.31469727,-0.9487915,0.093688965,0.25,-1.890625,0.4375
555,-0.30297852,-0.9373169,0.05706787,-1.59375,-0.875,-0.4375
556,-0.32177734,-0.9505005,0.07684326,0.53125,-1.34375,-0.34375
557,-0.31298828,-0.9463501,0.08099365,0.046875,-1.078125,-0.578125
558,-0.31762695,-0.94073486,0.066833496,-1.046875,-1.578125,-1.140625
559,-0.31689453,-0.9522095,0.08270264,-0.234375,-1.078125,-0.796875
560,-0.32421875,-0.94976807,0.09320068,-0.078125,1.0,-0.546875
561,-0.32495117,-0.95562744,0.08026123,-0.40625,2.078125,-0.109375
562,-0.32055664,-0.9595337,0.09661865,-0.0625,3.5625,-0.109375
563,-0.32861328,-0.9534302,0.09051514,1.1875,2.96875,0.859375
564,-0.30932617,-0.93341064,0.06512451,-0.265625,1.421875,0.484375
565,-0.3173828,-0.9373169,0.08343506,1.171875,1.40625,0.703125
566,-0.31445312,-0.94488525,0.07659912,0.84375,0.890625,0.65625
567,-0.3227539,-0.95635986,0.07171631,0.65625,1.015625,0.484375
568,-0.31225586,-0.94488525,0.07269287,0.3125,0.03125,0.140625
569,-0.31103516,-0.94732666,0.06829834,0.140625,-0.234375,0.046875
570,-0.3161621,-0.94195557,0.073913574,-0.15625,-0.921875,0.046875
571,-0.3166504,-0.94415283,0.078063965,0.25,-1.78125,0.03125
572,-0.30908203,-0.9458618,0.07122803,-0.4375,-1.96875,-0.25
573,-0.3095703,-0.9414673,0.07977295,-0.125,-2.109375,-0.03125
574,-0.30444336,-0.93170166,0.06781006,-0.96875,-1.8125,-0.9375
575,-0.32983398,-0.94854736,0.07293701,-0.78125,-3.53125,-0.078125
576,-0.30395508,-0.9414673,0.07977295,-1.71875,-3.484375,-0.984375
577,-0.33007812,-0.9456177,0.090270996,-0.71875,-3.03125,-0.0625
578,-0.32983398,-0.9492798,0.081726074,-1.953125,-2.4375,-0.828125
579,-0.32373047,-0.94610596,0.078552246,-0.921875,-1.890625,-0.671875
580,-0.32421875,-0.94415283,0.086364746,-0.8125,-2.09375,-0.65625
581,-0.3293457,-0.94781494,0.0914917,-0.359375,-1.59375,-0.625
582,-0.328125,-0.94488525,0.08709717,-0.59375,-1.171875,-0.21875
583,-0.3330078,-0.95025635,0.0927124,-0.203125,0.234375,-0.15625
584,-0.33422852,-0.96466064,0.10638428,0.75,2.78125,0.59375
585,-0.35009766,-0.95806885,0.08514404,-0.46875,3.234375,0.65625
586,-0.32104492,-0.94000244,0.0770874,0.125,0.625,0.65625
587,-0.31274414,-0.9324341,0.090026855,0.515625,1.40625,0.359375
588,-0.33569336,-0.94781494,0.085632324,0.21875,1.828125,1.09375
589,-0.3227539,-0.9529419,0.08538818,0.546875,2.125,0.359375
590,-0.32104492,-0.9487915,0.0848999,0.34375,1.375,0.453125
591,-0.32348633,-0.94122314,0.08782959,-0.03125,0.953125,0.390625
592,-0.3256836,-0.9456177,0.07757568,-0.296875,-0.09375,0.21875
593,-0.3112793,-0.9368286,0.08709717,0.078125,-1.0,0.015625
594,-0.3256836,-0.9360962,0.07879639,0.453125,-1.578125,0.265625
595,-0.3125,-0.94415283,0.0914917,0.4375,-2.25,-0.3125
596,-0.32080078,-0.9314575,0.06854248,-1.65625,-1.15625,-0.53125
597,-0.32666016,-0.9421997,0.082458496,0.0,-1.078125,-0.984375
598,-0.328125,-0.95098877,0.09588623,0.5,-1.375,-0.234375
599,-0.32421875,-0.9302368,0.0927124,-0.875,-2.28125,-0.765625
600,-0.3310547,-0.93927,0.081726074,-0.78125,-2.046875,-0.5
601,-0.33496094,-0.94732666,0.07733154,-0.921875,-2.03125,-0.4375
602,-0.3317871,-0.944397,0.08734131,-0.71875,-2.984375,-0.578125
603,-0.32177734,-0.9338989,0.0836792,-1.4375,-2.640625,-0.921875
604,-0.33496094,-0.9397583,0.09246826,-0.6875,-1.3125,-0.75
605,-0.34155273,-0.9470825,0.09588623,-0.765625,-1.265625,-0.5625
606,-0.33618164,-0.95928955,0.10272217,0.109375,1.453125,0.078125
607,-0.34521484,-0.95440674,0.09466553,-0.375,1.71875,0.0
608,-0.34692383,-0.9368286,0.09442139,0.21875,-0.390625,0.609375
609,-0.33032227,-0.94195557,0.09490967,0.5,0.546875,0.484375
610,-0.33666992,-0.94537354,0.08709717,0.640625,0.421875,0.65625
611,-0.33081055,-0.9402466,0.0836792,0.875,0.9375,0.625
612,-0.3383789,-0.940979,0.093688965,0.71875,0.6875,0.578125
613,-0.33642578,-0.94366455,0.08416748,-0.328125,0.5625,0.21875
614,-0.33129883,-0.9421997,0.09515381,0.03125,0.296875,0.78125
615,-0.32373047,-0.9194946,0.09246826,0.578125,-0.625,-0.140625
616,-0.33666992,-0.9385376,0.06707764,-1.21875,-1.140625,-0.125
617,-0.33544922,-0.9368286,0.08123779,-0.375,-1.453125,-0.53125
618,-0.32543945,-0.9273071,0.08734131,0.65625,-0.953125,0.109375
619,-0.32470703,-0.9312134,0.07562256,-0.53125,-1.296875,-0.734375
620,-0.33813477,-0.9463501,0.09686279,0.25,-1.921875,-0.390625
621,-0.3371582,-0.9446411,0.085632324,-0.15625,-2.25,-0.140625
622,-0.33398438,-0.94244385,0.0927124,-0.328125,-2.0625,0.234375
623,-0.33325195,-0.93414307,0.08782959,-1.421875,-1.875,-0.15625
624,-0.35253906,-0.944397,0.09222412,-0.640625,-2.0625,-0.078125
625,-0.32910156,-0.94317627,0.09124756,-1.09375,-2.625,-0.484375
626,-0.3330078,-0.9446411,0.0927124,-1.21875,-2.171875,-0.28125
627,-0.3413086,-0.93951416,0.0914917,-0.984375,-1.765625,-0.28125
628,-0.34765625,-0.9368286,0.0914917,-0.359375,-1.0625,0.09375
629,-0.34765625,-0.9500122,0.10272217,0.4375,1.625,0.65625
630,-0.34716797,-0.9536743,0.09906006,0.203125,3.515625,1.0625
631,-0.36206055,-0.9495239,0.10296631,1.109375,2.296875,1.578125
632,-0.3317871,-0.9246216,0.09832764,-0.015625,2.078125,1.484375
633,-0.34204102,-0.9360962,0.097351074,0.03125,2.203125,0.65625
634,-0.32739258,-0.9524536,0.07220459,0.546875,1.59375,1.359375
635,-0.32666016,-0.94195557,0.10662842,2.140625,0.28125,0.875
636,-0.31420898,-0.93756104,0.074645996,-0.578125,0.703125,0.859375
637,-0.34228516,-0.94732666,0.10784912,0.734375,0.296875,0.75
638,-0.3322754,-0.93878174,0.08074951,0.421875,-0.15625,0.578125
639,-0.32373047,-0.93341064,0.08294678,-0.484375,-0.328125,-0.203125
640,-0.32836914,-0.93829346,0.07879639,-0.546875,-1.71875,-0.28125
641,-0.32226562,-0.9326782,0.09124756,-0.75,-2.15625,-0.46875
642,-0.31518555,-0.9348755,0.070251465,-0.328125,-2.125,-0.78125
643,-0.33325195,-0.940979,0.08416748,0.21875,-2.953125,-1.015625
644,-0.3395996,-0.9561157,0.10662842,0.40625,-2.078125,-0.078125
645,-0.33276367,-0.9378052,0.09197998,-0.5625,-1.625,-0.34375
646,-0.33642578,-0.9365845,0.0836792,-0.84375,-1.71875,-0.421875
647,-0.34179688,-0.94415283,0.08709717,-0.703125,-2.109375,-0.6875
648,-0.34106445,-0.9417114,0.089538574,-1.140625,-2.78125,-0.53125
649,-0.33251953,-0.9351196,0.09320068,-0.71875,-1.59375,-0.546875
650,-0.33911133,-0.9507446,0.10809326,0.46875,0.5625,0.15625
651,-0.3486328,-0.9631958,0.10028076,0.390625,2.25,0.359375
652,-0.35961914,-0.9561157,0.10638428,0.9375,1.53125,1.125
653,-0.32910156,-0.927063,0.090270996,-1.453125,0.0625,0.765625
654,-0.34277344,-0.93707275,0.0914917,-1.359375,0.421875,0.484375
655,-0.35302734,-0.9390259,0.09173584,-1.09375,1.53125,-0.1875
656,-0.3400879,-0.95758057,0.113708496,3.171875,1.796875,1.3125
657,-0.32714844,-0.92852783,0.09100342,0.875,0.71875,0.6875
658,-0.3388672,-0.93463135,0.093933105,0.390625,1.03125,0.390625
659,-0.3400879,-0.94488525,0.08123779,0.40625,0.515625,0.21875
660,-0.33154297,-0.9343872,0.08880615,1.546875,-0.734375,0.34375
661,-0.31347656,-0.9312134,0.08099365,-0.546875,-0.40625,-0.21875
662,-0.33813477,-0.9414673,0.08514404,0.421875,-1.109375,0.046875
663,-0.3269043,-0.9356079,0.08514404,-0.015625,-1.390625,-0.4375
664,-0.33081055,-0.93463135,0.08758545,0.203125,-0.84375,-0.5625
665,-0.34399414,-0.94537354,0.08709717,0.234375,-1.84375,-0.3125
666,-0.33374023,-0.93927,0.10003662,0.1875,-1.78125,-0.34375
667,-0.33862305,-0.93927,0.09295654,-0.15625,-1.140625,-0.046875
668,-0.33666992,-0.9421997,0.085632324,-0.1875,-1.75,0.515625
669,-0.33813477,-0.93463135,0.08514404,-0.296875,-2.953125,0.171875
670,-0.3388672,-0.92559814,0.09051514,-0.875,-3.125,0.203125
671,-0.3425293,-0.9402466,0.09075928,-1.640625,-2.0,0.0
672,-0.3564453,-0.9522095,0.11932373,0.109375,-2.015625,0.578125
673,-0.33789062,-0.9541626,0.08416748,-1.671875,2.015625,0.234375
674,-0.36328125,-0.9492798,0.09832764,0.125,1.9375,0.6875
675,-0.34692383,-0.9558716,0.109069824,1.671875,2.234375,1.09375
676,-0.3330078,-0.93218994,0.08709717,-0.03125,2.25,0.546875
677,-0.34179688,-0.9402466,0.09832764,0.65625,2.203125,0.953125
678,-0.34765625,-0.94195557,0.10662842,1.625,1.640625,0.90625
679,-0.3347168,-0.9348755,0.0836792,0.875,1.09375,0.671875
680,-0.32910156,-0.9326782,0.09100342,0.921875,1.265625,0.328125
681,-0.3383789,-0.94000244,0.08538818,0.578125,0.03125,0.765625
682,-0.3173828,-0.9331665,0.081970215,0.09375,-0.328125,0.40625
683,-0.3269043,-0.928772,0.081726074,0.515625,-1.0,0.5
684,-0.33154297,-0.9314575,0.08465576,0.15625,-1.484375,0.265625
685,-0.32788086,-0.9324341,0.0836792,-0.25,-1.421875,-0.125
686,-0.3251953,-0.9351196,0.08734131,0.125,-0.703125,-0.5625
687,-0.33520508,-0.9434204,0.08441162,0.625,-1.609375,-0.109375
688,-0.32495117,-0.9351196,0.08416748,-0.375,-2.484375,-0.15625
689,-0.34057617,-0.9446411,0.097839355,-0.5,-2.625,0.125
690,-0.32714844,-0.93878174,0.08709717,-0.84375,-0.9375,-0.28125
691,-0.34692383,-0.9446411,0.07684326,-0.578125,-1.75,0.515625
692,-0.32910156,-0.93218994,0.078552246,-1.671875,-2.1875,-0.765625
693,-0.35302734,-0.9360962,0.10418701,-0.265625,-2.171875,-0.078125
694,-0.34057617,-0.94073486,0.09197998,-1.5625,-2.734375,-0.640625
695,-0.32788086,-0.9360962,0.09588623,-1.0,-1.109375,-0.34375
696,-0.3474121,-0.95806885,0.10101318,-0.203125,1.03125,0.171875
697,-0.3540039,-0.9546509,0.10247803,1.09375,1.421875,0.671875
698,-0.33642578,-0.9495239,0.0993042,0.6875,2.796875,0.546875
699,-0.34277344,-0.94000244,0.10491943,0.734375,1.734375,0.8125
700,-0.3359375,-0.93829346,0.09857178,-0.078125,0.75,0.953125
701,-0.33691406,-0.94073486,0.09197998,0.84375,1.265625,0.796875
702,-0.34423828,-0.9414673,0.082214355,0.6875,1.46875,1.03125
703,-0.32348633,-0.9434204,0.09320068,1.640625,0.65625,1.0
704,-0.32788086,-0.93878174,0.082458496,0.609375,-0.09375,0.953125
705,-0.33081055,-0.93536377,0.08514404,0.3125,-0.46875,0.3125
706,-0.32714844,-0.9402466,0.08319092,-0.046875,-0.890625,0.265625
707,-0.33374023,-0.9343872,0.07635498,0.15625,-1.5,-0.015625
708,-0.32543945,-0.9326782,0.085632324,-0.390625,-1.484375,-0.203125
709,-0.31860352,-0.9260864,0.097839355,0.359375,-0.859375,-0.28125
710,-0.3425293,-0.94122314,0.062927246,-1.09375,-1.1875,0.125
711,-0.32739258,-0.93634033,0.08319092,0.0,-1.453125,-0.40625
712,-0.34521484,-0.9429321,0.09661865,0.015625,-1.65625,-0.03125
713,-0.33984375,-0.9331665,0.09661865,-0.9375,-1.609375,-0.078125
714,-0.34423828,-0.94122314,0.08856201,-0.609375,-1.6875,-0.234375
715,-0.33911133,-0.9365845,0.08294678,-1.140625,-1.421875,-0.375
716,-0.3395996,-0.94366455,0.089538574,-0.515625,-2.578125,-0.4375
717,-0.3334961,-0.92852783,0.089782715,-1.171875,-1.765625,-0.65625
718,-0.35668945,-0.9439087,0.09442139,-0.59375,-0.546875,-0.5625
719,-0.3479004,-0.9553833,0.109313965,0.5625,1.546875,-0.078125
720,-0.35375977,-0.944397,0.09588623,0.921875,3.015625,0.34375
721,-0.33740234,-0.9458618,0.09320068,0.546875,3.34375,0.53125
722,-0.3413086,-0.9439087,0.089782715,1.21875,1.984375,0.453125
723,-0.32885742,-0.93463135,0.085876465,0.84375,1.625,0.75
724,-0.33374023,-0.93951416,0.09442139,1.234375,1.4375,1.171875
725,-0.34399414,-0.9451294,0.09490967,1.515625,1.609375,1.5
726,-0.33251953,-0.9319458,0.078552246,0.8125,1.328125,0.625
727,-0.3400879,-0.9517212,0.08782959,1.0,0.75,0.875
728,-0.3178711,-0.9312134,0.08685303,0.421875,0.03125,0.0625
729,-0.32177734,-0.9351196,0.058044434,-1.0625,-0.296875,0.4375
730,-0.3413086,-0.9404907,0.08514404,0.5625,-0.984375,0.15625
731,-0.3317871,-0.93927,0.08123779,0.515625,-1.171875,0.28125
732,-0.31860352,-0.9299927,0.08074951,-0.53125,-1.234375,0.0625
733,-0.33325195,-0.94659424,0.08514404,-0.203125,-1.140625,0.03125
734,-0.34423828,-0.9487915,0.08465576,0.15625,-0.5,0.4375
735,-0.33276367,-0.9326782,0.0927124,0.03125,-0.453125,-0.296875
736,-0.33422852,-0.9246216,0.086364746,-0.53125,-0.234375,-1.140625
737,-0.34887695,-0.94903564,0.09588623,0.59375,0.921875,-0.28125
738,-0.33789062,-0.94366455,0.09075928,0.34375,0.796875,-0.671875
739,-0.33203125,-0.93292236,0.0914917,0.0625,-0.28125,0.015625
740,-0.33935547,-0.9331665,0.0848999,-0.109375,-0.46875,-0.15625
741,-0.33398438,-0.9463501,0.094177246,-0.140625,-0.328125,0.0
742,-0.3347168,-0.9421997,0.093688965,0.6875,0.75,0.328125
743,-0.3330078,-0.9507446,0.08270264,0.203125,1.078125,0.421875
744,-0.34204102,-0.95562744,0.09197998,0.09375,1.578125,0.5
745,-0.35180664,-0.94073486,0.101989746,0.28125,0.90625,0.109375
746,-0.33642578,-0.95147705,0.07904053,-0.25,1.984375,0.53125
747,-0.3334961,-0.94073486,0.10076904,1.015625,-0.125,0.484375
748,-0.33154297,-0.9380493,0.074645996,-0.71875,0.5,0.4375
749,-0.3479004,-0.9421997,0.101989746,1.203125,0.40625,0.6875
750,-0.33032227,-0.9404907,0.085876465,0.171875,0.0,0.546875
751,-0.31860352,-0.9338989,0.08685303,-0.109375,-0.515625,0.421875
752,-0.33374023,-0.9373169,0.078552246,-0.390625,-1.859375,0.484375
753,-0.32983398,-0.9324341,0.09075928,0.765625,-1.6875,0.40625
754,-0.3256836,-0.9373169,0.07733154,-0.65625,-1.953125,0.15625
755,-0.32104492,-0.94073486,0.078063965,-0.421875,-1.265625,0.109375
756,-0.33911133,-0.9470825,0.08416748,0.703125,-1.453125,0.0
757,-0.33496094,-0.93951416,0.08929443,0.421875,-1.796875,0.671875
758,-0.3227539,-0.9378052,0.09320068,-0.15625,-2.78125,0.515625
759,-0.33129883,-0.9402466,0.090026855,-0.15625,-2.84375,0.609375
