sample_no,accel_x,accel_y,accel_z,gyro_x,gyro_y,gyro_z
0,0.34570312,0.0048217773,-0.8640747,0.28125,-0.015625,0.515625
1,0.3491211,0.0016479492,-0.848938,0.359375,-0.203125,0.71875
2,0.3540039,0.007019043,-0.8633423,0.0,0.015625,0.484375
3,0.34326172,-0.0025024414,-0.85528564,-0.453125,0.28125,0.484375
4,0.34155273,0.0048217773,-0.85821533,-0.46875,0.515625,0.5625
5,0.34887695,-0.0032348633,-0.8569946,-0.640625,0.796875,0.3125
6,0.33911133,0.0014038086,-0.86676025,-0.453125,0.65625,0.5
7,0.34570312,-0.0049438477,-0.85650635,-0.65625,0.8125,0.6875
8,0.34399414,-0.004211426,-0.87457275,-0.703125,0.65625,0.359375
9,0.34887695,-0.0015258789,-0.8713989,-0.34375,0.359375,0.390625
10,0.34155273,-0.007385254,-0.85479736,0.015625,-0.046875,0.40625
11,0.34716797,-0.008605957,-0.8635864,0.40625,0.0625,0.53125
12,0.34423828,-0.008605957,-0.86846924,0.59375,0.265625,0.484375
13,0.34472656,-0.0049438477,-0.866272,0.578125,0.015625,0.5625
14,0.34570312,-0.0068969727,-0.86431885,1.328125,-0.125,0.53125
15,0.34423828,-0.009094238,-0.8640747,0.796875,-0.03125,0.5625
16,0.33862305,-0.007873535,-0.8701782,0.875,-0.0625,0.515625
17,0.34399414,-0.005432129,-0.86968994,1.140625,-0.265625,0.71875
18,0.34106445,-0.00592041,-0.86553955,0.875,-0.25,0.453125
19,0.34472656,-0.003479004,-0.8596802,0.734375,-0.125,0.5625
20,0.34277344,-0.003967285,-0.8513794,0.765625,0.015625,0.328125
21,0.34887695,-0.002746582,-0.86676025,1.109375,-0.34375,0.546875
22,0.3395996,0.0028686523,-0.87164307,1.4375,-0.140625,0.59375
23,0.3449707,0.0016479492,-0.85943604,1.046875,-0.09375,0.6875
24,0.3449707,0.0028686523,-0.86431885,0.671875,-0.109375,0.609375
25,0.33666992,-0.0022583008,-0.8635864,0.875,0.046875,0.703125
26,0.3466797,0.0014038086,-0.8694458,0.734375,-0.0625,0.53125
27,0.34716797,0.00579834,-0.8706665,0.859375,-0.21875,0.578125
28,0.34106445,0.0014038086,-0.86309814,1.0,0.015625,0.796875
29,0.34277344,-0.00079345703,-0.878479,0.453125,-0.390625,0.875
30,0.3413086,0.002380371,-0.85040283,1.34375,-1.03125,1.625
31,0.34545898,0.006286621,-0.8477173,-0.328125,-1.21875,1.4375
32,0.35327148,0.001159668,-0.87042236,-1.203125,-0.8125,1.015625
33,0.3503418,-0.00030517578,-0.86846924,-1.140625,-0.6875,0.90625
34,0.34594727,0.0014038086,-0.8550415,-1.5,-0.375,0.609375
35,0.3503418,-0.002746582,-0.8701782,-1.21875,-0.671875,0.5
36,0.35327148,-0.009338379,-0.8682251,-0.828125,-0.359375,0.78125
37,0.35229492,-0.008850098,-0.8648071,0.1875,-0.1875,0.859375
38,0.34692383,-0.006652832,-0.8796997,-0.40625,-1.09375,0.859375
39,0.35253906,-0.014953613,-0.864563,-0.65625,-1.28125,0.734375
40,0.35253906,-6.1035156e-05,-0.8562622,-0.5625,-0.671875,0.703125
41,0.35668945,-0.00592041,-0.87213135,-0.390625,-0.6875,0.765625
42,0.35351562,-0.0064086914,-0.8538208,-0.390625,-0.90625,0.65625
43,0.35302734,-0.010070801,-0.85040283,-1.109375,-1.0625,0.421875
44,0.36694336,-0.013977051,-0.8682251,-1.390625,-1.21875,0.3125
45,0.3552246,-0.016906738,-0.83599854,-1.03125,-1.171875,0.21875
46,0.3623047,-0.019104004,-0.8406372,-1.296875,-0.390625,0.28125
47,0.35351562,-0.018859863,-0.85162354,0.3125,0.3125,0.578125
48,0.35986328,-0.0154418945,-0.866272,0.09375,0.109375,0.578125
49,0.36572266,-0.018371582,-0.8753052,-0.78125,-0.5,0.34375
50,0.35668945,-0.024719238,-0.84088135,-0.875,-0.0625,0.109375
51,0.35864258,-0.021057129,-0.84381104,-0.359375,0.296875,0.3125
52,0.3544922,-0.028381348,-0.8440552,0.0625,1.03125,0.609375
53,0.35791016,-0.023010254,-0.87677,0.546875,1.453125,0.65625
54,0.35498047,-0.024475098,-0.8753052,-0.640625,0.96875,0.5
55,0.3515625,-0.023254395,-0.86309814,-1.046875,0.921875,0.390625
56,0.34448242,-0.02960205,-0.84454346,0.078125,0.765625,0.75
57,0.35913086,-0.027648926,-0.87091064,0.578125,0.8125,0.609375
58,0.34936523,-0.030822754,-0.8550415,0.953125,0.78125,0.71875
59,0.34814453,-0.026672363,-0.85479736,1.921875,0.734375,0.75
60,0.34301758,-0.02960205,-0.8621216,1.546875,0.234375,0.53125
61,0.34692383,-0.02545166,-0.86016846,1.859375,0.453125,0.6875
62,0.3569336,-0.023254395,-0.8621216,1.484375,0.265625,0.40625
63,0.34472656,-0.018371582,-0.862854,2.03125,0.171875,0.65625
64,0.34716797,-0.020812988,-0.86065674,1.390625,0.421875,0.71875
65,0.34301758,-0.023010254,-0.85943604,1.75,0.359375,0.578125
66,0.34350586,-0.01739502,-0.87286377,1.1875,0.46875,0.53125
67,0.34570312,-0.016174316,-0.86383057,1.515625,0.375,0.6875
68,0.34545898,-0.014709473,-0.862854,1.109375,0.28125,0.75
69,0.3540039,-0.010803223,-0.86968994,0.859375,0.203125,0.609375
70,0.34277344,-0.012756348,-0.8635864,0.75,0.46875,0.546875
71,0.34106445,-0.011291504,-0.8616333,0.828125,0.265625,0.859375
72,0.34301758,-0.008850098,-0.87750244,1.234375,0.15625,0.796875
73,0.33618164,-0.01373291,-0.86260986,1.03125,0.171875,0.875
74,0.34277344,-0.006652832,-0.86431885,1.078125,0.078125,0.90625
75,0.34350586,-0.0044555664,-0.86431885,0.875,-0.296875,0.875
76,0.33789062,-0.012756348,-0.8591919,0.734375,0.078125,0.921875
77,0.3413086,-0.009094238,-0.87384033,0.875,-0.25,0.921875
78,0.34277344,-0.0029907227,-0.86676025,0.6875,-0.890625,1.15625
79,0.3503418,-0.0044555664,-0.87506104,1.8125,-2.09375,1.453125
80,0.3486328,0.0053100586,-0.8633423,1.578125,-1.5625,1.484375
81,0.3474121,0.001159668,-0.86260986,-0.28125,-0.59375,1.125
82,0.35009766,-0.0025024414,-0.8682251,-1.375,-0.0625,0.75
83,0.3466797,-0.0010375977,-0.85650635,-1.15625,0.09375,0.859375
84,0.35473633,-0.00592041,-0.8718872,-1.1875,-0.015625,0.703125
85,0.34472656,-0.007873535,-0.8665161,-0.890625,0.015625,0.640625
86,0.3486328,-0.00592041,-0.8604126,-0.515625,0.0625,0.5
87,0.34326172,-0.016174316,-0.866272,-0.609375,0.015625,0.546875
88,0.3461914,-0.011291504,-0.8694458,-0.234375,-0.0625,0.5
89,0.34887695,-0.012023926,-0.8584595,0.328125,0.0,0.515625
90,0.34448242,-0.01373291,-0.86553955,0.265625,0.203125,0.640625
91,0.34887695,-0.015930176,-0.8530884,0.484375,0.125,0.75
92,0.34350586,-0.018127441,-0.86505127,0.609375,-0.0625,0.6875
93,0.3515625,-0.009094238,-0.8623657,0.5,-0.125,0.796875
94,0.3486328,-0.010803223,-0.86016846,0.265625,0.015625,0.765625
95,0.34985352,-0.013977051,-0.86187744,0.5,-0.125,0.6875
96,0.35351562,-0.010559082,-0.8623657,0.375,0.0625,0.53125
97,0.35180664,-0.018371582,-0.86065674,0.109375,-0.046875,0.609375
98,0.3479004,-0.012268066,-0.86798096,-0.078125,0.234375,0.578125
99,0.34472656,-0.016174316,-0.8689575,-0.375,0.40625,0.546875
100,0.34545898,-0.0115356445,-0.86724854,-0.65625,0.25,0.578125
101,0.34228516,-0.015930176,-0.864563,-0.578125,0.53125,0.5625
102,0.34301758,-0.023010254,-0.86260986,-0.265625,0.40625,0.671875
103,0.3466797,-0.019836426,-0.8726196,-0.265625,0.59375,0.515625
104,0.3486328,-0.019592285,-0.8674927,0.390625,0.65625,0.65625
105,0.3461914,-0.01739502,-0.8740845,0.8125,0.53125,0.453125
106,0.34301758,-0.015686035,-0.87506104,1.921875,0.59375,0.578125
107,0.33740234,-0.02178955,-0.8579712,2.265625,0.578125,0.71875
108,0.33813477,-0.013977051,-0.8731079,2.0625,0.3125,0.71875
109,0.3400879,-0.012023926,-0.8735962,1.453125,0.140625,0.5625
110,0.34033203,-0.010803223,-0.864563,1.234375,0.375,0.59375
111,0.33984375,-0.012268066,-0.8706665,1.078125,0.109375,0.5625
112,0.33691406,-0.008361816,-0.862854,1.390625,0.28125,0.625
113,0.3400879,-0.003967285,-0.866272,1.34375,0.453125,0.328125
114,0.34277344,-0.0071411133,-0.87042236,1.59375,0.4375,0.5
115,0.33691406,-0.009094238,-0.86724854,1.359375,0.484375,0.546875
116,0.33447266,-0.0010375977,-0.86676025,1.390625,0.5625,0.453125
117,0.33081055,-0.00592041,-0.8740845,1.3125,0.6875,0.625
118,0.32641602,-0.0029907227,-0.8652954,1.4375,0.5625,0.6875
119,0.3322754,0.00091552734,-0.866272,1.578125,0.296875,0.8125
120,0.33203125,-0.00079345703,-0.86505127,1.171875,0.015625,0.6875
121,0.3347168,0.005554199,-0.8796997,0.515625,-0.140625,0.65625
122,0.33398438,-0.004211426,-0.87628174,0.0625,-0.203125,0.6875
123,0.3305664,0.0038452148,-0.87091064,0.734375,-0.578125,0.953125
124,0.3413086,-0.0010375977,-0.87164307,1.09375,-1.578125,1.0
125,0.33691406,0.0079956055,-0.8689575,1.328125,-2.53125,1.328125
126,0.3400879,0.0099487305,-0.8609009,0.703125,-2.40625,1.265625
127,0.34545898,0.0053100586,-0.864563,-0.5,-1.71875,1.015625
128,0.34521484,0.0004272461,-0.87335205,-1.359375,-0.734375,0.703125
129,0.3527832,0.008483887,-0.87164307,-1.5,-0.671875,0.671875
130,0.34887695,-6.1035156e-05,-0.8674927,-2.015625,-0.46875,0.59375
131,0.3479004,-6.1035156e-05,-0.85040283,-1.0625,-0.171875,0.71875
132,0.34326172,-0.004211426,-0.85943604,-1.203125,-0.234375,0.671875
133,0.3413086,-0.011047363,-0.8587036,-0.703125,-0.03125,0.578125
134,0.34545898,-0.008361816,-0.8616333,-0.828125,-0.28125,0.578125
135,0.34936523,-0.005432129,-0.8677368,-0.359375,-0.203125,0.515625
136,0.34106445,-0.003479004,-0.8648071,0.125,-0.34375,0.640625
137,0.3400879,-0.010559082,-0.864563,0.140625,-0.390625,0.609375
138,0.34692383,-0.012756348,-0.8726196,-0.03125,-0.125,0.515625
139,0.33935547,-0.012023926,-0.86968994,0.34375,-0.15625,0.5625
140,0.35205078,-0.011047363,-0.8621216,0.234375,-0.015625,0.609375
141,0.34521484,-0.017150879,-0.85821533,0.484375,-0.109375,0.53125
142,0.34594727,-0.013000488,-0.86187744,0.6875,-0.140625,0.71875
143,0.3449707,-0.011779785,-0.8665161,0.25,-0.09375,0.578125
144,0.35302734,-0.012756348,-0.85772705,0.265625,0.140625,0.734375
145,0.34985352,-0.008605957,-0.8652954,-0.03125,-0.109375,0.671875
146,0.3466797,-0.0115356445,-0.85894775,-0.265625,0.34375,0.59375
147,0.35253906,-0.00592041,-0.862854,-0.296875,0.421875,0.578125
148,0.34228516,-0.016418457,-0.86920166,-0.328125,0.515625,0.65625
149,0.34204102,-0.018371582,-0.8657837,-0.25,0.484375,0.84375
150,0.34277344,-0.016906738,-0.8682251,-0.421875,0.25,0.71875
151,0.34326172,-0.019836426,-0.8640747,-0.03125,0.53125,0.828125
152,0.34277344,-0.01739502,-0.8677368,0.265625,0.3125,0.6875
153,0.34399414,-0.014953613,-0.8652954,0.578125,0.265625,0.6875
154,0.34692383,-0.016174316,-0.8635864,1.015625,0.234375,0.765625
155,0.34570312,-0.016662598,-0.86505127,1.28125,0.21875,0.65625
156,0.34204102,-0.013977051,-0.8604126,1.625,0.515625,0.671875
157,0.34887695,-0.012268066,-0.8765259,1.53125,0.3125,0.875
158,0.34399414,-0.006652832,-0.86676025,1.375,0.484375,0.71875
159,0.3449707,-0.008361816,-0.86846924,1.703125,0.15625,0.78125
160,0.33569336,-0.0064086914,-0.86553955,1.609375,0.0625,0.75
161,0.33740234,-0.010803223,-0.8635864,1.21875,0.234375,0.625
162,0.33984375,-0.0032348633,-0.864563,0.84375,0.203125,0.609375
163,0.3388672,0.0014038086,-0.8701782,0.8125,0.1875,0.40625
164,0.3383789,-0.0012817383,-0.8701782,0.8125,0.109375,0.59375
165,0.3449707,-6.1035156e-05,-0.8633423,0.78125,0.21875,0.640625
166,0.34155273,-0.0064086914,-0.8623657,0.8125,0.203125,0.453125
167,0.3388672,-0.002746582,-0.8677368,0.984375,0.140625,0.46875
168,0.34179688,-6.1035156e-05,-0.86309814,1.125,0.046875,0.5625
169,0.3400879,-0.0025024414,-0.8731079,0.875,-0.0625,0.59375
170,0.3334961,-0.0012817383,-0.86383057,1.109375,-0.453125,0.734375
171,0.34375,0.005065918,-0.8616333,0.765625,-0.484375,0.890625
172,0.33935547,-0.005432129,-0.86553955,0.859375,-0.90625,0.90625
173,0.3371582,0.006286621,-0.87164307,1.25,-1.453125,1.234375
174,0.34936523,0.003112793,-0.8657837,1.09375,-1.9375,1.265625
175,0.34399414,0.005065918,-0.8599243,-0.125,-1.328125,0.84375
176,0.3479004,0.010681152,-0.8604126,-0.90625,-0.625,0.765625
177,0.34155273,0.0021362305,-0.86676025,-1.046875,-0.671875,0.78125
178,0.35131836,-0.0020141602,-0.86065674,-0.796875,-0.578125,0.734375
179,0.3449707,-0.0017700195,-0.86968994,-0.765625,-0.59375,0.6875
180,0.3449707,-0.0076293945,-0.8587036,-0.953125,-0.34375,0.53125
181,0.35009766,-0.002746582,-0.8596802,-0.765625,-0.375,0.53125
182,0.34716797,-0.0068969727,-0.864563,-0.65625,-0.453125,0.578125
183,0.34423828,-0.008605957,-0.86309814,-0.484375,-0.265625,0.46875
184,0.34960938,-0.006652832,-0.86431885,-0.15625,-0.125,0.40625
185,0.3466797,-0.010314941,-0.85894775,0.078125,-0.3125,0.609375
186,0.3461914,-0.0134887695,-0.86505127,0.328125,-0.296875,0.625
187,0.34716797,-0.005432129,-0.8591919,0.328125,-0.21875,0.59375
188,0.3503418,-0.012512207,-0.8616333,0.421875,-0.09375,0.640625
189,0.3540039,-0.010314941,-0.8621216,0.46875,-0.171875,0.5625
190,0.35083008,-0.009338379,-0.848938,0.3125,0.015625,0.53125
191,0.3449707,-0.012512207,-0.8604126,0.5,0.0625,0.609375
192,0.35107422,-0.0056762695,-0.8616333,0.390625,0.078125,0.65625
193,0.34765625,-0.0178833,-0.8621216,0.15625,0.0,0.65625
194,0.35229492,-0.010314941,-0.8635864,-0.609375,0.25,0.671875
195,0.35229492,-0.006652832,-0.8604126,-0.265625,0.453125,0.609375
196,0.34423828,-0.013000488,-0.85821533,-0.46875,0.390625,0.53125
197,0.34594727,-0.0134887695,-0.8562622,-0.34375,0.40625,0.734375
198,0.34448242,-0.016174316,-0.86383057,-0.125,0.609375,0.625
199,0.3388672,-0.020080566,-0.8569946,0.390625,0.609375,0.8125
200,0.34277344,-0.0178833,-0.87213135,0.8125,0.546875,0.5625
201,0.34399414,-0.01373291,-0.8621216,1.109375,0.546875,0.671875
202,0.34228516,-0.012023926,-0.8713989,1.359375,0.609375,0.703125
203,0.34521484,-0.014709473,-0.862854,1.109375,0.640625,0.84375
204,0.34545898,-0.0134887695,-0.8677368,1.1875,0.3125,0.6875
205,0.3413086,-0.011047363,-0.86383057,0.984375,0.21875,0.71875
206,0.33520508,-0.008605957,-0.8670044,0.96875,0.25,0.625
207,0.34301758,-0.007873535,-0.8687134,0.84375,0.109375,0.671875
208,0.3395996,-0.006652832,-0.8701782,0.953125,-0.015625,0.53125
209,0.3388672,-0.0095825195,-0.86602783,0.75,0.328125,0.515625
210,0.3395996,-0.006164551,-0.8545532,1.15625,-0.203125,0.578125
211,0.33813477,-0.0049438477,-0.87042236,1.296875,0.0625,0.5625
212,0.33666992,-0.0049438477,-0.86798096,1.109375,0.328125,0.640625
213,0.34375,-0.0068969727,-0.87872314,1.203125,0.125,0.5
214,0.33862305,-0.01373291,-0.8648071,1.265625,0.234375,0.46875
215,0.33862305,-0.003479004,-0.8621216,1.234375,0.1875,0.5625
216,0.3371582,0.0006713867,-0.87042236,0.640625,-0.109375,0.671875
217,0.33911133,-0.0051879883,-0.8652954,0.765625,-0.125,0.765625
218,0.33496094,-0.0012817383,-0.86138916,0.828125,-0.296875,0.84375
219,0.3383789,-0.003967285,-0.862854,0.4375,-0.234375,0.734375
220,0.33764648,-0.00030517578,-0.85943604,0.453125,-0.171875,0.640625
221,0.33496094,-0.0017700195,-0.8701782,0.421875,-0.59375,0.859375
222,0.33862305,0.0016479492,-0.8682251,0.484375,-0.953125,0.90625
223,0.34472656,0.0040893555,-0.88238525,0.765625,-1.78125,1.125
224,0.33789062,0.0033569336,-0.861145,1.28125,-2.046875,1.3125
225,0.34179688,0.005554199,-0.85357666,0.359375,-1.78125,1.125
226,0.34326172,0.005554199,-0.8579712,-0.4375,-1.15625,0.859375
227,0.35327148,-0.0051879883,-0.86016846,-0.6875,-1.125,0.75
228,0.34985352,0.0006713867,-0.85943604,-0.96875,-0.65625,0.53125
229,0.3474121,0.0048217773,-0.8657837,-1.015625,-0.15625,0.5
230,0.3527832,0.0004272461,-0.85723877,-0.390625,-0.359375,0.640625
231,0.34448242,-0.005432129,-0.8648071,-0.46875,-0.265625,0.625
232,0.35424805,-0.007873535,-0.8623657,-0.25,-0.265625,0.546875
233,0.35180664,-0.010803223,-0.85723877,-0.28125,-0.40625,0.609375
234,0.34887695,-0.00982666,-0.86138916,-0.125,-0.109375,0.546875
235,0.34692383,-0.009094238,-0.85943604,0.0625,-0.328125,0.5625
236,0.35131836,-0.008117676,-0.86187744,0.234375,-0.296875,0.515625
237,0.34375,-0.00982666,-0.86187744,0.265625,-0.1875,0.71875
238,0.35791016,-0.0115356445,-0.86309814,0.40625,0.03125,0.578125
239,0.3527832,-0.011779785,-0.86016846,0.171875,-0.203125,0.625
240,0.34936523,-0.007873535,-0.85821533,0.359375,0.046875,0.65625
241,0.35107422,-0.007873535,-0.8596802,-0.046875,-0.046875,0.640625
242,0.34887695,-0.015686035,-0.85479736,0.109375,0.28125,0.703125
243,0.34887695,-0.012512207,-0.8562622,-0.171875,0.5,0.65625
244,0.3557129,-0.0015258789,-0.86920166,-0.328125,0.421875,0.53125
245,0.35058594,-0.01373291,-0.8460083,0.171875,0.21875,0.71875
246,0.34887695,-0.014465332,-0.8526001,0.3125,0.484375,0.671875
247,0.34545898,-0.011047363,-0.8633423,0.21875,0.453125,0.5
248,0.34765625,-0.0134887695,-0.8640747,0.859375,0.484375,0.828125
249,0.34838867,-0.010803223,-0.8596802,0.796875,0.421875,0.796875
250,0.33935547,-0.0049438477,-0.86676025,1.015625,0.75,0.609375
251,0.34423828,-0.01373291,-0.8623657,1.203125,0.75,0.671875
252,0.34204102,-0.011047363,-0.862854,0.71875,0.484375,0.5625
253,0.3449707,-0.0115356445,-0.86968994,0.65625,0.453125,0.5
254,0.3388672,-0.0134887695,-0.848938,0.609375,0.65625,0.578125
255,0.33862305,-0.010559082,-0.866272,0.765625,0.53125,0.484375
256,0.34448242,-0.010070801,-0.8621216,0.828125,0.46875,0.546875
257,0.33789062,-0.012512207,-0.8633423,0.875,0.375,0.5
258,0.3395996,-0.0068969727,-0.8706665,0.984375,0.40625,0.484375
259,0.33666992,-0.008117676,-0.8718872,1.09375,0.546875,0.515625
260,0.33984375,-0.0025024414,-0.86724854,1.484375,0.359375,0.65625
261,0.34228516,-0.005432129,-0.87506104,1.328125,0.328125,0.71875
262,0.34033203,-0.00592041,-0.866272,1.375,-0.140625,0.75
263,0.3347168,-0.0071411133,-0.8609009,1.1875,0.265625,0.765625
264,0.3400879,-0.004211426,-0.8652954,0.765625,0.328125,0.6875
265,0.33325195,-0.00079345703,-0.8706665,0.9375,-0.03125,0.640625
266,0.33520508,0.0014038086,-0.8689575,0.734375,0.015625,0.71875
267,0.33935547,0.002380371,-0.8689575,0.34375,-0.21875,0.671875
268,0.34326172,0.0018920898,-0.8731079,0.3125,-0.8125,0.984375
269,0.3388672,0.001159668,-0.86846924,0.609375,-1.625,1.140625
270,0.34326172,0.005554199,-0.8623657,1.515625,-2.640625,1.328125
271,0.34472656,0.00091552734,-0.86016846,0.421875,-1.84375,1.140625
272,0.34594727,0.00091552734,-0.86260986,-0.1875,-1.203125,0.953125
273,0.34838867,0.0038452148,-0.8657837,-0.84375,-0.703125,0.84375
274,0.3503418,0.0033569336,-0.86187744,-0.6875,-0.71875,0.796875
275,0.35083008,-0.0022583008,-0.8616333,-0.859375,-0.375,0.6875
276,0.35302734,-0.0032348633,-0.86260986,-0.59375,-0.109375,0.671875
277,0.35083008,-0.0022583008,-0.8609009,-0.671875,-0.390625,0.53125
278,0.35083008,-0.0064086914,-0.8694458,-0.703125,-0.21875,0.53125
279,0.35327148,-0.006652832,-0.86505127,-0.0625,-0.28125,0.65625
280,0.3474121,-0.012023926,-0.8621216,-0.28125,-0.1875,0.546875
281,0.35180664,-0.012268066,-0.86505127,-0.125,-0.078125,0.453125
282,0.35620117,-0.00982666,-0.85894775,0.21875,-0.28125,0.578125
283,0.34960938,-0.010314941,-0.8635864,0.375,0.0,0.5625
284,0.35742188,-0.012023926,-0.8616333,0.265625,-0.046875,0.640625
285,0.3474121,-0.00982666,-0.86065674,0.40625,-0.109375,0.65625
286,0.34643555,-0.01763916,-0.86553955,0.328125,0.140625,0.703125
287,0.35205078,-0.007873535,-0.85723877,0.359375,-0.125,0.671875
288,0.35180664,-0.0064086914,-0.8533325,0.265625,-0.28125,0.671875
289,0.3486328,-0.007873535,-0.86260986,0.28125,-0.15625,0.609375
290,0.3503418,-0.007385254,-0.8596802,0.59375,-0.015625,0.859375
291,0.35351562,-0.008117676,-0.85601807,0.171875,0.0625,0.78125
292,0.35742188,-0.00592041,-0.864563,0.40625,0.15625,0.578125
293,0.3515625,-0.009338379,-0.85943604,0.5,0.15625,0.71875
294,0.3486328,-0.0095825195,-0.85528564,0.65625,0.34375,0.765625
295,0.35107422,-0.0064086914,-0.86138916,1.1875,0.21875,0.875
296,0.3552246,-0.006164551,-0.86968994,0.578125,0.1875,0.796875
297,0.3540039,-0.0068969727,-0.87701416,0.046875,0.234375,0.53125
298,0.34106445,-0.0115356445,-0.8652954,-0.125,0.890625,0.421875
299,0.35253906,-0.00982666,-0.86602783,-0.109375,0.765625,0.40625
300,0.34204102,-0.011779785,-0.861145,0.1875,0.734375,0.5625
301,0.34057617,-0.014709473,-0.8689575,-0.25,0.609375,0.421875
302,0.34570312,-0.0068969727,-0.8652954,0.375,0.1875,0.546875
303,0.34765625,-0.008605957,-0.86846924,0.6875,-0.09375,0.578125
304,0.34521484,-0.007385254,-0.8635864,1.03125,0.015625,0.671875
305,0.34570312,-0.004211426,-0.86383057,0.890625,0.0625,0.609375
306,0.34399414,-0.0037231445,-0.86676025,0.953125,0.1875,0.625
307,0.34277344,-0.010314941,-0.86602783,0.859375,0.1875,0.609375
308,0.3449707,-0.0022583008,-0.8723755,0.875,0.0,0.515625
309,0.34521484,-0.006164551,-0.8616333,0.875,0.03125,0.59375
310,0.33764648,-0.010070801,-0.86431885,0.84375,-0.125,0.65625
311,0.33764648,-0.0051879883,-0.8701782,1.109375,-0.0625,0.890625
312,0.34399414,-0.0064086914,-0.86724854,0.4375,0.125,0.78125
313,0.3425293,-0.0068969727,-0.8677368,0.6875,0.234375,0.6875
314,0.33618164,-0.0071411133,-0.8711548,0.8125,0.609375,0.84375
315,0.3395996,-0.004699707,-0.8726196,0.71875,0.484375,0.578125
316,0.34521484,-0.0044555664,-0.878479,0.8125,-0.4375,0.9375
317,0.33544922,-0.004211426,-0.8718872,1.4375,-1.3125,1.0625
318,0.34521484,0.002380371,-0.8635864,1.765625,-2.046875,1.359375
319,0.34423828,0.0028686523,-0.85821533,0.421875,-1.859375,1.15625
320,0.3581543,0.0038452148,-0.8689575,-0.828125,-1.09375,0.765625
321,0.34985352,-0.0029907227,-0.8621216,-1.34375,-0.265625,0.46875
322,0.34960938,-0.0068969727,-0.8574829,-0.484375,-0.03125,0.671875
323,0.3474121,-0.006164551,-0.8604126,-0.796875,0.046875,0.71875
324,0.35327148,-0.0068969727,-0.8635864,-0.203125,-0.125,0.671875
325,0.3486328,-0.005432129,-0.86505127,-0.09375,-0.109375,0.5
326,0.3540039,-0.0071411133,-0.8599243,0.234375,-0.109375,0.546875
327,0.34545898,-0.0051879883,-0.86309814,0.25,-0.359375,0.578125
328,0.3449707,-0.006164551,-0.86383057,0.4375,-0.140625,0.53125
329,0.34448242,-0.0095825195,-0.85894775,0.34375,-0.21875,0.640625
330,0.34472656,-0.0115356445,-0.8609009,0.609375,-0.140625,0.609375
331,0.35107422,-0.0044555664,-0.8623657,0.65625,-0.21875,0.796875
332,0.34985352,-0.007385254,-0.862854,0.203125,0.171875,0.53125
333,0.35009766,-0.00982666,-0.8633423,0.296875,0.078125,0.578125
334,0.35302734,-0.0051879883,-0.86798096,0.5625,0.078125,0.703125
335,0.34936523,-0.009094238,-0.8635864,0.046875,0.0625,0.6875
336,0.34423828,-0.0044555664,-0.862854,0.09375,0.234375,0.546875
337,0.34594727,-0.010314941,-0.8596802,-0.1875,0.25,0.5
338,0.3503418,-0.007873535,-0.8633423,-0.46875,0.46875,0.546875
339,0.35180664,-0.010559082,-0.8623657,-0.71875,0.703125,0.625
340,0.34692383,-0.016662598,-0.8633423,-0.859375,0.640625,0.609375
341,0.34545898,-0.011291504,-0.86383057,-0.78125,0.40625,0.59375
342,0.34277344,-0.016418457,-0.8567505,-0.5625,0.453125,0.734375
343,0.34594727,-0.016418457,-0.8652954,-0.390625,0.640625,0.6875
344,0.34448242,-0.012756348,-0.8753052,-0.125,0.71875,0.578125
345,0.34204102,-0.023010254,-0.8665161,0.671875,0.671875,0.5625
346,0.3408203,-0.017150879,-0.8609009,0.96875,0.515625,0.578125
347,0.33398438,-0.01739502,-0.86968994,0.921875,0.3125,0.71875
348,0.33935547,-0.0178833,-0.85113525,1.015625,0.25,0.640625
349,0.34155273,-0.013244629,-0.86798096,1.046875,0.125,0.53125
350,0.33520508,-0.016418457,-0.86553955,1.015625,0.765625,0.5625
351,0.34301758,-0.012268066,-0.8701782,1.21875,0.15625,0.5625
352,0.3330078,-0.013977051,-0.86016846,1.203125,0.234375,0.484375
353,0.3371582,-0.012756348,-0.8599243,1.171875,0.171875,0.609375
354,0.33496094,-0.011291504,-0.8670044,1.171875,-0.046875,0.71875
355,0.33789062,-0.013000488,-0.8687134,1.234375,0.0,0.609375
356,0.3371582,-0.008605957,-0.86505127,0.875,0.0,0.625
357,0.3334961,-0.012268066,-0.8674927,1.0625,-0.015625,0.6875
358,0.33691406,-0.007873535,-0.87213135,1.046875,0.109375,0.828125
359,0.33862305,-0.003479004,-0.86553955,0.96875,0.078125,0.734375
360,0.32983398,-0.010559082,-0.8670044,0.59375,0.265625,0.765625
361,0.33520508,-0.0020141602,-0.8665161,0.921875,0.140625,0.78125
362,0.33422852,-0.0095825195,-0.86383057,0.984375,0.140625,0.8125
363,0.3359375,-6.1035156e-05,-0.8689575,0.640625,-0.03125,0.703125
364,0.33374023,-0.0044555664,-0.8731079,0.703125,-0.53125,0.921875
365,0.33447266,-0.0071411133,-0.8723755,1.078125,-1.453125,0.96875
366,0.3347168,-0.0049438477,-0.864563,1.1875,-2.21875,1.28125
367,0.3413086,0.0038452148,-0.85723877,-0.375,-1.6875,0.828125
368,0.34545898,-0.0015258789,-0.8623657,-0.828125,-0.90625,0.953125
369,0.34301758,-0.0022583008,-0.866272,-0.9375,-0.578125,0.703125
370,0.3388672,-0.0020141602,-0.86260986,-0.734375,-0.328125,0.703125
371,0.34057617,-0.0076293945,-0.86798096,-0.453125,-0.3125,0.6875
372,0.33935547,-0.007873535,-0.8677368,-0.28125,-0.296875,0.671875
373,0.34448242,-0.0095825195,-0.8648071,0.015625,-0.296875,0.625
374,0.34448242,-0.003967285,-0.86309814,-0.140625,-0.5625,0.546875
375,0.34814453,-0.013000488,-0.86187744,0.1875,-0.21875,0.59375
376,0.3466797,-0.0115356445,-0.8635864,0.3125,-0.28125,0.453125
377,0.3425293,-0.010803223,-0.8633423,0.390625,-0.015625,0.625
378,0.35009766,-0.011291504,-0.8635864,0.5,0.078125,0.59375
379,0.34521484,-0.008117676,-0.85601807,0.390625,-0.25,0.671875
380,0.34692383,-0.012023926,-0.8599243,0.359375,-0.171875,0.5625
381,0.34570312,-0.012512207,-0.86187744,0.515625,-0.125,0.640625
382,0.34936523,-0.01373291,-0.8718872,0.203125,0.078125,0.640625
383,0.34155273,-0.014465332,-0.8574829,0.40625,-0.140625,0.65625
384,0.34545898,-0.0115356445,-0.8652954,-0.1875,0.171875,0.515625
385,0.34936523,-0.016906738,-0.864563,-0.40625,0.15625,0.671875
386,0.34545898,-0.010803223,-0.86187744,-0.1875,0.34375,0.703125
387,0.34301758,-0.013244629,-0.861145,-0.34375,0.40625,0.6875
388,0.34448242,-0.015197754,-0.86968994,-0.734375,0.671875,0.609375
389,0.34228516,-0.015930176,-0.86016846,-0.453125,0.609375,0.625
390,0.34448242,-0.018371582,-0.8701782,-0.3125,0.609375,0.703125
391,0.3388672,-0.016418457,-0.86431885,-0.390625,0.203125,0.65625
392,0.3474121,-0.022277832,-0.8633423,0.0,0.375,0.703125
393,0.33813477,-0.01763916,-0.86505127,0.171875,0.28125,0.609375
394,0.33618164,-0.0154418945,-0.8694458,0.71875,0.1875,0.640625
395,0.33642578,-0.016418457,-0.86676025,0.734375,0.4375,0.609375
396,0.33813477,-0.022766113,-0.85162354,1.09375,0.59375,0.609375
397,0.3413086,-0.01373291,-0.8809204,0.734375,0.671875,0.65625
398,0.33740234,-0.014465332,-0.8545532,1.421875,0.734375,0.59375
399,0.3383789,-0.018859863,-0.8726196,1.046875,0.5,0.5
400,0.33764648,-0.0064086914,-0.8518677,1.125,0.109375,0.53125
401,0.3371582,-0.011779785,-0.86309814,0.984375,0.453125,0.609375
402,0.3330078,-0.011779785,-0.866272,1.1875,0.5625,0.46875
403,0.33422852,-0.013244629,-0.8731079,1.203125,0.375,0.625
404,0.3334961,-0.010070801,-0.8726196,1.125,0.03125,0.515625
405,0.33569336,-0.0056762695,-0.8713989,1.203125,-0.171875,0.65625
406,0.3330078,-0.0029907227,-0.8652954,1.140625,0.125,0.59375
407,0.33496094,-0.0005493164,-0.8755493,1.078125,-0.140625,0.59375
408,0.33129883,-0.01373291,-0.86431885,1.109375,-0.078125,0.765625
409,0.33691406,-0.006652832,-0.86920166,0.8125,-0.0625,0.6875
410,0.33447266,-0.0076293945,-0.8694458,1.140625,-0.15625,0.90625
411,0.33325195,-0.004211426,-0.86602783,0.921875,-0.09375,0.921875
412,0.33618164,-0.0025024414,-0.86846924,0.6875,-0.28125,0.8125
413,0.3330078,-0.007385254,-0.8723755,0.859375,-0.5,0.984375
414,0.33935547,0.0038452148,-0.8731079,0.84375,-1.09375,1.015625
415,0.3395996,-0.003967285,-0.8670044,0.921875,-1.921875,1.109375
416,0.3449707,-0.0005493164,-0.86065674,-0.265625,-2.078125,1.109375
417,0.33666992,-0.0025024414,-0.8713989,-0.984375,-1.0,0.8125
418,0.34301758,-0.003967285,-0.87384033,-1.4375,-0.828125,0.46875
419,0.34521484,-0.012756348,-0.8640747,-0.796875,-0.75,0.3125
420,0.33935547,-0.0044555664,-0.8584595,0.015625,-0.421875,0.578125
421,0.34106445,-0.008117676,-0.85943604,-0.046875,-0.328125,0.65625
422,0.33813477,-0.0037231445,-0.8587036,0.359375,-0.234375,0.578125
423,0.34375,-0.009094238,-0.861145,0.109375,-0.109375,0.5625
424,0.34448242,-0.012268066,-0.87213135,0.125,-0.203125,0.671875
425,0.3474121,-0.013244629,-0.86431885,0.03125,-0.1875,0.515625
426,0.34277344,-0.0068969727,-0.8604126,0.234375,-0.125,0.609375
427,0.34594727,-0.012023926,-0.8687134,0.328125,0.171875,0.609375
428,0.34887695,-0.011291504,-0.85943604,0.515625,-0.03125,0.765625
429,0.34643555,-0.012023926,-0.86846924,-0.0625,0.09375,0.65625
430,0.35180664,-0.012756348,-0.8596802,-0.140625,0.140625,0.640625
431,0.34716797,-0.0134887695,-0.86383057,-0.4375,0.4375,0.640625
432,0.34350586,-0.013244629,-0.86505127,-0.53125,0.46875,0.65625
433,0.33740234,-0.014465332,-0.86505127,-0.65625,0.453125,0.578125
434,0.34521484,-0.01373291,-0.8635864,-0.34375,0.46875,0.578125
435,0.33984375,-0.017150879,-0.8689575,-0.640625,0.921875,0.578125
436,0.33691406,-0.022521973,-0.8621216,-0.09375,0.75,0.578125
437,0.34057617,-0.014221191,-0.87384033,0.3125,0.484375,0.625
438,0.33569336,-0.02130127,-0.86260986,0.578125,0.46875,0.65625
439,0.33544922,-0.0095825195,-0.8701782,0.65625,0.65625,0.65625
440,0.33642578,-0.014221191,-0.87042236,0.9375,0.296875,0.734375
441,0.33569336,-0.0115356445,-0.86383057,1.046875,0.40625,0.75
442,0.3359375,-0.013244629,-0.8765259,0.921875,0.453125,0.640625
443,0.3359375,-0.014465332,-0.86724854,1.0625,0.328125,0.609375
444,0.33544922,-0.009338379,-0.86676025,1.0625,0.265625,0.71875
445,0.33325195,-0.01373291,-0.866272,1.0,0.421875,0.671875
446,0.3322754,-0.011047363,-0.8657837,1.390625,0.4375,0.625
447,0.33447266,-0.009094238,-0.8621216,1.34375,0.40625,0.75
448,0.32836914,-0.011047363,-0.8677368,1.125,0.265625,0.609375
449,0.33129883,-0.010070801,-0.8670044,1.203125,0.078125,0.671875
450,0.33251953,-0.009094238,-0.87872314,0.515625,-0.078125,0.609375
451,0.32763672,-0.00592041,-0.86016846,0.90625,-0.015625,0.78125
452,0.33203125,-0.0010375977,-0.866272,0.71875,0.21875,0.53125
453,0.3305664,-0.0051879883,-0.87164307,0.78125,-0.015625,0.71875
454,0.33374023,-0.007873535,-0.8652954,0.78125,-0.015625,0.5625
455,0.33032227,-0.0064086914,-0.86676025,0.625,0.109375,0.625
456,0.3330078,-0.003967285,-0.86187744,0.78125,-0.140625,0.734375
457,0.3347168,-0.0029907227,-0.86505127,0.703125,0.09375,0.71875
458,0.3330078,0.0033569336,-0.87579346,0.375,-0.4375,0.640625
459,0.32910156,-0.002746582,-0.8740845,0.578125,-0.625,0.828125
460,0.33447266,-0.0020141602,-0.8760376,0.9375,-1.203125,1.0625
461,0.32861328,-0.004211426,-0.86798096,0.765625,-2.3125,1.109375
462,0.3400879,0.0004272461,-0.86260986,-0.125,-2.359375,0.875
463,0.3400879,-0.00592041,-0.8670044,-0.8125,-1.625,0.765625
464,0.33789062,-0.011047363,-0.8635864,-0.671875,-0.8125,0.765625
465,0.34033203,-0.009094238,-0.86138916,-0.78125,-0.984375,0.640625
466,0.34277344,0.0004272461,-0.8674927,-0.578125,-0.59375,0.53125
467,0.34521484,-0.0044555664,-0.8562622,-0.015625,-0.53125,0.75
468,0.34716797,-0.010803223,-0.86260986,-0.421875,-0.4375,0.53125
469,0.34350586,-0.012756348,-0.8635864,-0.171875,-0.28125,0.515625
470,0.34521484,-0.004211426,-0.85943604,0.453125,-0.203125,0.5625
471,0.34106445,-0.014953613,-0.86920166,0.203125,-0.34375,0.609375
472,0.3474121,-0.012268066,-0.86383057,0.1875,-0.296875,0.578125
473,0.34423828,-0.011047363,-0.86260986,0.40625,-0.171875,0.578125
474,0.3359375,-0.007873535,-0.86798096,0.296875,-0.140625,0.78125
475,0.34326172,-0.010803223,-0.864563,0.46875,-0.296875,0.796875
476,0.34692383,-0.008850098,-0.8621216,0.65625,0.0,0.59375
477,0.3479004,-0.007873535,-0.86260986,0.46875,-0.234375,0.578125
478,0.34692383,-0.014465332,-0.86383057,0.265625,-0.1875,0.609375
479,0.34838867,-0.012512207,-0.86065674,0.25,-0.046875,0.640625
480,0.34643555,-0.00982666,-0.86016846,0.171875,-0.078125,0.65625
481,0.3395996,-0.010559082,-0.86431885,0.046875,0.171875,0.609375
482,0.34716797,-0.011291504,-0.8701782,-0.046875,0.125,0.734375
483,0.3515625,-0.0076293945,-0.86553955,-0.0625,0.140625,0.703125
484,0.34448242,-0.0076293945,-0.85601807,-0.0625,0.140625,0.625
485,0.34692383,-0.012268066,-0.85772705,-0.59375,0.640625,0.5625
486,0.34692383,-0.016418457,-0.864563,-0.265625,0.75,0.59375
487,0.3383789,-0.01739502,-0.8674927,-0.046875,0.515625,0.5
488,0.34057617,-0.0095825195,-0.8694458,-0.140625,0.609375,0.578125
489,0.34326172,-0.015197754,-0.86309814,0.109375,0.4375,0.609375
490,0.3400879,-0.015197754,-0.86187744,0.3125,0.546875,0.5625
491,0.33544922,-0.0154418945,-0.85943604,0.53125,0.265625,0.71875
492,0.33422852,-0.01763916,-0.8711548,0.390625,0.1875,0.671875
493,0.33740234,-0.019592285,-0.8706665,0.515625,0.484375,0.5625
494,0.33935547,-0.018859863,-0.8674927,0.84375,0.265625,0.734375
495,0.33374023,-0.011047363,-0.87457275,1.03125,0.3125,0.59375
496,0.33740234,-0.014953613,-0.8574829,1.515625,0.40625,0.6875
497,0.3388672,-0.008361816,-0.8694458,1.390625,0.09375,0.59375
498,0.33764648,-0.008605957,-0.8687134,1.484375,0.3125,0.703125
499,0.3334961,-0.0115356445,-0.8731079,1.25,0.046875,0.671875
500,0.33544922,-0.012268066,-0.86798096,1.046875,0.109375,0.765625
501,0.3395996,-0.008850098,-0.8674927,0.8125,0.015625,0.5625
502,0.3383789,-0.0064086914,-0.87164307,0.578125,0.171875,0.625
503,0.33691406,-0.008605957,-0.8699341,0.703125,-0.3125,0.828125
504,0.33325195,-0.008361816,-0.85894775,0.859375,-0.03125,0.734375
505,0.33569336,-0.003967285,-0.8689575,0.578125,0.015625,0.6875
506,0.33764648,-0.008605957,-0.8772583,0.46875,-0.078125,0.78125
507,0.3334961,-0.011779785,-0.87213135,0.28125,-0.515625,0.75
508,0.3293457,-0.007385254,-0.8723755,0.25,-0.953125,0.875
509,0.3310547,-0.0012817383,-0.86431885,0.5,-1.796875,1.03125
510,0.3408203,-0.008850098,-0.8648071,-0.578125,-1.828125,1.078125
511,0.3334961,-0.0115356445,-0.8587036,-0.65625,-1.171875,0.78125
512,0.3449707,-0.017150879,-0.87384033,-0.8125,-0.984375,0.546875
513,0.3371582,-0.016418457,-0.8604126,-0.21875,-0.65625,0.59375
514,0.34399414,-0.0095825195,-0.8635864,-0.046875,-0.328125,0.53125
515,0.3466797,-0.019348145,-0.8579712,0.234375,-0.234375,0.484375
516,0.34692383,-0.012268066,-0.8723755,0.421875,-0.25,0.59375
517,0.34448242,-0.010803223,-0.8518677,0.546875,-0.34375,0.703125
518,0.3425293,-0.014221191,-0.8621216,0.46875,-0.078125,0.671875
519,0.34448242,-0.0134887695,-0.8648071,0.484375,-0.265625,0.671875
520,0.3371582,-0.014953613,-0.8609009,0.9375,-0.171875,0.609375
521,0.3466797,-0.013000488,-0.8604126,0.734375,-0.34375,0.734375
522,0.3413086,-0.012268066,-0.86431885,0.671875,-0.234375,0.625
523,0.3474121,-0.008361816,-0.86187744,0.78125,-0.375,0.765625
524,0.34399414,-0.011291504,-0.85943604,0.59375,-0.296875,0.65625
525,0.34448242,-0.010070801,-0.8701782,0.640625,-0.34375,0.609375
526,0.34960938,-0.016906738,-0.8599243,0.359375,-0.203125,0.59375
527,0.3491211,-0.010803223,-0.8616333,0.640625,0.109375,0.625
528,0.3474121,-0.006652832,-0.86968994,0.453125,0.046875,0.703125
529,0.34179688,-0.009094238,-0.8604126,0.203125,0.140625,0.671875
530,0.34521484,-0.010070801,-0.862854,0.109375,0.15625,0.6875
531,0.3413086,-0.010559082,-0.86138916,-0.203125,0.125,0.6875
532,0.34692383,-0.0076293945,-0.8616333,-0.3125,0.453125,0.703125
533,0.34277344,-0.014953613,-0.86920166,-0.53125,0.40625,0.71875
534,0.33789062,-0.015930176,-0.86920166,-0.609375,0.4375,0.609375
535,0.33740234,-0.0178833,-0.8550415,-0.703125,0.65625,0.625
536,0.3466797,-0.022033691,-0.86798096,-0.234375,0.34375,0.59375
537,0.34350586,-0.016174316,-0.8677368,-0.40625,0.21875,0.59375
538,0.33862305,-0.01763916,-0.8670044,-0.0625,0.4375,0.671875
539,0.34033203,-0.014709473,-0.86138916,0.15625,0.265625,0.75
540,0.33129883,-0.01763916,-0.87579346,0.0625,0.328125,0.78125
541,0.3334961,-0.016418457,-0.8699341,0.15625,0.28125,0.546875
542,0.3359375,-0.020080566,-0.86846924,0.15625,0.28125,0.59375
543,0.3334961,-0.020324707,-0.86431885,0.484375,0.1875,0.5625
544,0.3347168,-0.024230957,-0.86724854,0.609375,0.140625,0.734375
545,0.33618164,-0.024475098,-0.86602783,1.0,-0.046875,0.671875
546,0.33496094,-0.01739502,-0.87042236,0.890625,0.328125,0.734375
547,0.33862305,-0.019592285,-0.8635864,1.203125,0.171875,0.578125
548,0.33520508,-0.022766113,-0.86309814,1.484375,0.0625,0.640625
549,0.33496094,-0.017150879,-0.8670044,1.0625,0.234375,0.5625
550,0.33154297,-0.0115356445,-0.8694458,0.890625,0.34375,0.59375
551,0.3322754,-0.0134887695,-0.8562622,1.171875,0.34375,0.546875
552,0.32910156,-0.015686035,-0.86846924,1.140625,0.03125,0.703125
553,0.33276367,-0.015197754,-0.864563,1.046875,0.0625,0.578125
554,0.33862305,-0.008605957,-0.87042236,1.0625,0.171875,0.734375
555,0.33447266,-0.016174316,-0.8682251,1.0625,-0.109375,0.71875
556,0.3305664,-0.0068969727,-0.8699341,1.0,-0.359375,0.828125
557,0.33642578,-0.0071411133,-0.8689575,0.609375,-0.75,0.875
558,0.33129883,-0.012268066,-0.8699341,0.515625,-0.8125,0.890625
559,0.33764648,-0.00030517578,-0.8748169,0.5625,-1.5625,1.109375
560,0.33862305,-0.0154418945,-0.85772705,0.515625,-1.75,1.15625
561,0.3461914,-0.0071411133,-0.8665161,0.25,-1.375,0.953125
562,0.3395996,-0.0068969727,-0.86383057,-0.375,-0.6875,0.71875
563,0.3413086,-0.002746582,-0.8706665,0.1875,-0.484375,0.671875
564,0.33935547,-0.012756348,-0.8599243,0.0625,-0.53125,0.65625
565,0.3388672,-0.0154418945,-0.8596802,0.234375,-0.5,0.71875
566,0.34350586,-0.007873535,-0.8596802,-0.109375,-0.078125,0.609375
567,0.34887695,-0.015686035,-0.86260986,-0.21875,-0.03125,0.53125
568,0.3408203,-0.008605957,-0.8623657,0.46875,-0.140625,0.671875
569,0.34301758,-0.012512207,-0.86431885,0.1875,-0.09375,0.6875
570,0.34399414,-0.014465332,-0.86016846,0.28125,-0.09375,0.625
571,0.34545898,-0.012756348,-0.8604126,0.3125,-0.046875,0.609375
572,0.34301758,-0.013000488,-0.86138916,0.3125,0.015625,0.609375
573,0.3400879,-0.010314941,-0.8569946,0.109375,0.265625,0.5625
574,0.3400879,-0.013000488,-0.8701782,-0.09375,0.1875,0.625
575,0.34277344,-0.011291504,-0.86431885,0.046875,-0.015625,0.578125
576,0.3400879,-0.019592285,-0.8616333,0.21875,0.078125,0.6875
577,0.34545898,-0.016418457,-0.8621216,0.46875,-0.140625,0.75
578,0.3395996,-0.01373291,-0.8633423,0.6875,-0.09375,0.703125
579,0.34545898,-0.016418457,-0.86553955,0.765625,-0.296875,0.78125
580,0.34057617,-0.014221191,-0.8591919,1.078125,-0.34375,0.859375
581,0.34375,-0.008850098,-0.86676025,0.75,-0.375,0.984375
582,0.34448242,-0.0076293945,-0.864563,0.578125,-0.296875,0.5
583,0.34057617,-0.010803223,-0.85723877,0.296875,-0.03125,0.546875
584,0.3413086,-0.011779785,-0.8640747,0.640625,-0.15625,0.6875
585,0.3449707,-0.0064086914,-0.86260986,0.4375,0.046875,0.734375
586,0.33666992,-0.0068969727,-0.8550415,0.203125,0.4375,0.578125
587,0.33935547,-0.013977051,-0.85772705,0.125,0.90625,0.546875
588,0.33862305,-0.018371582,-0.88653564,-0.265625,0.9375,0.453125
589,0.3413086,-0.013977051,-0.8677368,0.171875,0.796875,0.53125
590,0.33642578,-0.011779785,-0.864563,0.484375,0.65625,0.515625
591,0.33544922,-0.005432129,-0.8699341,0.453125,0.890625,0.546875
592,0.33374023,-0.012268066,-0.87213135,0.8125,0.71875,0.515625
593,0.33154297,-0.010070801,-0.86676025,1.203125,0.34375,0.59375
594,0.33618164,-0.014953613,-0.87506104,1.171875,0.3125,0.484375
595,0.3317871,-0.013000488,-0.86968994,1.234375,0.171875,0.609375
596,0.33422852,-0.0068969727,-0.8718872,0.96875,0.140625,0.46875
597,0.33276367,-0.0049438477,-0.8579712,1.046875,-0.34375,0.71875
598,0.33813477,-0.003967285,-0.861145,0.625,0.15625,0.421875
599,0.33276367,-0.010070801,-0.86798096,0.953125,0.21875,0.546875
600,0.33447266,-0.0032348633,-0.87628174,1.0,0.046875,0.59375
601,0.32543945,-0.010314941,-0.85821533,0.984375,-0.046875,0.65625
602,0.33081055,-0.004211426,-0.8682251,0.890625,0.109375,0.6875
603,0.32617188,-0.0115356445,-0.866272,0.890625,0.15625,0.84375
604,0.33764648,-0.00030517578,-0.86798096,1.078125,-0.40625,0.78125
605,0.33691406,-0.0051879883,-0.87164307,0.546875,-0.265625,0.828125
606,0.33398438,-0.003479004,-0.8652954,0.421875,-0.671875,0.8125
607,0.33203125,-0.003967285,-0.8777466,0.875,-0.6875,0.8125
608,0.33129883,-0.005432129,-0.8706665,0.875,-1.546875,1.171875
609,0.3347168,0.00018310547,-0.8604126,0.828125,-2.109375,1.171875
610,0.34033203,-0.00030517578,-0.8699341,-0.296875,-1.78125,0.890625
611,0.33789062,0.00018310547,-0.86383057,-0.578125,-1.546875,0.6875
612,0.3466797,-0.0071411133,-0.8748169,-0.5,-0.75,0.671875
613,0.34643555,-0.0044555664,-0.86724854,-0.71875,-0.71875,0.578125
614,0.3383789,-0.007385254,-0.8496704,-0.078125,-0.234375,0.703125
615,0.34887695,-0.0068969727,-0.8635864,-0.421875,-0.1875,0.546875
616,0.34399414,-0.0071411133,-0.861145,-0.46875,-0.328125,0.5625
617,0.34179688,-0.008117676,-0.8706665,-0.515625,-0.203125,0.40625
618,0.33935547,-0.006164551,-0.8557739,0.234375,-0.140625,0.671875
619,0.3408203,-0.011047363,-0.8674927,0.453125,-0.140625,0.71875
620,0.34350586,-0.0068969727,-0.8694458,0.15625,-0.28125,0.53125
621,0.34326172,-0.0095825195,-0.86260986,0.515625,-0.15625,0.78125
622,0.3449707,-0.011291504,-0.8687134,0.34375,-0.203125,0.546875
623,0.34838867,-0.00982666,-0.85479736,0.21875,-0.234375,0.671875
624,0.3479004,-0.008117676,-0.8652954,0.328125,0.03125,0.6875
625,0.34228516,-0.007873535,-0.8640747,0.40625,-0.171875,0.578125
626,0.34423828,-0.014709473,-0.85943604,0.296875,0.21875,0.65625
627,0.34448242,-0.007873535,-0.8555298,0.25,0.140625,0.609375
628,0.34936523,-0.013244629,-0.8648071,0.046875,0.171875,0.78125
629,0.34765625,-0.009094238,-0.85821533,-0.328125,0.4375,0.4375
630,0.34765625,-0.0071411133,-0.862854,-0.171875,0.359375,0.671875
631,0.34228516,-0.016418457,-0.862854,-0.03125,0.3125,0.671875
632,0.34545898,-0.0095825195,-0.864563,-0.078125,0.484375,0.671875
633,0.34545898,-0.0071411133,-0.8640747,-0.390625,0.4375,0.71875
634,0.34033203,-0.0154418945,-0.8648071,-0.53125,0.6875,0.609375
635,0.34179688,-0.0154418945,-0.8687134,-0.34375,0.265625,0.609375
636,0.33984375,-0.020812988,-0.8599243,0.046875,0.359375,0.671875
637,0.34423828,-0.01739502,-0.8706665,0.109375,0.375,0.671875
638,0.3388672,-0.021057129,-0.86309814,0.3125,0.5,0.640625
639,0.33911133,-0.019348145,-0.861145,0.609375,0.4375,0.734375
640,0.33374023,-0.019592285,-0.862854,0.953125,0.21875,0.6875
641,0.33422852,-0.01763916,-0.86798096,0.78125,0.25,0.578125
642,0.3359375,-0.018371582,-0.8670044,1.140625,0.390625,0.65625
643,0.34155273,-0.018615723,-0.8665161,1.265625,0.15625,0.8125
644,0.33447266,-0.012756348,-0.86309814,0.875,0.21875,0.46875
645,0.3371582,-0.016906738,-0.8648071,1.046875,0.375,0.734375
646,0.33935547,-0.008850098,-0.8796997,0.953125,0.15625,0.578125
647,0.3371582,-0.010559082,-0.85894775,0.828125,0.359375,0.65625
648,0.32910156,-0.01373291,-0.86846924,0.890625,0.1875,0.5625
649,0.3305664,-0.013000488,-0.864563,1.21875,0.296875,0.703125
650,0.33740234,-0.007873535,-0.86846924,0.65625,-0.109375,0.765625
651,0.3347168,-0.012268066,-0.86553955,0.546875,0.203125,0.65625
652,0.33154297,-0.008605957,-0.8777466,0.703125,-0.125,0.546875
653,0.33569336,-0.0134887695,-0.87506104,0.59375,0.015625,0.703125
654,0.3330078,-0.004211426,-0.8584595,0.859375,-0.046875,0.6875
655,0.33276367,-0.009338379,-0.86383057,0.703125,-0.03125,0.65625
656,0.33544922,-0.008850098,-0.8701782,0.5,-0.28125,0.6875
657,0.33398438,-0.0095825195,-0.8740845,0.546875,-0.5,0.75
658,0.3334961,-0.0071411133,-0.861145,0.546875,-1.578125,1.109375
659,0.3383789,-0.0032348633,-0.8677368,0.359375,-1.875,1.0
660,0.33740234,-0.011291504,-0.8604126,-0.125,-1.734375,0.734375
661,0.34765625,-0.006164551,-0.8674927,-0.484375,-1.515625,0.828125
662,0.34204102,-0.013000488,-0.85894775,-0.015625,-1.0625,0.625
663,0.34057617,-0.0032348633,-0.8599243,-0.25,-0.59375,0.671875
664,0.33813477,-0.013000488,-0.86260986,-0.015625,-0.40625,0.640625
665,0.34521484,-0.0044555664,-0.8713989,-0.046875,-0.453125,0.609375
666,0.3479004,-0.008117676,-0.8652954,-0.1875,-0.15625,0.546875
667,0.3474121,-0.016662598,-0.86431885,0.25,-0.203125,0.546875
668,0.34350586,-0.016418457,-0.8609009,0.28125,-0.21875,0.609375
669,0.3449707,-0.010070801,-0.86602783,0.515625,-0.25,0.84375
670,0.34716797,-0.006652832,-0.86138916,0.65625,-0.25,0.734375
671,0.34521484,-0.006652832,-0.8616333,0.625,-0.171875,0.5625
672,0.3479004,-0.00592041,-0.85943604,0.859375,-0.296875,0.765625
673,0.3400879,-0.008605957,-0.85235596,0.890625,-0.265625,0.75
674,0.34936523,-0.009338379,-0.8550415,0.46875,-0.28125,0.65625
675,0.3474121,-0.011779785,-0.8621216,0.5625,-0.171875,0.609375
676,0.3461914,-0.0037231445,-0.8623657,0.828125,-0.125,0.796875
677,0.34228516,-0.012268066,-0.86505127,0.609375,0.03125,0.671875
678,0.34350586,-0.013000488,-0.86309814,0.453125,0.015625,0.6875
679,0.34326172,-0.010314941,-0.8599243,0.171875,0.171875,0.765625
680,0.34228516,-0.016662598,-0.8621216,-0.140625,0.484375,0.78125
681,0.34594727,-0.0095825195,-0.8623657,-0.265625,0.359375,0.734375
682,0.33764648,-0.010314941,-0.8574829,-0.5625,0.59375,0.59375
683,0.34594727,-0.011291504,-0.8735962,-1.28125,0.640625,0.65625
684,0.34204102,-0.011291504,-0.86846924,-0.65625,0.75,0.640625
685,0.3425293,-0.021057129,-0.86260986,-0.53125,0.421875,0.734375
686,0.33911133,-0.023498535,-0.8665161,-0.171875,0.578125,0.796875
687,0.33398438,-0.019592285,-0.8587036,0.34375,0.5625,0.8125
688,0.33740234,-0.019836426,-0.87506104,0.484375,0.5625,0.65625
689,0.33618164,-0.019104004,-0.86553955,0.96875,0.40625,0.609375
690,0.33081055,-0.019104004,-0.85162354,0.8125,0.328125,0.671875
691,0.33618164,-0.014465332,-0.8674927,0.84375,0.171875,0.65625
692,0.33935547,-0.016418457,-0.8772583,0.84375,0.109375,0.59375
693,0.3334961,-0.018371582,-0.8587036,0.9375,0.265625,0.671875
694,0.3388672,-0.016906738,-0.87042236,1.21875,0.296875,0.6875
695,0.33496094,-0.013977051,-0.86431885,1.0625,0.109375,0.6875
696,0.33129883,-0.012512207,-0.8616333,1.0625,0.09375,0.5625
697,0.33203125,-0.008605957,-0.8726196,0.796875,0.203125,0.578125
698,0.33642578,-0.011779785,-0.8665161,0.984375,0.078125,0.53125
699,0.3310547,-0.009338379,-0.8689575,0.859375,0.0625,0.640625
700,0.3317871,-0.0076293945,-0.8701782,0.875,0.28125,0.6875
701,0.33398438,-0.00982666,-0.8694458,0.75,0.046875,0.546875
702,0.32836914,-0.004211426,-0.8694458,1.0,-0.4375,0.90625
703,0.3334961,-0.008850098,-0.87945557,0.34375,-0.625,0.8125
704,0.3408203,-0.007385254,-0.86676025,0.390625,-0.609375,0.828125
705,0.3310547,-0.006164551,-0.8694458,-0.09375,-0.75,0.765625
706,0.33911133,-0.0064086914,-0.880188,0.140625,-1.71875,1.0
707,0.33764648,-0.007873535,-0.8584595,-0.171875,-1.75,1.078125
708,0.3408203,-0.0071411133,-0.86016846,-0.109375,-1.296875,1.015625
709,0.3383789,-0.012512207,-0.86968994,0.171875,-0.921875,0.828125
710,0.34375,-0.012512207,-0.87286377,0.515625,-0.8125,0.703125
711,0.34570312,-0.007873535,-0.8550415,0.9375,-0.640625,0.609375
712,0.3388672,-0.0064086914,-0.85650635,0.734375,-0.484375,0.71875
713,0.34887695,-0.0068969727,-0.87457275,0.15625,-0.53125,0.625
714,0.3395996,-0.0071411133,-0.86505127,0.3125,-0.453125,0.671875
715,0.3486328,-0.012756348,-0.86187744,0.625,-0.578125,0.421875
716,0.34472656,-0.0056762695,-0.8569946,1.0,0.0,0.5625
717,0.34985352,-0.0056762695,-0.8587036,0.734375,-0.03125,0.59375
718,0.34472656,-0.010803223,-0.8640747,0.65625,-0.171875,0.671875
719,0.35205078,-0.007873535,-0.8623657,0.53125,-0.25,0.71875
720,0.3371582,-0.004211426,-0.8633423,0.0,-0.234375,0.5625
721,0.34545898,-0.009094238,-0.8584595,0.6875,-0.015625,0.734375
722,0.3449707,-0.00982666,-0.85894775,0.40625,-0.015625,0.703125
723,0.34545898,-0.004211426,-0.87091064,0.0625,0.125,0.6875
724,0.34277344,-0.008361816,-0.866272,-0.21875,0.171875,0.6875
725,0.34423828,-0.007873535,-0.8567505,0.28125,0.34375,0.625
726,0.34033203,-0.010314941,-0.8711548,-0.234375,-0.0625,0.625
727,0.34545898,-0.010314941,-0.85943604,-0.515625,0.328125,0.5625
728,0.34692383,-0.009094238,-0.8567505,-0.75,0.65625,0.5625
729,0.34643555,-0.0134887695,-0.864563,-0.71875,0.65625,0.609375
730,0.3449707,-0.01373291,-0.8635864,-0.59375,0.46875,0.75
731,0.34057617,-0.0154418945,-0.864563,-0.21875,0.4375,0.78125
732,0.34228516,-0.012756348,-0.86676025,-0.15625,0.5,0.609375
733,0.3425293,-0.018127441,-0.86383057,0.28125,0.28125,0.578125
734,0.3334961,-0.016418457,-0.8464966,0.90625,0.140625,0.703125
735,0.34106445,-0.016418457,-0.8633423,0.25,0.578125,0.734375
736,0.34155273,-0.020080566,-0.8584595,0.421875,0.359375,0.390625
737,0.34277344,-0.014221191,-0.8699341,0.921875,0.578125,0.59375
738,0.3322754,-0.014221191,-0.8687134,0.9375,0.625,0.671875
739,0.34057617,-0.012512207,-0.862854,0.9375,0.40625,0.640625
740,0.33569336,-0.013000488,-0.8694458,1.171875,0.140625,0.609375
741,0.33374023,-0.0115356445,-0.8587036,1.265625,0.046875,0.75
742,0.3322754,-0.010803223,-0.8711548,0.734375,0.28125,0.53125
743,0.33496094,-0.014709473,-0.87042236,0.65625,-0.03125,0.59375
744,0.33007812,-0.012023926,-0.8694458,0.734375,-0.15625,0.53125
745,0.33325195,-0.010559082,-0.862854,0.734375,0.046875,0.65625
746,0.33422852,-0.014709473,-0.8635864,0.890625,-0.078125,0.671875
747,0.32617188,-0.014709473,-0.86846924,0.53125,-0.09375,0.609375
748,0.3400879,-0.011779785,-0.8755493,1.25,-0.21875,0.8125
749,0.32421875,-0.00982666,-0.8447876,1.328125,-0.4375,0.9375
750,0.3388672,-0.011047363,-0.86431885,0.890625,-0.234375,0.640625
751,0.33569336,-0.010070801,-0.86309814,0.96875,-0.203125,0.765625
752,0.33764648,-0.004211426,-0.8674927,0.875,-0.25,0.6875
753,0.33081055,-0.003967285,-0.8633423,0.3125,-0.5625,0.734375
754,0.33935547,-0.006164551,-0.8711548,0.546875,-1.109375,1.0
755,0.33740234,-0.00079345703,-0.8674927,0.921875,-2.078125,1.15625
756,0.3383789,-0.003479004,-0.84942627,-0.4375,-1.78125,1.015625
757,0.3425293,-0.008850098,-0.86798096,-0.765625,-0.796875,0.75
758,0.33984375,-0.0032348633,-0.86846924,-0.625,-0.6875,0.765625
759,0.34277344,-0.0095825195,-0.86724854,-0.4375,-0.53125,0.625
760,0.3408203,-0.008850098,-0.8640747,-0.171875,-0.4375,0.546875
761,0.34326172,-0.0115356445,-0.8591919,0.21875,-0.46875,0.609375
762,0.3466797,-0.014221191,-0.8640747,0.328125,-0.359375,0.78125
763,0.3527832,-0.012756348,-0.8670044,0.453125,-0.40625,0.625
764,0.33911133,-0.0115356445,-0.8538208,0.78125,-0.421875,0.609375
765,0.3425293,-0.0071411133,-0.862854,0.4375,-0.171875,0.578125
766,0.34301758,-0.011047363,-0.8657837,0.546875,-0.21875,0.578125
767,0.34350586,-0.0076293945,-0.8648071,0.8125,-0.234375,0.6875
768,0.3449707,-0.008361816,-0.8604126,0.53125,-0.3125,0.71875
769,0.34985352,-0.008850098,-0.8640747,0.421875,-0.328125,0.578125
770,0.34423828,-0.011047363,-0.8599243,0.4375,-0.0625,0.734375
771,0.34106445,-0.007385254,-0.8652954,0.515625,0.0,0.65625
772,0.34155273,-0.01373291,-0.8633423,0.1875,-0.125,0.625
773,0.34228516,-0.012756348,-0.86187744,0.140625,0.125,0.703125
774,0.3461914,-0.0095825195,-0.861145,-0.25,0.328125,0.53125
775,0.34277344,-0.00982666,-0.8694458,-0.4375,0.453125,0.578125
776,0.34765625,-0.00982666,-0.8621216,-0.6875,0.453125,0.53125
777,0.34399414,-0.010070801,-0.862854,-1.0625,0.8125,0.625
778,0.3449707,-0.015686035,-0.86065674,-0.65625,0.84375,0.625
779,0.33740234,-0.022766113,-0.86016846,-0.453125,0.625,0.703125
780,0.3383789,-0.01763916,-0.8587036,-0.078125,0.453125,0.53125
781,0.33569336,-0.014221191,-0.85650635,0.078125,0.46875,0.40625
782,0.34033203,-0.01739502,-0.86383057,0.453125,0.421875,0.5625
783,0.3388672,-0.019836426,-0.86505127,0.53125,0.375,0.515625
784,0.33642578,-0.01739502,-0.8633423,0.8125,0.453125,0.65625
785,0.33691406,-0.014709473,-0.8748169,0.578125,0.328125,0.625
786,0.33544922,-0.02130127,-0.8652954,0.359375,0.015625,0.609375
