sample_no,accel_x,accel_y,accel_z,gyro_x,gyro_y,gyro_z
0,-0.97143555,-0.05279541,-0.33648682,-0.1875,-7.25,3.265625
1,-0.94091797,-0.04547119,-0.34918213,0.875,-9.140625,1.828125
2,-0.9760742,-0.047668457,-0.42486572,0.5,-8.5625,2.640625
3,-0.9814453,-0.051574707,-0.44122314,0.015625,-3.75,1.8125
4,-0.9609375,-0.050354004,-0.41827393,-0.71875,-0.6875,3.0
5,-0.9489746,-0.054260254,-0.36749268,0.03125,1.203125,2.4375
6,-0.96435547,-0.054260254,-0.40411377,-1.0,0.515625,1.28125
7,-0.9602051,-0.04815674,-0.3916626,-0.59375,3.421875,2.234375
8,-0.94018555,-0.066467285,-0.38360596,-1.109375,4.140625,2.109375
9,-0.9633789,-0.07110596,-0.39141846,-1.046875,3.15625,3.078125
10,-0.9602051,-0.082336426,-0.380188,-1.46875,2.46875,3.1875
11,-0.9782715,-0.090148926,-0.40338135,-1.375,2.796875,0.5625
12,-0.9562988,-0.09185791,-0.38336182,-1.03125,3.296875,-1.28125
13,-0.970459,-0.06695557,-0.36431885,-0.5,4.484375,-1.984375
14,-0.9777832,-0.04937744,-0.3579712,0.71875,4.515625,-0.1875
15,-0.92822266,-0.045715332,-0.3394165,1.421875,4.125,0.421875
16,-0.93481445,-0.02545166,-0.32037354,1.171875,0.046875,6.359375
17,-0.97314453,-0.06719971,-0.33917236,7.21875,-6.515625,10.6875
18,-0.9729004,-0.0869751,-0.38238525,3.109375,-6.375,6.328125
19,-0.9499512,-0.10845947,-0.37677002,-0.453125,-5.6875,4.171875
20,-0.96972656,-0.12750244,-0.37164307,0.0625,-6.984375,2.203125
21,-0.9562988,-0.14581299,-0.442688,-0.75,-6.984375,-2.203125
22,-0.95996094,-0.06304932,-0.39801025,2.734375,-6.4375,-3.359375
23,-0.98291016,-0.044006348,-0.43756104,1.71875,-6.6875,-3.828125
24,-0.88549805,-0.08135986,-0.44244385,-1.34375,-6.28125,0.71875
25,-0.9333496,-0.0869751,-0.47955322,-1.640625,-5.609375,1.21875
26,-0.9375,-0.07891846,-0.46954346,-0.140625,1.15625,0.734375
27,-0.9250488,-0.0791626,-0.46392822,-0.078125,3.40625,0.390625
28,-0.92626953,-0.0803833,-0.4517212,-1.25,2.25,1.484375
29,-0.92993164,-0.08258057,-0.43634033,-1.703125,1.0625,1.59375
30,-0.92626953,-0.09161377,-0.44830322,-0.71875,3.15625,0.375
31,-0.9326172,-0.101135254,-0.44171143,-1.4375,4.046875,-0.421875
32,-0.9536133,-0.101135254,-0.4734497,-3.203125,8.078125,-2.140625
33,-0.9499512,-0.06744385,-0.40924072,-0.140625,9.65625,-2.5
34,-0.9255371,-0.06378174,-0.3814087,1.28125,6.03125,-2.328125
35,-0.93481445,-0.066711426,-0.39019775,-0.734375,3.8125,-1.15625
36,-0.94140625,-0.06793213,-0.3826294,0.65625,1.453125,-0.328125
37,-0.95166016,-0.07232666,-0.40924072,0.421875,2.0625,0.40625
38,-0.9538574,-0.06744385,-0.40655518,0.375,2.25,0.453125
39,-0.9494629,-0.06573486,-0.3945923,0.5625,1.265625,1.109375
40,-0.9375,-0.08111572,-0.38897705,-0.28125,1.984375,0.984375
41,-0.95092773,-0.07574463,-0.3875122,-0.59375,0.953125,0.265625
42,-0.94921875,-0.07476807,-0.38726807,-0.859375,-0.359375,0.359375
43,-0.94873047,-0.06842041,-0.3892212,-0.140625,-1.765625,-0.40625
44,-0.9394531,-0.066223145,-0.37799072,-0.34375,-3.828125,-0.890625
45,-0.94189453,-0.07305908,-0.41583252,-0.390625,-4.625,0.09375
46,-0.9592285,-0.069885254,-0.4126587,0.875,-3.609375,-0.765625
47,-0.94628906,-0.06964111,-0.45220947,-0.390625,-3.3125,-0.0625
48,-0.9277344,-0.06915283,-0.43023682,-1.71875,-2.078125,0.71875
49,-0.9343262,-0.06719971,-0.4307251,-0.671875,-0.890625,0.421875
50,-0.95166016,-0.061828613,-0.44073486,-0.796875,0.21875,0.140625
51,-0.9379883,-0.0635376,-0.44586182,-0.84375,0.875,0.296875
52,-0.93847656,-0.062316895,-0.4343872,-1.09375,1.25,0.78125
53,-0.9313965,-0.074523926,-0.4368286,-1.234375,3.0,0.890625
54,-0.94921875,-0.078186035,-0.427063,-1.171875,2.578125,0.828125
55,-0.9453125,-0.07623291,-0.4295044,-0.703125,4.109375,0.609375
56,-0.9436035,-0.07501221,-0.41168213,-0.03125,3.75,0.171875
57,-0.95581055,-0.07305908,-0.42999268,-0.90625,5.09375,-0.859375
58,-0.9445801,-0.0713501,-0.4180298,-2.109375,6.4375,-1.375
59,-0.9746094,-0.07574463,-0.42437744,0.125,6.078125,-1.734375
60,-0.9104004,-0.06744385,-0.3796997,0.28125,7.734375,-1.265625
61,-0.92456055,-0.04522705,-0.315979,1.09375,3.484375,-0.0625
62,-0.9560547,-0.06085205,-0.3706665,-1.578125,0.984375,1.890625
63,-0.9523926,-0.06378174,-0.3567505,-0.96875,-2.734375,3.25
64,-0.9484863,-0.062805176,-0.3789673,-1.515625,-5.65625,3.890625
65,-0.9501953,-0.07623291,-0.4072876,-1.625,-6.125,4.96875
66,-0.96362305,-0.08087158,-0.41485596,-0.84375,-5.515625,2.984375
67,-0.9724121,-0.09820557,-0.472229,0.359375,-6.125,2.09375
68,-0.8935547,-0.09893799,-0.3880005,-1.28125,-3.421875,0.625
69,-0.9404297,-0.09088135,-0.41973877,0.515625,-6.640625,0.921875
70,-0.93725586,-0.08380127,-0.45880127,-0.625,-7.40625,1.53125
71,-0.9345703,-0.09259033,-0.46270752,-0.359375,-7.359375,1.578125
72,-0.9387207,-0.094055176,-0.5015259,-0.0625,-7.359375,1.515625
73,-0.9182129,-0.08502197,-0.47662354,0.859375,-1.484375,-0.046875
74,-0.92285156,-0.089416504,-0.4727173,0.296875,0.03125,-0.859375
75,-0.9086914,-0.081848145,-0.4644165,0.3125,1.671875,-1.234375
76,-0.91503906,-0.07745361,-0.47076416,0.0625,1.4375,-0.015625
77,-0.9248047,-0.08355713,-0.4776001,-0.96875,2.59375,0.40625
78,-0.9223633,-0.09088135,-0.48394775,-1.828125,4.359375,0.515625
79,-0.93359375,-0.09576416,-0.48980713,-2.65625,8.828125,-0.234375
80,-0.9362793,-0.09088135,-0.4805298,-1.375,10.0625,-1.046875
81,-0.93652344,-0.07647705,-0.40948486,1.296875,9.921875,-2.265625
82,-0.9123535,-0.08306885,-0.378479,1.921875,9.3125,-2.3125
83,-0.9421387,-0.070129395,-0.41192627,-0.171875,3.3125,-1.515625
84,-0.9338379,-0.066711426,-0.3945923,0.125,4.875,-1.328125
85,-0.94189453,-0.06890869,-0.4055786,0.0,5.34375,-0.09375
86,-0.93188477,-0.06866455,-0.364563,-0.8125,2.90625,0.203125
87,-0.9296875,-0.07867432,-0.380188,-1.515625,-0.390625,0.4375
88,-0.9682617,-0.06939697,-0.40167236,0.109375,-1.8125,-1.359375
89,-0.9387207,-0.070373535,-0.40167236,-0.171875,-1.390625,-0.953125
90,-0.9428711,-0.058410645,-0.38458252,0.125,-4.5625,-0.421875
91,-0.9277344,-0.06793213,-0.40655518,-0.34375,-9.15625,1.21875
92,-0.94873047,-0.07720947,-0.44122314,-0.75,-5.234375,-0.015625
93,-0.91796875,-0.07501221,-0.45025635,-0.8125,-2.890625,0.671875
94,-0.92822266,-0.07110596,-0.44317627,-1.203125,-0.984375,0.71875
95,-0.9350586,-0.06060791,-0.44683838,-1.25,-0.046875,0.921875
96,-0.94189453,-0.066223145,-0.442688,-1.203125,-1.3125,1.1875
97,-0.9296875,-0.07476807,-0.45367432,-0.640625,-0.828125,0.265625
98,-0.93310547,-0.07940674,-0.45513916,-1.0,0.046875,0.125
99,-0.9387207,-0.08355713,-0.4656372,-0.953125,1.421875,0.140625
100,-0.9248047,-0.13189697,-0.51763916,-5.609375,6.421875,-0.125
101,-1.0466309,-0.0413208,-0.6091919,-3.546875,20.953125,2.359375
102,-0.8186035,-0.054260254,-0.24176025,0.921875,24.671875,1.75
103,-0.9267578,-0.047180176,-0.26226807,-4.25,10.8125,0.890625
104,-0.94506836,-0.08306885,-0.3381958,-6.5625,1.5,5.78125
105,-0.9655762,-0.13214111,-0.32354736,0.640625,-10.625,2.640625
106,-0.9946289,-0.13555908,-0.43463135,4.53125,-14.71875,-3.5
107,-0.96484375,-0.08502197,-0.4607544,1.015625,3.03125,-4.078125
108,-0.9562988,-0.082092285,-0.4290161,2.890625,4.59375,-2.4375
109,-0.97216797,-0.07501221,-0.39971924,3.015625,5.3125,-2.234375
110,-0.94628906,-0.05328369,-0.378479,2.90625,5.984375,-3.828125
111,-0.9572754,-0.055480957,-0.3706665,1.1875,1.484375,-0.390625
112,-0.9411621,-0.054992676,-0.3435669,-0.640625,-0.859375,0.921875
113,-0.9453125,-0.06451416,-0.35845947,-2.328125,-3.84375,2.078125
114,-0.95410156,-0.06524658,-0.38116455,-2.109375,-4.953125,2.484375
115,-0.9589844,-0.07940674,-0.40045166,0.21875,-11.984375,2.0625
116,-0.95043945,-0.09088135,-0.42755127,1.625,-11.125,0.890625
117,-0.9448242,-0.0725708,-0.46783447,0.09375,-6.546875,0.359375
118,-0.92407227,-0.070129395,-0.44586182,-0.03125,-4.0,0.890625
119,-0.9304199,-0.07501221,-0.4360962,0.375,-1.078125,-0.265625
120,-0.94018555,-0.051086426,-0.4817505,-0.453125,-0.46875,-0.203125
121,-0.92529297,-0.055480957,-0.42803955,-1.203125,0.703125,0.234375
122,-0.9421387,-0.06427002,-0.472229,-1.484375,0.15625,0.65625
123,-0.9238281,-0.07696533,-0.4451294,-1.421875,-0.125,1.1875
124,-0.9289551,-0.077697754,-0.45147705,-1.359375,0.78125,0.78125
125,-0.91918945,-0.07696533,-0.45147705,-0.78125,1.421875,0.484375
126,-0.9362793,-0.07696533,-0.4492798,-0.203125,2.453125,0.34375
127,-0.93603516,-0.08282471,-0.46636963,-0.125,4.421875,-0.015625
128,-0.94140625,-0.07550049,-0.4631958,-2.09375,8.34375,-0.640625
129,-0.9748535,-0.07550049,-0.4812622,-2.296875,10.671875,-0.859375
130,-0.96777344,-0.058654785,-0.4331665,0.859375,14.671875,-2.1875
131,-0.923584,-0.05279541,-0.31011963,2.046875,15.40625,-2.46875
132,-0.94677734,-0.06524658,-0.3460083,0.875,3.703125,0.5
133,-0.94628906,-0.06451416,-0.34649658,-0.8125,1.359375,1.609375
134,-0.9682617,-0.06036377,-0.36724854,-1.0625,-1.046875,1.28125
135,-0.9543457,-0.08062744,-0.37994385,-0.53125,-1.546875,0.640625
136,-0.95654297,-0.07159424,-0.36553955,0.078125,-2.484375,-0.109375
137,-0.9523926,-0.0569458,-0.3711548,-0.234375,-5.140625,-0.046875
138,-0.9465332,-0.062316895,-0.40411377,1.1875,-14.0,1.171875
139,-0.9416504,-0.08355713,-0.4192505,1.359375,-10.15625,2.4375
140,-0.93969727,-0.06744385,-0.44195557,-1.265625,-6.46875,1.21875
141,-0.9160156,-0.07281494,-0.42193604,-0.4375,-3.390625,1.171875
142,-0.9416504,-0.06866455,-0.46759033,-0.21875,-2.4375,-0.125
143,-0.94311523,-0.059631348,-0.46759033,0.375,-0.953125,0.734375
144,-0.9326172,-0.057678223,-0.44610596,-0.625,-0.578125,1.203125
145,-0.9277344,-0.06524658,-0.44659424,-1.1875,-0.234375,1.734375
146,-0.92993164,-0.08013916,-0.46173096,-0.953125,0.421875,1.703125
147,-0.9350586,-0.081604004,-0.45684814,-0.921875,1.671875,0.765625
148,-0.9350586,-0.077941895,-0.44586182,-0.75,2.171875,0.59375
149,-0.9355469,-0.081604004,-0.44781494,-0.296875,3.265625,0.21875
150,-0.9291992,-0.074523926,-0.45513916,-0.6875,6.859375,-0.671875
151,-0.95532227,-0.081604004,-0.45343018,-2.0625,10.609375,-1.109375
152,-0.9658203,-0.07354736,-0.43829346,-0.3125,12.859375,-2.296875
153,-0.9584961,-0.062072754,-0.37823486,-0.96875,12.328125,-4.71875
154,-0.94677734,-0.06768799,-0.3850708,0.453125,5.640625,-4.796875
155,-0.93847656,-0.043518066,-0.3928833,2.875,4.9375,-2.015625
156,-0.9321289,-0.042541504,-0.3604126,0.03125,5.015625,1.0625
157,-0.9658203,-0.04840088,-0.36260986,-0.921875,2.203125,1.8125
158,-0.9567871,-0.07110596,-0.3555298,-1.03125,0.421875,1.125
159,-0.9719238,-0.06939697,-0.3850708,-0.421875,-1.328125,0.203125
160,-0.9484863,-0.05230713,-0.3587036,0.125,-1.390625,-0.671875
161,-0.94506836,-0.049621582,-0.3694458,-0.359375,-4.953125,-0.671875
162,-0.9494629,-0.05596924,-0.40216064,0.171875,-9.25,0.84375
163,-0.951416,-0.05596924,-0.3826294,-0.546875,-9.46875,2.140625
164,-0.94677734,-0.069885254,-0.43585205,-1.71875,-6.84375,2.359375
165,-0.9477539,-0.066467285,-0.45343018,-0.5,-6.03125,1.40625
166,-0.9248047,-0.066223145,-0.42926025,0.234375,-3.140625,0.0625
167,-0.94555664,-0.05621338,-0.45611572,0.03125,-2.046875,0.328125
168,-0.9411621,-0.050354004,-0.46002197,-0.640625,-0.71875,1.078125
169,-0.9313965,-0.06329346,-0.4602661,-1.28125,-1.046875,1.75
170,-0.9301758,-0.06744385,-0.45440674,-1.3125,0.71875,1.171875
171,-0.93725586,-0.06451416,-0.46539307,-1.09375,1.953125,0.484375
172,-0.93652344,-0.06573486,-0.45269775,-0.671875,3.828125,0.65625
173,-0.9284668,-0.074035645,-0.45391846,-0.859375,5.34375,0.8125
174,-0.95092773,-0.07086182,-0.4595337,-1.46875,8.0,0.25
175,-0.9589844,-0.06793213,-0.43658447,-1.296875,9.796875,-0.46875
176,-0.9645996,-0.06011963,-0.40509033,-0.125,8.421875,-0.890625
177,-0.9328613,-0.057434082,-0.37457275,-0.21875,9.578125,-1.296875
178,-0.9440918,-0.05645752,-0.38311768,-2.375,5.15625,-0.640625
179,-0.9567871,-0.05596924,-0.3867798,-1.796875,5.046875,0.828125
180,-0.9658203,-0.066467285,-0.37774658,-0.703125,3.921875,0.578125
181,-0.9499512,-0.07354736,-0.36895752,-0.1875,2.78125,0.625
182,-0.94799805,-0.07281494,-0.35894775,-0.65625,0.96875,0.453125
183,-0.9667969,-0.06793213,-0.38189697,-0.984375,-2.046875,0.28125
184,-0.9519043,-0.06915283,-0.36114502,-0.296875,-2.109375,-1.140625
185,-0.9597168,-0.057434082,-0.3965454,0.5625,-0.953125,-0.6875
186,-0.95214844,-0.043273926,-0.3587036,0.375,-3.765625,-0.265625
187,-0.9387207,-0.06500244,-0.4043579,0.390625,-10.390625,0.6875
188,-0.9577637,-0.07330322,-0.4241333,-1.265625,-9.234375,0.5
189,-0.92089844,-0.069885254,-0.4319458,-0.390625,-9.21875,-0.140625
190,-0.94628906,-0.057922363,-0.46905518,1.6875,-5.8125,-0.578125
191,-0.9338379,-0.04815674,-0.44732666,0.078125,-0.484375,-0.625
192,-0.94091797,-0.04888916,-0.46466064,0.1875,-0.703125,-0.265625
193,-0.9309082,-0.051086426,-0.45855713,-0.765625,1.046875,0.875
194,-0.9289551,-0.054992676,-0.43341064,-1.1875,0.796875,1.609375
195,-0.92993164,-0.06719971,-0.4500122,-1.125,0.703125,1.265625
196,-0.93115234,-0.06329346,-0.44903564,-0.828125,1.6875,0.78125
197,-0.9338379,-0.061340332,-0.45391846,-0.765625,3.046875,0.71875
198,-0.93725586,-0.062072754,-0.4590454,-1.171875,4.6875,1.234375
199,-0.939209,-0.06695557,-0.4529419,-1.8125,6.640625,1.15625
200,-0.95581055,-0.07354736,-0.4451294,-2.34375,8.625,0.640625
201,-0.95654297,-0.066711426,-0.42266846,-0.34375,7.25,-0.5625
202,-0.92041016,-0.07501221,-0.3875122,0.6875,8.9375,-1.0625
203,-0.93359375,-0.0635376,-0.3892212,0.28125,4.859375,-0.5
204,-0.96875,-0.055480957,-0.36627197,-0.40625,4.65625,0.875
205,-0.94677734,-0.05230713,-0.37921143,-0.796875,6.25,1.546875
206,-0.96875,-0.059631348,-0.36724854,0.5625,4.203125,1.28125
207,-0.9604492,-0.07672119,-0.37261963,0.015625,1.265625,0.328125
208,-0.9597168,-0.06744385,-0.37506104,0.359375,0.890625,-0.375
209,-0.9526367,-0.059387207,-0.36627197,-0.125,-1.140625,-0.375
210,-0.9499512,-0.05230713,-0.35333252,0.234375,-3.328125,-0.203125
211,-0.94677734,-0.054748535,-0.36676025,1.25,-9.984375,0.265625
212,-0.94970703,-0.06011963,-0.41827393,0.8125,-11.5,0.578125
213,-0.95336914,-0.066223145,-0.44439697,-0.921875,-7.703125,1.03125
214,-0.9519043,-0.07232666,-0.41851807,-2.125,-5.5625,1.203125
215,-0.95043945,-0.07745361,-0.46539307,-0.671875,-4.484375,-0.5
216,-0.92285156,-0.074279785,-0.47491455,-0.34375,-1.078125,-1.984375
217,-0.9301758,-0.039855957,-0.46368408,-1.609375,0.265625,-0.65625
218,-0.9301758,-0.058166504,-0.4607544,-1.078125,1.078125,0.53125
219,-0.92993164,-0.058654785,-0.4451294,-1.015625,1.46875,1.609375
220,-0.9355469,-0.07110596,-0.4421997,-0.734375,1.140625,1.234375
221,-0.9316406,-0.07574463,-0.4505005,-0.421875,2.765625,0.671875
222,-0.93237305,-0.06011963,-0.45196533,-0.21875,3.265625,0.234375
223,-0.9406738,-0.074523926,-0.47906494,-1.21875,5.40625,0.546875
224,-0.93188477,-0.06793213,-0.43463135,-2.578125,7.078125,-0.140625
225,-0.9699707,-0.0713501,-0.48101807,-2.390625,9.546875,-0.046875
226,-0.9748535,-0.07232666,-0.39801025,3.21875,8.625,-1.6875
227,-0.90625,-0.051574707,-0.31427002,3.78125,9.296875,-2.125
228,-0.9453125,-0.04058838,-0.3718872,1.625,2.921875,-0.25
229,-0.95092773,-0.042053223,-0.3892212,0.09375,4.0,0.375
230,-0.96777344,-0.055725098,-0.40045166,-0.703125,3.0625,1.0625
231,-0.95458984,-0.051574707,-0.37530518,-0.46875,4.515625,0.71875
232,-0.96655273,-0.05987549,-0.378479,0.421875,2.140625,0.203125
233,-0.95581055,-0.054748535,-0.36749268,0.46875,1.984375,0.0625
234,-0.94970703,-0.058410645,-0.37042236,-0.078125,0.609375,0.140625
235,-0.9719238,-0.058654785,-0.38189697,0.28125,0.125,-0.203125
236,-0.94799805,-0.05206299,-0.37164307,0.078125,-0.46875,-0.34375
237,-0.95532227,-0.045715332,-0.37701416,-0.59375,-0.375,0.234375
238,-0.95458984,-0.059631348,-0.3862915,-0.46875,-0.96875,0.21875
239,-0.9580078,-0.051574707,-0.3814087,-0.921875,-0.90625,0.625
240,-0.96191406,-0.058654785,-0.40631104,-1.234375,-1.0,1.28125
241,-0.953125,-0.054748535,-0.39093018,-0.84375,-0.09375,0.84375
242,-0.96191406,-0.058654785,-0.40386963,-0.921875,-0.078125,0.40625
243,-0.95751953,-0.057434082,-0.39337158,-1.640625,1.296875,0.53125
244,-0.94921875,-0.043518066,-0.3735962,-2.8125,1.640625,0.46875
245,-0.95581055,-0.047668457,-0.38287354,-2.96875,0.15625,1.390625
246,-0.9057617,-0.06109619,-0.3274536,-2.9375,-8.640625,3.9375
247,-0.99780273,-0.089416504,-0.42510986,-1.921875,-9.125,1.8125
248,-0.9621582,-0.074523926,-0.40875244,-1.734375,-4.59375,-1.296875
249,-0.91845703,-0.09259033,-0.44708252,-1.484375,-3.609375,-1.484375
250,-0.9453125,-0.07891846,-0.43804932,-0.546875,-2.84375,-1.171875
251,-0.9343262,-0.06817627,-0.43634033,-0.03125,0.453125,-1.953125
252,-0.9472656,-0.046447754,-0.43511963,-0.421875,1.1875,-1.203125
253,-0.9387207,-0.050109863,-0.42852783,-0.421875,1.109375,0.125
254,-0.939209,-0.061584473,-0.4336548,0.234375,1.375,0.4375
255,-0.9484863,-0.054748535,-0.4348755,0.515625,1.5625,0.203125
256,-0.9379883,-0.058410645,-0.43048096,0.21875,1.71875,0.328125
257,-0.93847656,-0.06695557,-0.4277954,0.1875,2.1875,0.53125
258,-0.94091797,-0.06036377,-0.425354,-0.0625,1.984375,0.90625
259,-0.93066406,-0.06329346,-0.41119385,-0.15625,1.953125,0.703125
260,-0.9375,-0.059387207,-0.4199829,-0.328125,2.625,0.328125
261,-0.9370117,-0.06378174,-0.44000244,-0.359375,3.828125,0.375
262,-0.93896484,-0.070617676,-0.43927002,-2.625,4.9375,0.15625
263,-0.9711914,-0.07550049,-0.45098877,-3.484375,6.046875,1.0625
264,-0.935791,-0.062316895,-0.3899536,-0.265625,6.890625,-0.125
265,-0.9194336,-0.050598145,-0.37408447,-0.65625,7.46875,0.4375
266,-0.951416,-0.059387207,-0.36016846,-0.484375,3.421875,2.453125
267,-0.96435547,-0.07305908,-0.38580322,-1.515625,2.5,1.890625
268,-0.9592285,-0.06890869,-0.3640747,-0.25,4.15625,1.328125
269,-0.9584961,-0.062561035,-0.36358643,0.140625,2.375,0.75
270,-0.9562988,-0.07867432,-0.36724854,0.140625,0.75,0.71875
271,-0.9641113,-0.07354736,-0.36920166,0.203125,-0.8125,0.515625
272,-0.95825195,-0.07110596,-0.37579346,0.234375,-1.546875,0.1875
273,-0.96655273,-0.06964111,-0.3880005,0.578125,-0.34375,0.296875
274,-0.9589844,-0.06695557,-0.38067627,0.5,-1.625,-0.140625
275,-0.967041,-0.066467285,-0.38336182,0.3125,-1.796875,-0.203125
276,-0.95996094,-0.06964111,-0.39117432,-0.0625,-1.5625,-0.1875
277,-0.95581055,-0.06011963,-0.39483643,0.125,-1.125,-0.203125
278,-0.954834,-0.05718994,-0.38604736,-0.40625,-0.640625,0.078125
279,-0.95336914,-0.055725098,-0.38238525,-0.359375,-1.609375,0.25
280,-0.9465332,-0.06036377,-0.38482666,0.25,-4.234375,0.484375
281,-0.9433594,-0.06793213,-0.40289307,1.09375,-7.65625,0.984375
282,-0.9519043,-0.07525635,-0.42340088,-0.265625,-5.328125,0.421875
283,-0.9523926,-0.07598877,-0.4524536,-2.40625,-3.640625,0.375
284,-0.9460449,-0.06890869,-0.41729736,-1.125,-1.53125,-0.28125
285,-0.9484863,-0.069885254,-0.45098877,-0.03125,0.28125,-1.0
286,-0.92626953,-0.061584473,-0.4360962,-0.046875,0.78125,-1.265625
287,-0.94018555,-0.04864502,-0.43463135,-0.4375,1.4375,-0.671875
288,-0.9345703,-0.058898926,-0.4277954,-0.890625,1.375,-0.140625
289,-0.9345703,-0.046203613,-0.43341064,-0.625,1.859375,0.171875
290,-0.93774414,-0.058166504,-0.42510986,-0.71875,1.609375,0.359375
291,-0.93652344,-0.055725098,-0.42218018,-0.25,2.359375,0.359375
292,-0.9404297,-0.059387207,-0.41412354,-0.296875,1.578125,0.875
293,-0.9499512,-0.061828613,-0.42974854,-0.34375,1.515625,1.140625
294,-0.9279785,-0.06939697,-0.41485596,-0.515625,1.546875,0.90625
295,-0.94677734,-0.061828613,-0.42974854,-0.515625,2.171875,0.59375
296,-0.93969727,-0.062805176,-0.425354,-1.078125,2.5625,0.078125
297,-0.9477539,-0.06085205,-0.43389893,-1.828125,4.53125,-0.171875
298,-0.95336914,-0.07110596,-0.43145752,-0.625,5.15625,-0.46875
299,-0.9436035,-0.05718994,-0.3945923,0.5625,4.140625,-0.328125
300,-0.93774414,-0.039855957,-0.36480713,0.046875,3.3125,-0.453125
301,-0.9477539,-0.04156494,-0.35357666,-1.171875,0.265625,1.3125
302,-0.9313965,-0.05255127,-0.36309814,-2.078125,-4.15625,2.484375
303,-0.96728516,-0.07354736,-0.44024658,1.921875,-11.625,1.859375
304,-0.9650879,-0.077941895,-0.4595337,1.265625,-8.078125,1.53125
305,-0.920166,-0.069885254,-0.4121704,0.5625,-1.921875,-0.703125
306,-0.9211426,-0.06866455,-0.4475708,0.640625,-1.171875,-1.015625
307,-0.9238281,-0.05230713,-0.4553833,-0.34375,-0.203125,-0.484375
308,-0.9387207,-0.05230713,-0.46099854,-0.171875,2.625,-0.40625
309,-0.9370117,-0.057434082,-0.46270752,-1.78125,5.203125,0.40625
310,-0.9638672,-0.03765869,-0.46246338,-5.0625,9.0,0.390625
311,-0.9567871,-0.051818848,-0.41070557,-3.671875,10.453125,1.453125
312,-0.90527344,-0.070617676,-0.36138916,-2.109375,8.921875,0.46875
313,-0.9511719,-0.06719971,-0.36114502,-1.390625,4.40625,1.4375
314,-0.9719238,-0.05670166,-0.38336182,0.4375,1.609375,2.359375
315,-0.92041016,-0.07745361,-0.3106079,-1.515625,-9.140625,1.0625
316,-0.9436035,-0.07208252,-0.47296143,-3.984375,10.1875,0.828125
317,-0.9519043,-0.050842285,-0.36431885,-2.125,8.71875,0.09375
318,-0.9499512,-0.08648682,-0.42730713,-2.328125,1.6875,-1.25
319,-0.9604492,-0.07720947,-0.4487915,1.90625,1.359375,-2.21875
320,-0.91381836,-0.062805176,-0.38482666,1.421875,2.9375,-2.4375
321,-0.9291992,-0.0647583,-0.40679932,0.03125,2.1875,-0.171875
322,-0.9350586,-0.059143066,-0.40460205,-0.921875,1.296875,0.359375
323,-0.9250488,-0.06719971,-0.39215088,-0.984375,-3.328125,1.578125
324,-0.93896484,-0.07696533,-0.40704346,0.78125,-8.640625,1.53125
325,-0.9345703,-0.08453369,-0.46759033,1.5,-7.15625,0.484375
326,-0.93359375,-0.07672119,-0.46368408,-0.71875,-4.140625,-0.625
327,-0.93188477,-0.070129395,-0.45489502,-1.03125,-2.78125,0.1875
328,-0.9182129,-0.07574463,-0.46710205,0.765625,-1.53125,-0.21875
329,-0.92529297,-0.05621338,-0.45684814,0.21875,-0.03125,-0.59375
330,-0.9243164,-0.054504395,-0.4673462,-0.15625,-0.390625,0.1875
331,-0.91308594,-0.05621338,-0.4668579,-0.1875,0.09375,1.015625
332,-0.9152832,-0.069885254,-0.46392822,-0.28125,0.953125,0.90625
333,-0.91625977,-0.066711426,-0.46954346,-0.5625,1.421875,0.734375
334,-0.9230957,-0.06549072,-0.4668579,-0.0625,2.25,0.828125
335,-0.9187012,-0.06549072,-0.46368408,-0.34375,4.140625,0.859375
336,-0.9223633,-0.0725708,-0.4680786,-1.328125,5.546875,1.21875
337,-0.93115234,-0.06719971,-0.4517212,-1.953125,6.75,1.6875
338,-0.9243164,-0.07330322,-0.4434204,-2.609375,6.0,1.0
339,-0.9230957,-0.081848145,-0.35650635,-2.171875,4.40625,0.4375
340,-0.9499512,-0.07110596,-0.4319458,-0.640625,1.234375,-1.140625
341,-0.93896484,-0.078430176,-0.43756104,0.640625,-0.65625,-0.375
342,-0.9165039,-0.07696533,-0.42193604,-0.53125,-0.578125,0.03125
343,-0.9387207,-0.06793213,-0.43048096,-0.859375,0.265625,0.5
344,-0.9296875,-0.07501221,-0.41583252,-0.703125,-2.140625,0.53125
345,-0.93115234,-0.074523926,-0.42974854,0.84375,-5.703125,0.328125
346,-0.9326172,-0.07891846,-0.45855713,1.515625,-5.234375,-0.375
347,-0.9350586,-0.061584473,-0.46392822,0.234375,-0.40625,-1.265625
348,-0.9099121,-0.07232666,-0.46588135,0.765625,-0.125,-1.765625
349,-0.93237305,-0.07110596,-0.47320557,0.03125,1.0,-1.578125
350,-0.91625977,-0.05328369,-0.46881104,0.078125,2.4375,-1.859375
351,-0.9279785,-0.041809082,-0.4727173,-0.59375,2.25,-0.796875
352,-0.9316406,-0.05255127,-0.45343018,-1.15625,1.3125,0.640625
353,-0.9211426,-0.066223145,-0.4517212,-1.0,1.34375,0.953125
354,-0.920166,-0.061828613,-0.4595337,-0.421875,1.90625,0.71875
355,-0.92163086,-0.06304932,-0.456604,-0.28125,2.09375,0.875
356,-0.9243164,-0.06573486,-0.4446411,-0.6875,2.265625,1.15625
357,-0.93188477,-0.066467285,-0.44708252,-0.671875,2.703125,1.375
358,-0.9296875,-0.06011963,-0.44903564,-1.25,2.296875,1.890625
359,-0.9375,-0.06378174,-0.42999268,-0.953125,2.0625,2.28125
360,-0.9213867,-0.074035645,-0.43511963,-1.6875,2.140625,2.078125
361,-0.9355469,-0.06842041,-0.43951416,-2.28125,1.796875,1.4375
362,-0.9472656,-0.06036377,-0.44561768,-1.4375,2.5625,1.640625
363,-0.92529297,-0.05987549,-0.43096924,-1.640625,-0.1875,2.171875
364,-0.9279785,-0.08331299,-0.42803955,-0.828125,0.203125,2.65625
365,-0.9345703,-0.082336426,-0.4500122,-0.921875,3.546875,2.921875
366,-0.9411621,-0.08917236,-0.440979,-1.265625,3.265625,3.421875
367,-0.9328613,-0.11065674,-0.4368286,-1.796875,1.78125,2.53125
368,-0.94628906,-0.093811035,-0.41680908,-1.078125,3.21875,1.765625
369,-0.9279785,-0.10479736,-0.4192505,-0.578125,1.03125,0.921875
370,-0.9404297,-0.10015869,-0.43463135,0.109375,0.78125,0.1875
371,-0.9370117,-0.1026001,-0.42437744,0.609375,-0.578125,-0.546875
372,-0.93237305,-0.09649658,-0.42364502,0.75,-0.140625,-1.5
373,-0.93652344,-0.0803833,-0.43780518,0.265625,-0.328125,-1.5
374,-0.92993164,-0.078430176,-0.41973877,0.703125,-0.8125,-1.328125
375,-0.92407227,-0.066467285,-0.4060669,1.125,-3.859375,-0.703125
376,-0.9272461,-0.08477783,-0.43023682,0.3125,-8.390625,0.46875
377,-0.91625977,-0.11138916,-0.48736572,-0.953125,-8.09375,0.0625
378,-0.93115234,-0.085754395,-0.49346924,0.53125,-3.71875,-1.78125
379,-0.9135742,-0.09185791,-0.48345947,0.375,-1.578125,-2.828125
380,-0.90771484,-0.07183838,-0.48223877,0.3125,0.875,-2.859375
381,-0.9172363,-0.051574707,-0.4776001,-0.28125,1.5,-1.4375
382,-0.9074707,-0.050109863,-0.4649048,-0.59375,2.125,-0.109375
383,-0.9108887,-0.070129395,-0.46368408,-0.734375,1.375,0.9375
384,-0.9128418,-0.074523926,-0.46881104,-1.03125,1.8125,1.328125
385,-0.92626953,-0.07086182,-0.5005493,-1.03125,1.8125,1.5625
386,-0.9121094,-0.081604004,-0.46246338,-1.515625,4.578125,1.53125
387,-0.9189453,-0.07940674,-0.4973755,-2.859375,5.515625,2.3125
388,-0.94921875,-0.07989502,-0.45220947,-0.6875,5.890625,2.421875
389,-0.90234375,-0.08282471,-0.38848877,0.546875,7.359375,0.578125
390,-0.90893555,-0.06768799,-0.3945923,-0.640625,4.3125,-0.015625
391,-0.96533203,-0.061340332,-0.44732666,-1.703125,2.015625,3.671875
392,-0.93530273,-0.0881958,-0.44049072,-0.8125,2.203125,3.9375
393,-0.9440918,-0.10235596,-0.44073486,-1.0625,0.828125,3.578125
394,-0.9355469,-0.10430908,-0.41680908,-0.21875,0.09375,2.796875
395,-0.9406738,-0.11260986,-0.44708252,0.265625,0.8125,1.953125
396,-0.9484863,-0.1116333,-0.4336548,0.21875,-1.203125,0.90625
397,-0.9370117,-0.097229004,-0.43658447,0.09375,-0.8125,-0.3125
398,-0.9367676,-0.0960083,-0.42559814,-0.21875,-1.65625,-0.75
399,-0.9213867,-0.08306885,-0.41461182,0.1875,-4.53125,-0.703125
400,-0.92822266,-0.094055176,-0.43267822,0.265625,-9.15625,-1.296875
401,-0.9194336,-0.109191895,-0.49346924,1.453125,-7.28125,-1.90625
402,-0.9250488,-0.08502197,-0.4998169,0.0,-3.3125,-2.84375
403,-0.8911133,-0.093566895,-0.49591064,-0.21875,-0.546875,-2.34375
404,-0.9082031,-0.078186035,-0.4907837,-0.953125,-0.171875,-1.515625
405,-0.92089844,-0.06109619,-0.49371338,-0.828125,0.625,-0.484375
406,-0.9033203,-0.066711426,-0.46466064,-0.203125,1.671875,0.09375
407,-0.9099121,-0.06695557,-0.46710205,-0.765625,0.953125,0.6875
408,-0.90844727,-0.07525635,-0.4656372,-0.859375,2.4375,1.25
409,-0.90600586,-0.08843994,-0.4776001,-0.84375,2.5625,1.0625
410,-0.9157715,-0.085754395,-0.48492432,-0.796875,3.921875,1.40625
411,-0.9160156,-0.08477783,-0.4680786,-0.890625,4.984375,1.421875
412,-0.91748047,-0.08721924,-0.46881104,-2.15625,4.796875,1.234375
413,-0.94140625,-0.08477783,-0.46881104,-1.96875,5.078125,0.109375
414,-0.9255371,-0.081604004,-0.4451294,-1.625,5.265625,-0.609375
415,-0.9094238,-0.08135986,-0.42755127,-2.609375,4.171875,-0.484375
416,-0.9172363,-0.08502197,-0.4282837,-1.390625,3.96875,-0.25
417,-0.93115234,-0.08648682,-0.44195557,-0.84375,1.703125,0.28125
418,-0.93188477,-0.08428955,-0.4446411,-0.28125,2.25,1.265625
419,-0.92993164,-0.09454346,-0.4439087,-0.703125,1.71875,1.421875
420,-0.935791,-0.090148926,-0.43658447,-0.375,2.109375,1.765625
421,-0.9309082,-0.10479736,-0.42633057,-0.578125,0.9375,1.0
422,-0.9355469,-0.10406494,-0.43170166,-0.265625,0.125,0.46875
423,-0.93774414,-0.1026001,-0.43023682,0.296875,0.46875,-0.0625
424,-0.9436035,-0.09161377,-0.42193604,0.703125,-0.84375,-1.3125
425,-0.9338379,-0.08453369,-0.42486572,1.53125,-2.71875,-1.84375
426,-0.93188477,-0.078186035,-0.42095947,2.234375,-4.984375,-1.21875
427,-0.91308594,-0.078186035,-0.43829346,1.53125,-8.203125,0.515625
428,-0.93896484,-0.089416504,-0.49542236,0.828125,-4.265625,-0.734375
429,-0.9152832,-0.07965088,-0.48980713,-1.5,-0.21875,-1.4375
430,-0.9206543,-0.08526611,-0.48565674,-0.40625,3.21875,-1.890625
431,-0.92993164,-0.07574463,-0.48272705,-1.21875,3.03125,-1.328125
432,-0.91381836,-0.070617676,-0.44049072,-1.5,1.703125,-0.203125
433,-0.9260254,-0.059631348,-0.4595337,-1.53125,1.625,0.8125
434,-0.9187012,-0.07525635,-0.45733643,-1.3125,0.90625,1.515625
435,-0.9211426,-0.08453369,-0.45391846,-0.609375,1.90625,0.9375
436,-0.9296875,-0.07720947,-0.4697876,-0.46875,3.328125,0.40625
437,-0.9296875,-0.08135986,-0.47418213,-1.34375,3.953125,0.359375
438,-0.923584,-0.07623291,-0.4541626,-2.328125,5.53125,0.328125
439,-0.9230957,-0.07989502,-0.44830322,-1.71875,3.25,0.671875
440,-0.9165039,-0.078430176,-0.4199829,-1.578125,3.0,0.8125
441,-0.93969727,-0.08062744,-0.44000244,-1.484375,4.171875,0.890625
442,-0.9316406,-0.07281494,-0.41607666,-0.53125,4.109375,1.46875
443,-0.9375,-0.08526611,-0.42340088,0.140625,3.828125,1.265625
444,-0.9362793,-0.08282471,-0.41290283,-0.828125,1.796875,0.71875
445,-0.9421387,-0.085998535,-0.42388916,-0.84375,0.3125,0.734375
446,-0.9411621,-0.08843994,-0.42218018,-0.5,0.65625,0.6875
447,-0.93652344,-0.089904785,-0.42462158,-0.328125,-0.28125,0.203125
448,-0.9436035,-0.089660645,-0.4265747,-0.15625,-0.640625,-0.21875
449,-0.9440918,-0.08380127,-0.42388916,0.109375,-1.5625,-0.25
450,-0.9367676,-0.08746338,-0.42608643,0.28125,-2.09375,-0.5
451,-0.92822266,-0.08258057,-0.41705322,0.546875,-3.78125,-0.328125
452,-0.9289551,-0.081604004,-0.440979,0.671875,-5.5,-0.28125
453,-0.92529297,-0.08258057,-0.4475708,0.609375,-4.296875,0.515625
454,-0.9213867,-0.08721924,-0.45684814,-1.09375,-3.40625,-0.21875
455,-0.93115234,-0.0869751,-0.4985962,-0.625,-3.15625,-0.578125
456,-0.90185547,-0.08282471,-0.44976807,0.125,1.84375,-0.921875
457,-0.9291992,-0.0725708,-0.48516846,0.125,1.984375,-0.28125
458,-0.91552734,-0.070373535,-0.45611572,-0.9375,1.46875,0.765625
459,-0.9147949,-0.085998535,-0.45587158,-0.984375,1.78125,0.90625
460,-0.92285156,-0.07232666,-0.45733643,-1.0,2.09375,0.6875
461,-0.9272461,-0.08282471,-0.46368408,-0.828125,2.5,0.734375
462,-0.9194336,-0.081604004,-0.4644165,-1.0,3.21875,0.90625
463,-0.92749023,-0.078430176,-0.44708252,-1.03125,2.96875,0.859375
464,-0.9226074,-0.08428955,-0.45074463,-1.03125,2.859375,0.828125
465,-0.92700195,-0.08746338,-0.45684814,-1.21875,3.0625,0.921875
466,-0.9309082,-0.07330322,-0.42388916,-0.84375,2.921875,0.1875
467,-0.9370117,-0.08306885,-0.4348755,-1.671875,3.71875,0.34375
468,-0.9423828,-0.08502197,-0.44732666,-2.453125,6.140625,0.15625
469,-0.93896484,-0.077697754,-0.44439697,-1.546875,9.140625,1.6875
470,-0.93603516,-0.085510254,-0.38848877,-0.578125,8.296875,2.03125
471,-0.9291992,-0.09283447,-0.37457275,-0.546875,4.453125,1.8125
472,-0.9489746,-0.085998535,-0.40386963,0.203125,1.09375,1.390625
473,-0.94433594,-0.093811035,-0.40386963,0.96875,0.265625,0.859375
474,-0.93603516,-0.093566895,-0.39678955,1.125,-1.421875,0.75
475,-0.951416,-0.09307861,-0.40753174,1.671875,-3.390625,0.40625
476,-0.9343262,-0.09429932,-0.41705322,1.28125,-3.890625,-0.359375
477,-0.9399414,-0.085510254,-0.4180298,0.84375,-3.859375,-0.46875
478,-0.9355469,-0.08355713,-0.42144775,1.265625,-3.640625,-0.15625
479,-0.9326172,-0.08306885,-0.41680908,1.5625,-5.125,-0.921875
480,-0.9477539,-0.08648682,-0.48101807,-0.125,-4.109375,-0.828125
481,-0.9057617,-0.09210205,-0.42877197,-0.421875,0.6875,-1.34375
482,-0.9230957,-0.07696533,-0.46173096,0.234375,1.015625,-0.40625
483,-0.9255371,-0.078186035,-0.44366455,-0.046875,-0.46875,0.1875
484,-0.91967773,-0.06719971,-0.4295044,-0.015625,-0.234375,-0.046875
485,-0.9277344,-0.062805176,-0.45635986,-1.171875,0.296875,0.453125
486,-0.9362793,-0.06793213,-0.46148682,-2.15625,1.5625,1.203125
487,-0.93652344,-0.086242676,-0.46759033,-1.484375,2.265625,1.4375
488,-0.93408203,-0.08648682,-0.4517212,-0.8125,2.5625,0.90625
489,-0.9301758,-0.08111572,-0.44830322,-0.453125,2.0625,0.296875
490,-0.9370117,-0.09429932,-0.45489502,-0.84375,2.546875,0.34375
491,-0.92529297,-0.08843994,-0.41900635,-0.328125,4.015625,-0.515625
492,-0.91918945,-0.085510254,-0.4204712,0.109375,0.640625,0.28125
493,-0.9538574,-0.07281494,-0.43927002,-0.203125,0.265625,0.125
494,-0.91186523,-0.074523926,-0.4121704,-0.953125,-0.4375,0.671875
495,-0.94873047,-0.09210205,-0.46832275,-1.671875,-1.59375,2.3125
496,-0.95288086,-0.07623291,-0.51763916,-9.90625,6.078125,1.5625
497,-0.90600586,-0.09161377,-0.4265747,-8.859375,23.921875,6.828125
498,-0.9157715,-0.08502197,-0.25079346,-0.640625,10.984375,3.65625
499,-0.92041016,-0.09576416,-0.35845947,-5.859375,-1.5,4.609375
500,-0.9333496,-0.12652588,-0.34161377,1.21875,-10.96875,5.6875
501,-0.96728516,-0.159729,-0.37652588,13.25,-28.125,4.5625
502,-0.98217773,-0.15582275,-0.5745239,10.015625,-18.421875,-2.78125
503,-0.89501953,-0.11773682,-0.51519775,3.71875,-3.46875,-4.5625
504,-0.8898926,-0.108947754,-0.47930908,3.015625,-0.71875,-2.78125
505,-0.9230957,-0.085754395,-0.46514893,1.796875,2.734375,-3.59375
506,-0.8984375,-0.0803833,-0.50079346,1.25,2.484375,-3.921875
507,-0.92749023,-0.0569458,-0.4727173,1.578125,1.828125,-2.796875
508,-0.8925781,-0.055236816,-0.44854736,-0.765625,-0.203125,-0.8125
509,-0.9133301,-0.08453369,-0.48150635,-2.75,-1.109375,1.84375
510,-0.9145508,-0.08770752,-0.48077393,-2.734375,-1.078125,2.90625
511,-0.9082031,-0.08673096,-0.48931885,-1.796875,-0.046875,2.078125
512,-0.91381836,-0.08843994,-0.4932251,-0.78125,0.546875,1.453125
513,-0.90893555,-0.09942627,-0.47979736,-0.28125,2.1875,0.640625
514,-0.907959,-0.09454346,-0.48638916,0.15625,2.953125,-0.546875
515,-0.9116211,-0.08282471,-0.47662354,0.625,3.84375,-1.1875
516,-0.9157715,-0.089660645,-0.47930908,-0.015625,4.078125,-1.203125
517,-0.91845703,-0.09088135,-0.46905518,-0.8125,3.90625,-0.984375
518,-0.91748047,-0.08258057,-0.4685669,-1.828125,4.34375,-1.265625
519,-0.9250488,-0.08013916,-0.4734497,-2.265625,5.046875,-1.140625
520,-0.92041016,-0.07745361,-0.43658447,-1.453125,4.28125,-1.640625
521,-0.9199219,-0.07086182,-0.44561768,-2.734375,4.140625,-0.3125
522,-0.9265137,-0.073791504,-0.4348755,-2.15625,3.03125,0.234375
523,-0.93408203,-0.081604004,-0.4187622,-1.859375,2.359375,0.734375
524,-0.92407227,-0.08062744,-0.41558838,-0.46875,0.953125,0.8125
525,-0.9296875,-0.085510254,-0.43048096,-0.359375,-1.40625,1.078125
526,-0.9265137,-0.08892822,-0.43658447,1.265625,-2.765625,0.28125
527,-0.9301758,-0.08331299,-0.46002197,0.90625,-2.109375,-0.078125
528,-0.92749023,-0.08795166,-0.48101807,-0.5,-1.703125,-0.0625
529,-0.9160156,-0.07086182,-0.43927002,-0.46875,1.359375,-0.046875
530,-0.939209,-0.07696533,-0.4685669,-0.484375,0.15625,0.453125
531,-0.9189453,-0.08111572,-0.43829346,-1.28125,-0.796875,0.96875
532,-0.91186523,-0.089904785,-0.43902588,-0.921875,-5.4375,1.5
533,-0.92700195,-0.08868408,-0.47784424,1.265625,-4.703125,0.203125
534,-0.91137695,-0.090148926,-0.48321533,-0.28125,-1.671875,-0.453125
535,-0.9094238,-0.082336426,-0.473938,-0.515625,-0.1875,-0.296875
536,-0.9199219,-0.08258057,-0.49346924,-0.265625,0.96875,-0.15625
537,-0.9116211,-0.070129395,-0.47833252,-0.078125,2.140625,-0.21875
538,-0.9160156,-0.08648682,-0.48150635,-0.515625,2.265625,0.359375
539,-0.9116211,-0.07354736,-0.46002197,-0.765625,2.171875,0.546875
540,-0.9182129,-0.07867432,-0.47442627,-1.015625,2.203125,0.8125
541,-0.9230957,-0.08062744,-0.4631958,-0.84375,2.640625,0.75
542,-0.91064453,-0.08111572,-0.46466064,-0.59375,2.0625,0.578125
543,-0.92700195,-0.085998535,-0.47198486,-0.75,2.25,0.5625
544,-0.9211426,-0.08306885,-0.45562744,-0.671875,2.8125,0.484375
545,-0.92333984,-0.08648682,-0.46148682,-0.84375,2.1875,0.171875
546,-0.91967773,-0.0869751,-0.4553833,-0.796875,2.71875,-0.28125
547,-0.93066406,-0.0803833,-0.45318604,-0.328125,1.515625,-0.828125
548,-0.9272461,-0.08282471,-0.46124268,-0.78125,2.96875,-0.78125
549,-0.92407227,-0.07696533,-0.44854736,-0.34375,3.5625,-0.546875
550,-0.92700195,-0.08282471,-0.4685669,-0.703125,3.90625,-1.140625
551,-0.93310547,-0.08453369,-0.44561768,-1.265625,4.609375,-0.90625
552,-0.9284668,-0.06719971,-0.41656494,-0.421875,5.84375,0.15625
553,-0.93481445,-0.0791626,-0.4331665,0.1875,3.78125,0.359375
554,-0.92944336,-0.06573486,-0.39923096,-0.75,2.484375,0.15625
555,-0.9296875,-0.078186035,-0.4024048,-0.4375,-0.84375,0.1875
556,-0.93603516,-0.07672119,-0.41046143,0.5625,-4.140625,0.140625
557,-0.9328613,-0.07550049,-0.44000244,1.578125,-4.359375,-0.75
558,-0.92626953,-0.0803833,-0.4529419,0.3125,-3.46875,-0.359375
559,-0.9260254,-0.07623291,-0.4590454,-0.296875,-2.6875,0.34375
560,-0.92407227,-0.0725708,-0.45611572,0.203125,-1.828125,0.390625
561,-0.92993164,-0.065979004,-0.46368408,-0.078125,-3.171875,0.921875
562,-0.9111328,-0.0725708,-0.45391846,-2.03125,-3.40625,1.46875
563,-0.92749023,-0.06890869,-0.4697876,-1.15625,-1.859375,1.125
564,-0.9243164,-0.0881958,-0.4710083,-0.640625,-1.390625,0.625
565,-0.9248047,-0.07208252,-0.47442627,-0.734375,-1.140625,0.46875
566,-0.9157715,-0.07745361,-0.47540283,-1.328125,0.0625,0.765625
567,-0.92163086,-0.07940674,-0.47808838,-1.109375,0.875,0.78125
568,-0.9121094,-0.07989502,-0.47174072,-0.796875,0.921875,0.796875
569,-0.9135742,-0.07965088,-0.47906494,-0.859375,1.359375,0.375
570,-0.91137695,-0.07330322,-0.47296143,-0.125,2.140625,0.375
571,-0.91308594,-0.08453369,-0.46929932,-0.171875,2.8125,0.5625
572,-0.92529297,-0.0791626,-0.47833252,-1.21875,3.03125,0.421875
573,-0.92163086,-0.08062744,-0.4607544,-1.40625,5.5,0.515625
574,-0.9296875,-0.085754395,-0.47686768,-1.8125,6.75,0.28125
575,-0.9448242,-0.082336426,-0.47247314,-1.5,6.65625,-0.171875
576,-0.9160156,-0.08795166,-0.42755127,-2.1875,7.234375,-0.359375
577,-0.92700195,-0.081848145,-0.4204712,-1.5,6.578125,-0.75
578,-0.93237305,-0.073791504,-0.40948486,-1.78125,5.9375,-0.234375
579,-0.9272461,-0.074279785,-0.3982544,-1.03125,3.140625,0.609375
580,-0.93969727,-0.07989502,-0.41192627,-0.796875,1.25,1.0625
581,-0.9355469,-0.09063721,-0.41290283,0.109375,-0.6875,0.9375
582,-0.9453125,-0.08502197,-0.42218018,0.75,-2.921875,0.484375
583,-0.93408203,-0.08746338,-0.42364502,2.28125,-4.625,-0.046875
584,-0.92626953,-0.082336426,-0.4307251,2.109375,-4.578125,-0.609375
585,-0.9350586,-0.07623291,-0.4541626,1.328125,-3.0625,-0.3125
586,-0.9206543,-0.07208252,-0.44366455,0.71875,-2.375,-0.0625
587,-0.9194336,-0.07476807,-0.44854736,0.640625,-3.9375,-0.03125
588,-0.91674805,-0.0725708,-0.44122314,-1.640625,-5.4375,0.46875
589,-0.9260254,-0.07232666,-0.47491455,-1.90625,-5.5,0.703125
590,-0.91796875,-0.078186035,-0.48468018,-1.421875,-3.96875,1.578125
591,-0.9104004,-0.08087158,-0.49005127,-0.21875,-1.4375,0.78125
592,-0.9069824,-0.08258057,-0.4920044,-1.203125,0.65625,1.078125
593,-0.9111328,-0.08087158,-0.4837036,-0.75,0.578125,1.609375
594,-0.91308594,-0.08135986,-0.47906494,-0.390625,1.0625,1.421875
595,-0.91748047,-0.085998535,-0.49664307,-1.03125,1.96875,0.640625
596,-0.9099121,-0.085754395,-0.4763794,-0.515625,2.0,0.359375
597,-0.91186523,-0.07647705,-0.49835205,-0.484375,2.921875,0.625
598,-0.9099121,-0.07574463,-0.47027588,-0.640625,3.203125,1.03125
599,-0.91796875,-0.09039307,-0.47247314,-1.890625,5.15625,0.859375
600,-0.9284668,-0.08331299,-0.46929932,-2.109375,5.53125,0.46875
601,-0.9370117,-0.08355713,-0.41973877,-1.546875,3.53125,-0.453125
602,-0.9104004,-0.09454346,-0.43951416,-1.96875,4.140625,-1.328125
603,-0.92700195,-0.07305908,-0.43927002,-1.640625,3.890625,-0.5
604,-0.9326172,-0.082336426,-0.45635986,-0.375,3.9375,0.109375
605,-0.92407227,-0.07672119,-0.44293213,0.515625,4.84375,1.453125
606,-0.92626953,-0.08795166,-0.40533447,-0.015625,3.078125,1.328125
607,-0.9370117,-0.1026001,-0.4290161,-0.078125,0.46875,1.015625
608,-0.93408203,-0.08380127,-0.42364502,0.171875,-0.5625,0.265625
609,-0.9338379,-0.089660645,-0.43414307,0.953125,-3.15625,0.09375
610,-0.9355469,-0.0803833,-0.43511963,1.25,-3.375,-0.640625
611,-0.9326172,-0.08306885,-0.44805908,1.4375,-2.90625,-0.5
612,-0.9238281,-0.077697754,-0.4414673,0.8125,-2.515625,-0.125
613,-0.91186523,-0.08013916,-0.44415283,0.734375,-2.125,0.453125
614,-0.9160156,-0.08331299,-0.45391846,0.015625,-2.828125,-0.125
615,-0.9189453,-0.08331299,-0.46954346,-0.390625,-3.453125,-0.234375
616,-0.9165039,-0.08477783,-0.49224854,-0.28125,-2.171875,-0.171875
617,-0.91259766,-0.07330322,-0.48394775,-0.375,-0.265625,-0.09375
618,-0.9152832,-0.0725708,-0.47955322,-0.625,0.609375,0.1875
619,-0.9133301,-0.07647705,-0.48223877,-0.96875,0.6875,0.46875
620,-0.91015625,-0.07598877,-0.4734497,-1.203125,1.9375,0.734375
621,-0.91064453,-0.081604004,-0.46368408,-0.71875,1.3125,0.578125
622,-0.9194336,-0.081848145,-0.48443604,-0.734375,1.296875,0.65625
623,-0.91064453,-0.08355713,-0.4673462,-0.421875,1.359375,0.9375
624,-0.92089844,-0.089660645,-0.47369385,-0.75,2.609375,0.453125
625,-0.92285156,-0.08013916,-0.4854126,-1.84375,4.140625,0.34375
626,-0.9272461,-0.07745361,-0.47784424,-3.109375,6.28125,0.34375
627,-0.93310547,-0.07598877,-0.45684814,-3.109375,7.578125,-0.34375
628,-0.93530273,-0.08111572,-0.45489502,-2.765625,11.875,-0.1875
629,-0.91674805,-0.08746338,-0.39630127,-2.78125,9.921875,1.3125
630,-0.93530273,-0.09112549,-0.4241333,-0.5625,6.59375,2.28125
631,-0.93896484,-0.09429932,-0.37408447,-0.5,4.96875,0.875
632,-0.9345703,-0.08477783,-0.40020752,-1.203125,1.703125,1.28125
633,-0.93408203,-0.09820557,-0.39630127,-0.53125,-0.8125,1.3125
634,-0.9621582,-0.113586426,-0.43048096,1.6875,-4.8125,-0.046875
635,-0.93896484,-0.09820557,-0.41949463,1.921875,-3.734375,-1.546875
636,-0.93408203,-0.086242676,-0.42974854,1.03125,-3.0,-1.328125
637,-0.94189453,-0.08770752,-0.4336548,1.453125,-2.828125,-0.84375
638,-0.92456055,-0.081604004,-0.4199829,2.328125,-4.640625,-0.78125
639,-0.9265137,-0.078430176,-0.44244385,1.71875,-5.078125,-0.90625
640,-0.9069824,-0.078430176,-0.4570923,0.421875,-3.90625,0.640625
641,-0.92163086,-0.08404541,-0.44586182,-0.875,-3.28125,0.171875
642,-0.935791,-0.08135986,-0.48077393,-0.40625,-4.25,-0.6875
643,-0.91137695,-0.08135986,-0.49395752,0.46875,-4.875,-1.5
644,-0.9199219,-0.07159424,-0.49249268,0.90625,-0.375,-1.0625
645,-0.9069824,-0.059143066,-0.50494385,-1.109375,0.984375,-0.28125
646,-0.9082031,-0.06378174,-0.47076416,-1.390625,0.921875,0.40625
647,-0.9194336,-0.069885254,-0.48858643,-1.3125,1.171875,0.96875
648,-0.9187012,-0.077941895,-0.48028564,-0.6875,0.9375,1.046875
649,-0.9069824,-0.07696533,-0.46343994,-0.828125,2.25,0.828125
650,-0.91381836,-0.08135986,-0.48077393,-0.359375,2.8125,0.609375
651,-0.9172363,-0.08087158,-0.48272705,-1.28125,4.203125,0.734375
652,-0.92749023,-0.070617676,-0.4602661,-1.53125,5.390625,1.03125
653,-0.91552734,-0.08380127,-0.46270752,-0.921875,4.4375,1.625
654,-0.90527344,-0.081604004,-0.42486572,-0.25,3.171875,1.140625
655,-0.91967773,-0.09234619,-0.45587158,-0.53125,1.3125,0.4375
656,-0.92578125,-0.0803833,-0.44488525,-0.890625,0.453125,0.265625
657,-0.92163086,-0.07965088,-0.47198486,-1.390625,3.171875,-0.796875
658,-0.9350586,-0.06719971,-0.45074463,-2.78125,5.609375,0.203125
659,-0.93530273,-0.07696533,-0.4295044,-1.875,5.5625,0.796875
660,-0.9223633,-0.08404541,-0.41558838,-1.40625,3.421875,0.90625
661,-0.9460449,-0.085510254,-0.42926025,-1.015625,1.265625,2.03125
662,-0.9316406,-0.09527588,-0.42315674,-0.296875,1.21875,1.078125
663,-0.94311523,-0.093566895,-0.43023682,-0.15625,0.984375,0.4375
664,-0.93188477,-0.093322754,-0.43048096,0.296875,0.109375,-0.078125
665,-0.92993164,-0.0869751,-0.43096924,0.78125,-0.34375,-0.65625
666,-0.92626953,-0.08013916,-0.4212036,-0.015625,-1.796875,-0.625
667,-0.9238281,-0.08062744,-0.4229126,-0.046875,-3.21875,-0.171875
668,-0.92871094,-0.08258057,-0.4336548,1.46875,-4.78125,-0.296875
669,-0.92993164,-0.08648682,-0.4631958,1.53125,-4.421875,-0.5625
670,-0.90527344,-0.0869751,-0.46514893,0.84375,-3.0625,-0.03125
671,-0.92578125,-0.089416504,-0.4661255,0.59375,-0.28125,-0.609375
672,-0.9289551,-0.0803833,-0.47930908,-0.484375,-1.546875,-1.390625
673,-0.91186523,-0.07086182,-0.44781494,-1.296875,0.40625,-1.8125
674,-0.9091797,-0.0725708,-0.49591064,-1.46875,0.34375,-1.203125
675,-0.91015625,-0.06817627,-0.48345947,-1.4375,1.6875,0.53125
676,-0.9116211,-0.06524658,-0.45684814,-1.28125,1.359375,1.140625
677,-0.9194336,-0.0725708,-0.46514893,-0.875,0.53125,0.96875
678,-0.9213867,-0.07574463,-0.46173096,-0.578125,0.71875,0.828125
679,-0.92041016,-0.085998535,-0.472229,-0.421875,0.671875,0.453125
680,-0.9157715,-0.08062744,-0.4697876,-0.4375,0.9375,0.296875
681,-0.9169922,-0.07598877,-0.46392822,0.015625,2.015625,-0.125
682,-0.9182129,-0.074035645,-0.47247314,-0.34375,1.46875,0.109375
683,-0.92407227,-0.08062744,-0.48760986,-1.453125,2.921875,0.828125
684,-0.9116211,-0.13433838,-0.5755005,-9.5625,7.796875,0.96875
685,-1.0041504,-0.05718994,-0.5564575,-4.9375,30.09375,1.5
686,-0.8149414,-0.050354004,-0.19146729,-3.046875,30.46875,1.890625
687,-0.9177246,-0.081604004,-0.21710205,-9.40625,2.390625,4.109375
688,-0.96240234,-0.078186035,-0.39556885,-7.28125,-2.96875,7.203125
689,-0.9333496,-0.12237549,-0.29571533,4.390625,-21.421875,6.875
690,-0.98046875,-0.17730713,-0.42510986,17.296875,-31.671875,1.5625
691,-0.9609375,-0.13848877,-0.54693604,7.90625,-12.546875,-4.671875
692,-0.907959,-0.08477783,-0.5100708,3.859375,-0.4375,-3.734375
693,-0.89624023,-0.093566895,-0.46343994,2.5625,1.671875,-1.6875
694,-0.93066406,-0.07232666,-0.4397583,2.09375,2.140625,-1.875
695,-0.92578125,-0.051086426,-0.45391846,0.71875,0.5625,-1.828125
696,-0.91967773,-0.066223145,-0.48394775,-2.171875,1.484375,-0.359375
697,-0.91748047,-0.06378174,-0.44781494,-3.65625,4.171875,0.765625
698,-0.93481445,-0.082336426,-0.46221924,-3.578125,1.421875,1.484375
699,-0.9140625,-0.089904785,-0.43096924,-2.265625,3.328125,2.171875
700,-0.9313965,-0.085754395,-0.4570923,-1.375,3.859375,2.421875
701,-0.94140625,-0.097717285,-0.45513916,-1.34375,3.96875,2.421875
702,-0.91845703,-0.11114502,-0.42803955,-0.015625,2.625,0.890625
703,-0.9379883,-0.09307861,-0.42877197,0.0,2.390625,-0.09375
704,-0.92163086,-0.093566895,-0.42755127,-0.234375,1.09375,-0.40625
705,-0.92822266,-0.09576416,-0.4295044,0.234375,-0.15625,-0.640625
706,-0.9243164,-0.08770752,-0.41851807,0.96875,-2.59375,-1.0
707,-0.92944336,-0.085998535,-0.43218994,2.40625,-2.5,-1.65625
708,-0.92211914,-0.0791626,-0.4595337,1.25,-2.640625,-1.0625
709,-0.92749023,-0.07525635,-0.46343994,1.015625,-3.109375,-0.4375
710,-0.9147949,-0.08380127,-0.45635986,0.296875,-2.3125,0.140625
711,-0.921875,-0.074035645,-0.47149658,-0.171875,-1.578125,-0.390625
712,-0.9279785,-0.07110596,-0.47149658,-0.703125,-0.921875,-0.125
713,-0.9160156,-0.070373535,-0.48223877,-0.6875,0.28125,-0.078125
714,-0.9194336,-0.08355713,-0.4763794,-0.5,1.4375,0.265625
715,-0.91430664,-0.06939697,-0.4685669,-0.828125,1.9375,0.671875
716,-0.9230957,-0.08453369,-0.46466064,-1.484375,2.078125,0.921875
717,-0.9111328,-0.07940674,-0.45855713,-1.171875,2.390625,1.0
718,-0.9238281,-0.07940674,-0.4595337,-0.84375,2.140625,0.625
719,-0.92626953,-0.07696533,-0.45635986,-0.8125,2.109375,0.40625
720,-0.92211914,-0.08404541,-0.4595337,-0.84375,2.25,0.265625
721,-0.9243164,-0.08673096,-0.46148682,-1.0625,2.5625,-0.015625
722,-0.93603516,-0.0791626,-0.4661255,-1.953125,2.28125,-0.0625
723,-0.9267578,-0.07989502,-0.4360962,-1.15625,2.921875,-0.328125
724,-0.9199219,-0.07989502,-0.45147705,-0.78125,2.796875,-0.0625
725,-0.92749023,-0.07305908,-0.4385376,-1.421875,2.59375,0.65625
726,-0.9296875,-0.085998535,-0.4397583,-1.171875,2.203125,0.65625
727,-0.93408203,-0.0791626,-0.45098877,-1.28125,2.515625,0.015625
728,-0.92993164,-0.07965088,-0.43023682,-0.859375,2.515625,0.125
729,-0.92578125,-0.0869751,-0.42730713,-0.359375,1.375,0.203125
730,-0.9248047,-0.08013916,-0.4307251,-0.171875,0.296875,0.0
731,-0.9279785,-0.08795166,-0.43878174,0.65625,0.828125,-0.5
732,-0.93603516,-0.07501221,-0.44586182,0.203125,0.03125,-0.046875
733,-0.9355469,-0.07598877,-0.42803955,0.703125,-0.875,0.015625
734,-0.91967773,-0.08282471,-0.43145752,0.703125,-1.515625,0.046875
735,-0.9260254,-0.07623291,-0.44293213,0.515625,-2.0,0.109375
736,-0.9172363,-0.0791626,-0.45440674,0.859375,-3.734375,0.484375
737,-0.92211914,-0.08648682,-0.4644165,1.0625,-3.875,0.515625
738,-0.92089844,-0.0791626,-0.47027588,-0.125,-1.21875,0.109375
739,-0.9128418,-0.07281494,-0.4746704,-0.234375,0.53125,-0.265625
740,-0.92163086,-0.06842041,-0.46710205,-0.4375,0.828125,0.140625
741,-0.92333984,-0.074279785,-0.46759033,-1.125,0.640625,0.5625
742,-0.92211914,-0.08258057,-0.46783447,-1.0,0.59375,0.703125
743,-0.9135742,-0.090148926,-0.45977783,-1.28125,-0.09375,0.609375
744,-0.9211426,-0.09527588,-0.4710083,-1.0,0.421875,0.609375
745,-0.91308594,-0.07354736,-0.45806885,-0.578125,2.484375,0.3125
746,-0.91503906,-0.08111572,-0.4578247,-0.484375,2.484375,0.015625
747,-0.923584,-0.082336426,-0.48028564,-1.3125,2.828125,0.5
748,-0.9277344,-0.0791626,-0.4649048,-1.578125,2.828125,0.953125
749,-0.9326172,-0.08477783,-0.46221924,-1.96875,4.109375,0.203125
