sample_no,accel_x,accel_y,accel_z,gyro_x,gyro_y,gyro_z
0,0.923584,-0.16265869,0.35809326,0.640625,1.4375,0.84375
1,0.9165039,-0.16705322,0.35003662,0.5625,0.765625,0.5625
2,0.9255371,-0.16241455,0.3480835,0.671875,1.6875,0.78125
3,0.90966797,-0.16534424,0.34979248,0.828125,1.84375,1.0
4,0.9238281,-0.16583252,0.3414917,1.15625,1.703125,0.609375
5,0.92089844,-0.16705322,0.34417725,1.21875,0.15625,0.21875
6,0.93115234,-0.175354,0.34002686,0.203125,-1.03125,-0.0625
7,0.9616699,-0.19122314,0.36346436,-0.515625,-0.5625,-1.328125
8,0.94555664,-0.15167236,0.3534546,-3.1875,0.1875,-2.46875
9,0.8857422,-0.16656494,0.32196045,0.234375,2.0,-1.546875
10,0.8769531,-0.16607666,0.32244873,-0.796875,0.421875,-2.046875
11,0.90112305,-0.18682861,0.3414917,4.984375,1.375,-2.84375
12,0.9338379,-0.20513916,0.34051514,4.53125,1.46875,-2.71875
13,0.92871094,-0.18536377,0.33563232,2.640625,-0.46875,-2.09375
14,0.90478516,-0.17974854,0.3378296,0.609375,-2.515625,-1.921875
15,0.89941406,-0.1807251,0.33050537,0.0625,-2.671875,-1.875
16,0.89697266,-0.19366455,0.33465576,0.9375,-2.9375,-1.25
17,0.90405273,-0.18658447,0.33343506,-2.34375,-4.265625,-0.96875
18,0.9082031,-0.20074463,0.3505249,-1.9375,-4.703125,-0.546875
19,0.8964844,-0.19854736,0.35491943,-4.5625,-6.8125,-0.59375
20,0.89160156,-0.19195557,0.36151123,-6.109375,-7.140625,-0.421875
21,0.8869629,-0.1873169,0.37371826,-5.046875,-5.796875,-0.171875
22,0.8781738,-0.18096924,0.3817749,-2.609375,-2.375,-0.1875
23,0.86499023,-0.16802979,0.3895874,1.515625,2.625,-0.109375
24,0.84228516,-0.19805908,0.3805542,1.203125,-0.578125,2.484375
25,0.88842773,-0.19927979,0.35858154,-3.953125,-3.75,2.765625
26,0.9211426,-0.17681885,0.38006592,2.609375,1.0625,4.0
27,0.9238281,-0.1428833,0.3727417,-1.625,0.21875,2.65625
28,0.9082031,-0.17681885,0.37957764,1.3125,1.078125,1.59375
29,0.9003906,-0.17095947,0.34783936,-2.890625,0.734375,2.921875
30,0.8984375,-0.17242432,0.37591553,3.953125,5.3125,3.125
31,0.9289551,-0.19415283,0.36810303,3.1875,4.25,2.015625
32,0.9211426,-0.1765747,0.35614014,1.296875,2.515625,1.953125
33,0.92285156,-0.17462158,0.35662842,-0.1875,1.515625,1.609375
34,0.9013672,-0.16998291,0.34344482,-0.421875,1.265625,1.359375
35,0.9128418,-0.15997314,0.34075928,0.984375,1.875,1.15625
36,0.92749023,-0.16021729,0.33587646,0.03125,1.1875,0.703125
37,0.9157715,-0.16436768,0.34124756,0.0625,1.125,0.6875
38,0.92456055,-0.17315674,0.34051514,0.703125,0.5,0.328125
39,0.9465332,-0.17022705,0.33685303,-0.4375,-0.234375,-0.1875
40,0.9560547,-0.1741333,0.3632202,0.515625,0.203125,-2.03125
41,0.9238281,-0.1651001,0.32977295,-1.953125,1.09375,-2.453125
42,0.88305664,-0.16046143,0.32513428,0.9375,1.984375,-2.375
43,0.8886719,-0.18243408,0.33685303,2.375,0.671875,-1.890625
44,0.91137695,-0.18365479,0.33343506,-0.140625,-3.046875,-1.9375
45,0.920166,-0.19293213,0.32781982,-1.90625,-4.0625,-1.890625
46,0.9069824,-0.17608643,0.35516357,-1.8125,-2.359375,-1.046875
47,0.9086914,-0.17926025,0.34490967,-2.203125,-3.375,-1.109375
48,0.89624023,-0.16534424,0.34246826,-3.84375,-4.09375,-0.828125
49,0.89990234,-0.17608643,0.3475952,-1.609375,-4.4375,-1.0
50,0.90283203,-0.17926025,0.355896,-4.4375,-3.21875,-0.421875
51,0.90844727,-0.19049072,0.37982178,-0.1875,-2.203125,-0.84375
52,0.89746094,-0.18389893,0.37298584,-3.109375,-4.03125,-0.40625
53,0.8774414,-0.15557861,0.36761475,-1.984375,-1.78125,0.140625
54,0.8779297,-0.1572876,0.35809326,3.765625,3.203125,0.515625
55,0.8547363,-0.19464111,0.36297607,5.5625,4.140625,3.75
56,0.93652344,-0.19073486,0.33099365,-5.90625,-8.1875,5.0
57,0.9289551,-0.18170166,0.39959717,-10.1875,-6.34375,3.3125
58,0.8911133,-0.13311768,0.38812256,-8.8125,-5.0,1.4375
59,0.9055176,-0.14971924,0.37347412,-3.390625,-1.46875,0.21875
60,0.8864746,-0.13482666,0.3739624,1.359375,2.234375,1.3125
61,0.89819336,-0.14605713,0.39569092,6.375,4.90625,0.890625
62,0.91918945,-0.17633057,0.3776245,4.875,2.46875,0.734375
63,0.92700195,-0.16656494,0.3788452,2.9375,3.15625,1.828125
64,0.89624023,-0.17633057,0.3781128,2.375,2.484375,1.125
65,0.9111328,-0.16070557,0.35272217,0.984375,0.453125,0.90625
66,0.91137695,-0.15386963,0.36053467,1.59375,0.359375,0.703125
67,0.9165039,-0.14898682,0.35150146,-0.828125,-0.625,0.46875
68,0.9272461,-0.16021729,0.3673706,2.328125,1.09375,0.46875
69,0.9165039,-0.16241455,0.3595581,-1.78125,-1.40625,-0.09375
70,0.9291992,-0.17120361,0.36663818,-0.78125,-1.4375,-0.046875
71,0.9667969,-0.19439697,0.39178467,2.296875,2.328125,-2.21875
72,0.90063477,-0.1519165,0.35150146,-0.140625,2.46875,-2.25
73,0.87768555,-0.14752197,0.34246826,2.4375,3.09375,-2.125
74,0.9003906,-0.175354,0.3397827,1.5625,-0.125,-1.890625
75,0.90771484,-0.18243408,0.34490967,2.296875,-0.34375,-1.515625
76,0.9123535,-0.18804932,0.34613037,0.765625,-1.421875,-1.140625
77,0.91064453,-0.18121338,0.34466553,-1.25,-3.0,-0.75
78,0.9086914,-0.18341064,0.35150146,-0.421875,-3.15625,-1.34375
79,0.8913574,-0.17974854,0.36639404,0.09375,-3.140625,-0.828125
80,0.90185547,-0.16925049,0.3612671,-0.875,-4.140625,-0.546875
81,0.9016113,-0.1873169,0.36883545,-1.03125,-3.28125,-0.1875
82,0.9020996,-0.1729126,0.3776245,-3.1875,-5.09375,-0.078125
83,0.89404297,-0.17681885,0.37200928,-5.796875,-7.171875,0.03125
84,0.8796387,-0.17852783,0.38763428,-6.328125,-6.4375,0.53125
85,0.8754883,-0.1506958,0.38934326,-5.078125,-6.828125,1.21875
86,0.8569336,-0.15704346,0.3920288,-3.71875,0.78125,2.90625
87,0.8625488,-0.14483643,0.37908936,-1.390625,0.65625,3.953125
88,0.93066406,-0.14849854,0.3883667,0.390625,0.234375,2.625
89,0.9157715,-0.15264893,0.3944702,-4.46875,-0.859375,2.46875
90,0.9135742,-0.15802002,0.338562,-2.78125,-1.796875,1.640625
91,0.92041016,-0.15240479,0.3361206,-2.578125,-1.171875,1.5625
92,0.920166,-0.1651001,0.36761475,2.234375,0.96875,1.015625
93,0.94140625,-0.17340088,0.34320068,-4.015625,-4.109375,1.0
94,0.8977051,-0.1519165,0.3493042,-1.921875,-1.890625,1.515625
95,0.920166,-0.16363525,0.3619995,0.5625,0.0,0.921875
96,0.9069824,-0.15240479,0.3505249,-1.03125,-1.546875,0.953125
97,0.91015625,-0.14923096,0.35125732,-1.546875,-1.671875,1.03125
98,0.9260254,-0.14874268,0.35369873,-0.921875,-0.828125,0.734375
99,0.91674805,-0.14971924,0.3493042,0.734375,0.59375,0.640625
100,0.9309082,-0.15948486,0.36151123,0.71875,-0.578125,0.09375
101,0.9243164,-0.15899658,0.3475952,-0.984375,-2.109375,0.015625
102,0.94091797,-0.16192627,0.38446045,1.5625,-1.046875,-1.4375
103,0.9160156,-0.1453247,0.35321045,1.09375,2.078125,-1.296875
104,0.88623047,-0.15704346,0.3324585,4.359375,6.796875,-1.65625
105,0.9057617,-0.1609497,0.34295654,5.234375,5.90625,-1.765625
106,0.92700195,-0.17755127,0.33416748,1.921875,1.734375,-2.046875
107,0.923584,-0.18170166,0.324646,1.078125,0.703125,-1.453125
108,0.9082031,-0.17047119,0.33172607,-0.171875,-0.84375,-0.984375
109,0.907959,-0.1638794,0.31536865,-0.875,-1.90625,-0.96875
110,0.90234375,-0.16729736,0.33294678,0.390625,-0.328125,-0.34375
111,0.91308594,-0.1729126,0.3427124,0.421875,-1.890625,-0.53125
112,0.92529297,-0.1716919,0.3439331,-2.921875,-4.15625,-0.3125
113,0.9123535,-0.15411377,0.3234253,-3.703125,-3.453125,0.109375
114,0.90722656,-0.17144775,0.33831787,-3.6875,-2.9375,0.265625
115,0.90844727,-0.18096924,0.3468628,-0.890625,-2.75,0.0625
116,0.8935547,-0.16241455,0.3493042,-2.75,-3.5,0.046875
117,0.9008789,-0.16314697,0.3522339,-1.796875,-2.53125,0.109375
118,0.88793945,-0.16070557,0.3781128,1.59375,-0.484375,1.3125
119,0.8886719,-0.16802979,0.35028076,1.671875,-1.015625,2.125
120,0.90966797,-0.1494751,0.3156128,-0.28125,1.15625,4.25
121,0.9362793,-0.16143799,0.35614014,1.3125,-0.328125,2.578125
122,0.9199219,-0.1651001,0.34857178,-1.703125,-0.640625,1.40625
123,0.9194336,-0.1638794,0.35321045,-1.0,0.28125,1.5625
124,0.9160156,-0.14923096,0.3456421,-0.765625,0.4375,1.609375
125,0.9226074,-0.1572876,0.35858154,0.765625,1.21875,0.90625
126,0.92041016,-0.16241455,0.3493042,-0.203125,0.828125,0.671875
127,0.923584,-0.1663208,0.34881592,-0.9375,0.390625,1.0
128,0.9277344,-0.16558838,0.34661865,-0.609375,0.375,0.59375
129,0.9172363,-0.15557861,0.3397827,0.15625,0.609375,0.828125
130,0.9213867,-0.1404419,0.34613037,1.828125,1.890625,0.28125
131,0.91967773,-0.15435791,0.34246826,0.296875,0.359375,0.03125
132,0.92626953,-0.15533447,0.3336792,-0.6875,-1.90625,-0.625
133,0.9445801,-0.16851807,0.3336792,-0.4375,-0.84375,-1.046875
134,0.951416,-0.14141846,0.35076904,-1.3125,0.3125,-1.390625
135,0.91259766,-0.15411377,0.3378296,5.09375,4.828125,-2.5
136,0.9020996,-0.17218018,0.3348999,3.78125,1.6875,-2.140625
137,0.9057617,-0.16925049,0.33026123,0.375,-2.28125,-2.0
138,0.921875,-0.18389893,0.3348999,-0.390625,-2.53125,-1.859375
139,0.9157715,-0.18634033,0.3468628,0.15625,-2.8125,-1.4375
140,0.9033203,-0.16802979,0.3361206,-0.484375,-3.078125,-0.78125
141,0.90283203,-0.17706299,0.34613037,-1.34375,-2.984375,-0.71875
142,0.9067383,-0.16925049,0.35003662,-0.6875,-3.75,-0.625
143,0.9067383,-0.17706299,0.34832764,-1.21875,-3.953125,-0.921875
144,0.9069824,-0.17510986,0.36102295,-1.890625,-3.21875,0.203125
145,0.9020996,-0.17730713,0.3776245,-3.171875,-4.65625,0.125
146,0.8930664,-0.1663208,0.38226318,-5.859375,-7.765625,0.046875
147,0.88427734,-0.1519165,0.36932373,-7.5,-5.28125,0.65625
148,0.87597656,-0.15924072,0.38568115,-2.40625,-1.125,2.609375
149,0.88842773,-0.15142822,0.36956787,-1.640625,-0.8125,2.859375
150,0.9223633,-0.15582275,0.35003662,0.34375,1.546875,2.234375
151,0.91064453,-0.14776611,0.4003296,0.671875,0.171875,1.4375
152,0.91064453,-0.16412354,0.3727417,1.34375,1.171875,1.4375
153,0.9016113,-0.15264893,0.35394287,-2.328125,0.6875,1.609375
154,0.904541,-0.15167236,0.3788452,4.15625,4.46875,1.546875
155,0.92578125,-0.1638794,0.3764038,3.125,3.46875,1.28125
156,0.9189453,-0.159729,0.37176514,0.625,0.953125,0.65625
157,0.9177246,-0.16143799,0.36175537,-1.25,-0.03125,0.375
158,0.90722656,-0.14996338,0.3546753,-0.46875,0.46875,0.5
159,0.9108887,-0.15142822,0.35394287,0.46875,0.84375,0.296875
160,0.9147949,-0.1494751,0.34954834,-0.828125,0.5,0.25
161,0.90722656,-0.15020752,0.35809326,0.5,1.625,0.484375
162,0.91064453,-0.15802002,0.36444092,1.5625,0.859375,0.203125
163,0.9326172,-0.15655518,0.37200928,2.46875,0.28125,-0.1875
164,0.9506836,-0.16290283,0.36639404,-0.21875,-2.578125,-0.953125
165,0.9265137,-0.14971924,0.3793335,1.578125,0.265625,-1.390625
166,0.89453125,-0.14556885,0.3534546,1.234375,1.0,-1.1875
167,0.89404297,-0.16998291,0.3607788,0.984375,-1.421875,-1.40625
168,0.8996582,-0.16558838,0.36175537,-0.84375,-3.609375,-0.921875
169,0.89868164,-0.1638794,0.34954834,-3.0,-2.5,0.25
170,0.9172363,-0.16558838,0.36639404,0.109375,-0.515625,-0.3125
171,0.9013672,-0.16583252,0.35614014,-1.40625,-2.15625,-0.46875
172,0.90405273,-0.1609497,0.37713623,-0.234375,-2.296875,-1.15625
173,0.8996582,-0.1572876,0.35638428,-3.734375,-2.96875,-0.65625
174,0.90234375,-0.14971924,0.37054443,-0.546875,-0.78125,-0.15625
175,0.9123535,-0.1716919,0.38397217,0.203125,-1.046875,-0.484375
176,0.9003906,-0.16363525,0.37176514,-2.34375,-3.140625,0.015625
177,0.89501953,-0.15240479,0.37957764,-2.625,-3.109375,0.171875
178,0.8840332,-0.15386963,0.37078857,-1.640625,-2.59375,0.046875
179,0.87597656,-0.1494751,0.39569092,0.875,0.734375,0.34375
180,0.8713379,-0.16412354,0.3817749,-0.125,-4.28125,2.15625
181,0.90356445,-0.15435791,0.36053467,-7.53125,-8.953125,2.9375
182,0.94018555,-0.15362549,0.37982178,-2.96875,-2.484375,3.4375
183,0.8925781,-0.13092041,0.39715576,-2.25,-0.671875,1.828125
184,0.8935547,-0.13653564,0.39569092,-0.9375,0.109375,0.90625
185,0.8955078,-0.14215088,0.39642334,0.921875,1.375,1.46875
186,0.89038086,-0.14508057,0.39788818,1.515625,3.5,1.546875
187,0.9160156,-0.14215088,0.39154053,-0.609375,3.125,1.515625
188,0.9145508,-0.15118408,0.38372803,-3.46875,0.1875,0.953125
189,0.90234375,-0.13995361,0.38275146,-1.546875,0.625,1.28125
190,0.9042969,-0.13677979,0.37713623,-1.09375,0.28125,0.984375
191,0.9099121,-0.13775635,0.3973999,0.671875,1.28125,0.328125
192,0.91552734,-0.13409424,0.37957764,-2.265625,-0.765625,0.453125
193,0.90478516,-0.12530518,0.37322998,-3.71875,-0.84375,0.5
194,0.9108887,-0.14019775,0.37445068,3.34375,2.125,0.015625
195,0.95458984,-0.14630127,0.39813232,4.6875,3.84375,-0.9375
196,0.9272461,-0.13311768,0.38690186,4.125,3.078125,-1.65625
197,0.88623047,-0.1326294,0.36688232,2.671875,3.421875,-1.453125
198,0.8869629,-0.14996338,0.35101318,3.609375,0.953125,-1.484375
199,0.90405273,-0.15167236,0.3690796,4.171875,1.90625,-1.328125
200,0.923584,-0.16436768,0.36273193,2.515625,-0.578125,-1.234375
201,0.91430664,-0.15460205,0.3546753,0.3125,-1.71875,-0.78125
202,0.91381836,-0.16705322,0.3649292,2.421875,-0.84375,-1.171875
203,0.89941406,-0.15093994,0.35662842,-0.078125,-2.53125,-0.828125
204,0.9033203,-0.14971924,0.36273193,-0.921875,-3.984375,-0.640625
205,0.9074707,-0.15362549,0.36468506,-0.84375,-2.953125,-0.234375
206,0.90600586,-0.16534424,0.3739624,-0.359375,-2.1875,-0.09375
207,0.9111328,-0.15826416,0.3673706,-1.625,-1.859375,-0.09375
208,0.8984375,-0.15411377,0.38006592,-0.796875,-1.65625,-0.015625
209,0.8823242,-0.15167236,0.36517334,-0.265625,-1.796875,0.09375
210,0.8774414,-0.13873291,0.37542725,0.15625,0.4375,0.46875
211,0.8979492,-0.16339111,0.3842163,3.734375,-0.71875,2.09375
212,0.9189453,-0.16656494,0.37469482,-6.4375,-9.109375,2.46875
213,0.9099121,-0.144104,0.37469482,-6.34375,-5.0625,3.34375
214,0.90234375,-0.13604736,0.39813232,-0.671875,-0.5,1.1875
215,0.89453125,-0.12677002,0.3829956,-0.796875,-0.40625,1.296875
216,0.91015625,-0.13653564,0.38250732,-0.65625,1.8125,0.8125
217,0.90722656,-0.14459229,0.39007568,0.515625,1.78125,0.25
218,0.9067383,-0.14605713,0.387146,0.984375,2.203125,0.265625
219,0.9008789,-0.14361572,0.37591553,0.234375,1.765625,-0.046875
220,0.9025879,-0.14923096,0.38031006,0.703125,2.140625,0.25
221,0.90771484,-0.14654541,0.37542725,0.34375,1.5625,0.3125
222,0.90234375,-0.13873291,0.37078857,0.375,0.96875,0.546875
223,0.9094238,-0.14068604,0.37591553,1.5,1.3125,0.375
224,0.9003906,-0.14068604,0.37176514,1.203125,1.453125,0.546875
225,0.92456055,-0.15338135,0.36590576,1.53125,0.640625,0.109375
226,0.9382324,-0.16412354,0.35784912,-0.328125,-1.671875,-0.484375
227,0.9423828,-0.13140869,0.3998413,1.515625,0.703125,-1.609375
228,0.8811035,-0.15557861,0.36639404,3.78125,2.765625,-1.484375
229,0.9038086,-0.14874268,0.35272217,2.234375,2.1875,-1.359375
230,0.90478516,-0.17510986,0.36273193,2.59375,0.078125,-1.0
231,0.9104004,-0.17486572,0.3817749,1.1875,-1.046875,-1.375
232,0.9099121,-0.15924072,0.3444214,-2.25,-3.59375,-0.0625
233,0.90356445,-0.15142822,0.35516357,-2.203125,-2.234375,-0.0625
234,0.9104004,-0.16143799,0.369812,0.921875,-0.921875,-0.75
235,0.9042969,-0.15289307,0.3649292,-0.6875,-2.796875,-0.421875
236,0.9111328,-0.14630127,0.36834717,-2.65625,-3.140625,-0.375
237,0.90527344,-0.15753174,0.36590576,-1.953125,-2.609375,-0.109375
238,0.8935547,-0.15509033,0.371521,-1.3125,-0.921875,-0.09375
239,0.88623047,-0.14605713,0.37615967,1.28125,-0.34375,-0.125
240,0.892334,-0.1482544,0.3703003,1.34375,0.875,0.515625
241,0.86987305,-0.16314697,0.37054443,2.25,-0.546875,2.984375
242,0.9182129,-0.16217041,0.36883545,-2.59375,-5.0,3.421875
243,0.9189453,-0.14678955,0.35760498,-1.421875,-4.0625,3.96875
244,0.9121094,-0.12237549,0.37591553,0.109375,-0.28125,2.296875
245,0.90283203,-0.13702393,0.37908936,-0.71875,0.15625,1.203125
246,0.90966797,-0.14678955,0.3829956,-0.625,-0.265625,1.34375
247,0.9016113,-0.14141846,0.36761475,-1.109375,0.203125,1.328125
248,0.9238281,-0.1609497,0.38323975,0.75,1.4375,1.015625
249,0.9082031,-0.1482544,0.3764038,-3.296875,-1.453125,0.375
250,0.90478516,-0.14654541,0.38812256,-1.703125,-0.328125,0.484375
251,0.9057617,-0.1350708,0.3703003,-3.875,-1.96875,0.890625
252,0.90478516,-0.11993408,0.37078857,-4.625,-1.265625,0.53125
253,0.90625,-0.13482666,0.3817749,1.1875,2.046875,0.34375
254,0.9177246,-0.13653564,0.3895874,1.859375,1.65625,-0.171875
255,0.9309082,-0.14361572,0.38446045,1.125,-1.046875,-0.3125
256,0.9301758,-0.13092041,0.38128662,-0.1875,-1.3125,-1.203125
257,0.9057617,-0.12896729,0.3847046,2.703125,2.921875,-1.25
258,0.89941406,-0.13458252,0.37420654,4.296875,3.609375,-1.484375
259,0.8977051,-0.15582275,0.3727417,4.921875,3.890625,-1.8125
260,0.90185547,-0.15582275,0.3637085,3.75,1.78125,-1.09375
261,0.91552734,-0.16314697,0.36273193,2.8125,0.203125,-1.21875
262,0.9104004,-0.15753174,0.37298584,0.484375,-1.015625,-0.859375
263,0.90649414,-0.1519165,0.3583374,-1.1875,-2.109375,-0.6875
264,0.9067383,-0.1482544,0.35516357,-1.0625,-1.671875,-0.671875
265,0.9128418,-0.15411377,0.3710327,-1.453125,-2.046875,-0.6875
266,0.9055176,-0.1572876,0.36834717,-3.078125,-3.5625,-0.515625
267,0.90185547,-0.15533447,0.37005615,-2.078125,-1.9375,0.171875
268,0.8955078,-0.14508057,0.3739624,-0.5625,-1.546875,0.0
269,0.88793945,-0.13800049,0.3637085,-1.609375,-2.5,0.359375
270,0.8967285,-0.1428833,0.38446045,1.421875,-1.109375,1.15625
271,0.9108887,-0.14385986,0.3505249,-2.734375,-4.4375,3.703125
272,0.9135742,-0.15118408,0.35906982,-2.859375,-0.40625,3.34375
273,0.90600586,-0.13555908,0.39105225,-0.421875,0.375,2.0
274,0.91625977,-0.12408447,0.37738037,-1.515625,0.046875,0.984375
275,0.8979492,-0.12506104,0.36761475,-1.265625,-0.125,0.71875
276,0.91137695,-0.14337158,0.38861084,0.90625,1.25,0.578125
277,0.91674805,-0.1494751,0.37591553,0.15625,1.9375,1.0
278,0.91918945,-0.14190674,0.3817749,-1.546875,-0.015625,1.046875
279,0.9086914,-0.13995361,0.37493896,-2.3125,-1.484375,0.40625
280,0.9094238,-0.13897705,0.3805542,-0.640625,-0.953125,0.796875
281,0.9133301,-0.12921143,0.3756714,-1.984375,-1.4375,0.75
282,0.904541,-0.1296997,0.3866577,-0.40625,-0.609375,0.25
283,0.9025879,-0.12872314,0.38641357,0.71875,1.03125,0.234375
284,0.91748047,-0.13604736,0.38739014,1.453125,0.3125,-0.109375
285,0.920166,-0.15631104,0.39349365,0.78125,-1.953125,-0.53125
286,0.93530273,-0.1416626,0.38323975,-1.265625,-4.203125,-0.859375
287,0.89404297,-0.12384033,0.37298584,1.359375,0.5,-1.234375
288,0.89941406,-0.13604736,0.3895874,5.25,4.453125,-1.34375
289,0.91259766,-0.15411377,0.37591553,4.015625,3.0,-1.5
290,0.8967285,-0.15582275,0.3842163,3.5,1.875,-1.09375
291,0.9033203,-0.14190674,0.35101318,-1.5625,-0.96875,-0.578125
292,0.90112305,-0.15948486,0.36541748,0.109375,-0.171875,-0.625
293,0.9082031,-0.15509033,0.3703003,1.421875,0.046875,-1.140625
294,0.91674805,-0.14581299,0.3583374,-1.5625,-1.59375,-0.984375
295,0.9099121,-0.14752197,0.36297607,-1.109375,-1.640625,-0.734375
296,0.91625977,-0.14874268,0.36395264,-2.046875,-2.921875,-0.8125
297,0.90063477,-0.1506958,0.37591553,-1.21875,-2.65625,-0.5625
298,0.89697266,-0.14849854,0.3776245,-0.671875,-2.421875,-0.015625
299,0.875,-0.14019775,0.3637085,-1.625,-3.8125,0.3125
300,0.8774414,-0.14996338,0.39666748,0.125,-1.703125,1.015625
301,0.8828125,-0.15216064,0.36810303,0.765625,-1.65625,3.640625
302,0.91625977,-0.14703369,0.369812,-2.125,-3.5625,2.828125
303,0.9213867,-0.13848877,0.38739014,-2.9375,-3.265625,2.1875
304,0.90185547,-0.12554932,0.38519287,-3.015625,-0.640625,1.4375
305,0.9086914,-0.13018799,0.39056396,-0.515625,-0.34375,1.140625
306,0.8959961,-0.12945557,0.38397217,-1.84375,-0.4375,1.359375
307,0.9121094,-0.1453247,0.39959717,0.078125,1.140625,1.046875
308,0.9094238,-0.13726807,0.3937378,-1.828125,-0.171875,1.09375
309,0.9050293,-0.13970947,0.41351318,0.078125,-0.140625,0.5
310,0.9082031,-0.13555908,0.387146,-3.734375,-2.15625,0.5
311,0.8967285,-0.120666504,0.38275146,-3.796875,-1.1875,0.859375
312,0.90478516,-0.12823486,0.39715576,3.328125,3.484375,0.421875
313,0.91918945,-0.12994385,0.3949585,2.828125,1.734375,0.046875
314,0.9265137,-0.13726807,0.3925171,1.390625,-1.03125,-0.859375
315,0.92871094,-0.1296997,0.38226318,0.453125,-1.765625,-1.3125
316,0.888916,-0.12506104,0.3727417,2.390625,1.8125,-1.125
317,0.89160156,-0.13433838,0.39300537,6.140625,4.546875,-1.09375
318,0.90625,-0.14215088,0.37249756,2.296875,2.453125,-1.0
319,0.8991699,-0.16485596,0.37591553,3.5,2.328125,-0.890625
320,0.9091797,-0.15411377,0.37005615,2.890625,1.15625,-0.515625
321,0.90966797,-0.15240479,0.3612671,0.90625,-0.71875,-0.46875
322,0.8996582,-0.14605713,0.3710327,0.796875,-0.703125,-0.734375
323,0.9116211,-0.14727783,0.36419678,-0.953125,-1.5,-0.625
324,0.9067383,-0.1494751,0.36834717,-0.671875,-2.0,-0.84375
325,0.9050293,-0.14801025,0.36590576,-1.859375,-1.5625,-0.296875
326,0.9033203,-0.15435791,0.37005615,-0.84375,-2.21875,-0.484375
327,0.90283203,-0.15216064,0.37713623,-2.0625,-3.890625,-0.140625
328,0.8894043,-0.14385986,0.39691162,-2.765625,-4.953125,-0.046875
329,0.89208984,-0.1428833,0.40203857,-2.65625,-4.765625,0.359375
330,0.85961914,-0.1519165,0.38616943,-3.546875,-5.78125,2.359375
331,0.90625,-0.14361572,0.36834717,-2.34375,-5.296875,2.046875
332,0.9128418,-0.13287354,0.3847046,-2.765625,-2.3125,1.984375
333,0.8964844,-0.12310791,0.38983154,0.046875,1.53125,1.28125
334,0.90234375,-0.12554932,0.3932495,1.53125,2.140625,1.0
335,0.9020996,-0.13726807,0.40789795,2.015625,2.984375,1.28125
336,0.9111328,-0.14434814,0.39569092,0.65625,2.328125,1.25
337,0.9033203,-0.14019775,0.39300537,-0.84375,0.390625,0.703125
338,0.8989258,-0.13800049,0.39959717,-0.15625,0.875,0.875
339,0.90966797,-0.13824463,0.3925171,-0.59375,0.109375,0.71875
340,0.90405273,-0.13067627,0.3925171,-1.328125,0.0,0.75
341,0.90356445,-0.12237549,0.3883667,0.28125,0.828125,0.328125
342,0.9086914,-0.12750244,0.3847046,1.03125,1.859375,0.140625
343,0.9121094,-0.1428833,0.39569092,1.765625,1.0625,0.109375
344,0.9243164,-0.14996338,0.37957764,1.609375,-0.671875,-0.109375
345,0.9238281,-0.14434814,0.36932373,1.921875,-1.03125,-1.171875
346,0.92871094,-0.13018799,0.39886475,7.125,6.1875,-1.9375
347,0.89453125,-0.15386963,0.36273193,3.625,2.1875,-1.59375
348,0.9003906,-0.15118408,0.39471436,1.015625,1.328125,-1.703125
349,0.90112305,-0.15167236,0.35028076,0.28125,-1.65625,-0.671875
350,0.90966797,-0.15045166,0.3637085,-1.5,-1.296875,-0.65625
351,0.90063477,-0.16363525,0.37786865,1.640625,-0.78125,-0.890625
352,0.9086914,-0.15411377,0.36541748,-1.796875,-3.015625,-0.640625
353,0.8972168,-0.14093018,0.36444092,-2.75,-3.390625,-0.5
354,0.9116211,-0.14898682,0.3768921,-1.09375,-2.59375,-0.65625
355,0.90185547,-0.159729,0.38885498,-1.59375,-3.859375,-0.3125
356,0.8964844,-0.15460205,0.38909912,-2.875,-4.6875,0.046875
357,0.8967285,-0.14752197,0.38397217,-4.5625,-4.390625,0.359375
358,0.8901367,-0.14581299,0.38641357,-0.171875,-1.0625,0.359375
359,0.8918457,-0.13336182,0.38739014,0.96875,0.015625,0.1875
360,0.8696289,-0.1362915,0.3986206,3.9375,3.0,1.0625
361,0.8886719,-0.14776611,0.38397217,4.171875,2.1875,2.15625
362,0.92626953,-0.1560669,0.38494873,0.109375,-0.328125,1.765625
363,0.9248047,-0.15216064,0.39398193,-1.84375,-2.9375,1.40625
364,0.9013672,-0.13775635,0.37420654,-3.21875,-0.984375,1.984375
365,0.8955078,-0.13433838,0.38641357,1.40625,1.671875,1.21875
366,0.9145508,-0.14312744,0.38275146,-0.8125,0.046875,1.0
367,0.90283203,-0.14678955,0.40911865,0.546875,0.40625,0.609375
368,0.91137695,-0.14776611,0.37445068,-2.53125,-2.25,0.78125
369,0.88964844,-0.13433838,0.37738037,-3.421875,-1.015625,0.859375
370,0.8984375,-0.13897705,0.3925171,1.71875,1.578125,0.296875
371,0.90527344,-0.13189697,0.39227295,0.46875,0.515625,0.34375
372,0.91186523,-0.1350708,0.38250732,0.9375,1.203125,0.21875
373,0.92163086,-0.14141846,0.385437,1.5,0.40625,-0.296875
374,0.92407227,-0.14117432,0.38275146,0.703125,-0.953125,-0.65625
375,0.9326172,-0.14141846,0.39959717,1.0,0.171875,-1.453125
376,0.8977051,-0.13580322,0.38153076,0.5625,-0.734375,-1.171875
377,0.9013672,-0.14337158,0.37225342,1.234375,1.328125,-1.25
378,0.90478516,-0.15826416,0.3866577,2.96875,0.890625,-0.828125
379,0.90600586,-0.16119385,0.39056396,-0.65625,-2.375,-1.1875
380,0.8947754,-0.15460205,0.37469482,-1.515625,-2.546875,-0.453125
381,0.90722656,-0.14752197,0.38079834,-0.3125,-1.421875,-0.234375
382,0.89331055,-0.14971924,0.38372803,0.390625,-1.046875,-0.296875
383,0.9003906,-0.14581299,0.38372803,-1.25,-2.875,-0.546875
384,0.89941406,-0.15533447,0.39007568,-1.296875,-1.703125,-0.296875
385,0.9013672,-0.15142822,0.385437,-1.0625,-2.28125,-0.125
386,0.8972168,-0.15142822,0.38323975,-2.921875,-3.296875,-0.1875
387,0.8869629,-0.13897705,0.3944702,-0.140625,-2.1875,-0.234375
388,0.87109375,-0.13238525,0.38323975,-1.65625,-1.859375,0.25
389,0.8754883,-0.13946533,0.39422607,4.078125,2.546875,1.125
390,0.87646484,-0.1519165,0.38275146,2.78125,-1.359375,2.4375
391,0.9199219,-0.13458252,0.3991089,0.875,-1.203125,3.234375
392,0.91845703,-0.1519165,0.4003296,-2.359375,-1.734375,2.65625
393,0.9001465,-0.13555908,0.38763428,-3.234375,-1.75,1.59375
394,0.8952637,-0.13873291,0.387146,-1.390625,0.34375,1.0
395,0.9069824,-0.12872314,0.3895874,-1.1875,0.515625,1.265625
396,0.9003906,-0.14117432,0.4022827,-1.546875,0.359375,1.0625
397,0.9086914,-0.14727783,0.40350342,-0.96875,1.109375,0.78125
398,0.9057617,-0.13702393,0.3949585,-2.796875,-0.078125,1.5
399,0.9030762,-0.12750244,0.40325928,-1.90625,-0.5625,0.40625
400,0.89575195,-0.1296997,0.38519287,-3.328125,-1.546875,0.796875
401,0.90283203,-0.12335205,0.3991089,-1.484375,-0.796875,0.25
402,0.9104004,-0.13116455,0.40594482,0.34375,-0.5,0.15625
403,0.9140625,-0.13433838,0.4081421,0.984375,-1.171875,-0.5625
404,0.9128418,-0.12701416,0.40545654,2.234375,-0.484375,-0.734375
405,0.89868164,-0.12213135,0.40667725,3.796875,1.296875,-1.203125
406,0.89941406,-0.1350708,0.3944702,2.734375,1.734375,-1.09375
407,0.8996582,-0.13604736,0.39056396,5.078125,3.9375,-0.875
408,0.9030762,-0.14605713,0.3829956,0.703125,1.390625,-0.421875
409,0.9123535,-0.15582275,0.39837646,5.734375,4.5625,-0.953125
410,0.9099121,-0.15753174,0.3842163,2.25,-0.140625,-0.96875
411,0.89624023,-0.13922119,0.37054443,-1.03125,-1.515625,-0.25
412,0.90283203,-0.14703369,0.38201904,-0.671875,-0.8125,-0.65625
413,0.90112305,-0.1428833,0.3690796,-1.125,-1.03125,-0.4375
414,0.90771484,-0.14312744,0.3703003,-0.921875,-0.171875,-0.40625
415,0.9030762,-0.14849854,0.37005615,-1.5,-0.96875,-0.46875
416,0.89624023,-0.1404419,0.36932373,-1.09375,-0.296875,-0.109375
417,0.90283203,-0.14849854,0.38323975,1.25,-0.21875,-0.265625
418,0.89160156,-0.13580322,0.3710327,0.5625,-0.515625,0.25
419,0.8859863,-0.13653564,0.38079834,1.984375,0.671875,0.75
420,0.88964844,-0.1494751,0.36419678,-0.078125,-2.84375,1.96875
421,0.92700195,-0.15631104,0.38641357,-3.421875,-8.328125,2.28125
422,0.90966797,-0.13555908,0.38446045,-6.890625,-7.1875,3.125
423,0.8996582,-0.11553955,0.40325928,-1.984375,-1.984375,1.40625
424,0.904541,-0.13311768,0.38568115,-1.546875,-1.609375,1.078125
425,0.89038086,-0.12408447,0.41986084,-0.734375,-0.9375,0.640625
426,0.9074707,-0.1506958,0.40301514,0.046875,-0.453125,0.75
427,0.8996582,-0.13238525,0.4022827,-3.625,-1.6875,0.828125
428,0.90112305,-0.14190674,0.42059326,0.828125,1.40625,0.78125
429,0.8977051,-0.13116455,0.41107178,-0.3125,0.640625,0.390625
430,0.90063477,-0.12237549,0.4039917,-1.0,0.421875,0.390625
431,0.9020996,-0.12945557,0.4015503,-0.1875,0.21875,0.0625
432,0.9038086,-0.13433838,0.41326904,1.65625,1.171875,-0.0625
433,0.92211914,-0.1350708,0.40838623,1.6875,0.609375,-0.671875
434,0.91918945,-0.13580322,0.39715576,0.21875,-0.578125,-1.15625
435,0.8984375,-0.12579346,0.39642334,3.671875,2.984375,-1.390625
436,0.8925781,-0.14117432,0.39056396,6.03125,6.4375,-1.171875
437,0.8991699,-0.14727783,0.385437,5.859375,5.34375,-0.8125
438,0.9091797,-0.14996338,0.37249756,3.203125,2.546875,-0.5625
439,0.9165039,-0.15875244,0.36688232,2.140625,1.984375,-0.78125
440,0.91186523,-0.1519165,0.3678589,1.4375,0.0625,-0.515625
441,0.91064453,-0.14727783,0.36810303,0.34375,-0.90625,-0.796875
442,0.90478516,-0.14678955,0.36273193,-1.265625,-1.53125,-0.21875
443,0.90893555,-0.1531372,0.36395264,-0.15625,-1.03125,-0.53125
444,0.9135742,-0.15997314,0.3637085,-1.921875,-2.15625,-0.5625
445,0.9086914,-0.15264893,0.38323975,-0.34375,-2.75,-0.671875
446,0.8947754,-0.14874268,0.36590576,-3.5,-3.890625,-0.09375
447,0.88793945,-0.14361572,0.38787842,-0.234375,-1.234375,0.265625
448,0.8918457,-0.13531494,0.3859253,0.828125,-2.453125,0.21875
449,0.8688965,-0.1416626,0.39056396,1.015625,-0.96875,1.359375
450,0.8901367,-0.13653564,0.36273193,0.109375,-3.65625,2.421875
451,0.92529297,-0.14996338,0.37738037,-0.0625,-2.734375,1.953125
452,0.9074707,-0.13775635,0.39935303,-2.921875,-2.484375,1.53125
453,0.9016113,-0.128479,0.38983154,-2.859375,-1.015625,1.265625
454,0.8991699,-0.13287354,0.3764038,-1.625,-0.171875,1.125
455,0.90405273,-0.13580322,0.40179443,1.34375,2.15625,0.734375
456,0.90478516,-0.14556885,0.40838623,0.59375,1.53125,0.625
457,0.9111328,-0.1494751,0.39837646,-1.015625,-0.078125,0.640625
458,0.90234375,-0.14483643,0.39666748,-0.6875,-0.65625,0.546875
459,0.90283203,-0.13897705,0.38983154,-1.375,-0.4375,0.546875
460,0.90893555,-0.13726807,0.39544678,0.59375,0.078125,0.171875
461,0.9187012,-0.14654541,0.38104248,0.859375,-0.625,-0.046875
462,0.9272461,-0.14190674,0.40716553,2.703125,1.0,-0.8125
463,0.9074707,-0.13555908,0.39056396,2.09375,0.625,-1.25
464,0.8952637,-0.13018799,0.387146,0.875,0.78125,-0.78125
465,0.90112305,-0.14849854,0.3788452,2.34375,1.234375,-0.578125
466,0.9033203,-0.14117432,0.3788452,-0.8125,0.59375,-0.484375
467,0.904541,-0.16046143,0.3944702,4.125,2.96875,-0.65625
468,0.9133301,-0.15704346,0.36566162,1.1875,0.8125,-0.828125
469,0.9091797,-0.14581299,0.37078857,-0.515625,-0.84375,-0.875
470,0.92089844,-0.14996338,0.36663818,-1.25,-1.890625,-1.015625
471,0.89990234,-0.15216064,0.3781128,-1.25,-1.859375,-1.015625
472,0.9069824,-0.14752197,0.36688232,-1.296875,-3.171875,-0.328125
473,0.9067383,-0.15167236,0.3764038,-3.6875,-3.5625,0.375
474,0.89160156,-0.14630127,0.38323975,-4.6875,-5.9375,0.40625
475,0.8952637,-0.14117432,0.4064331,-4.53125,-5.90625,0.546875
476,0.8798828,-0.12945557,0.39569092,-2.9375,-3.234375,0.75
477,0.86621094,-0.13018799,0.38641357,-1.984375,-0.328125,0.921875
478,0.88842773,-0.13433838,0.38787842,-0.15625,1.125,1.4375
479,0.92822266,-0.14703369,0.401062,-1.90625,-0.609375,1.375
480,0.89453125,-0.13287354,0.40594482,-3.265625,-0.765625,1.859375
481,0.89331055,-0.12799072,0.40789795,-0.59375,1.234375,1.59375
482,0.89624023,-0.13531494,0.3973999,0.53125,1.0625,1.75
483,0.9001465,-0.11798096,0.41644287,-0.078125,1.234375,1.1875
484,0.90112305,-0.15216064,0.39935303,1.484375,1.484375,1.265625
485,0.90112305,-0.12432861,0.3908081,-2.15625,-0.140625,1.390625
486,0.8979492,-0.13824463,0.39031982,1.265625,0.984375,0.6875
487,0.90771484,-0.13775635,0.3949585,0.671875,0.75,0.765625
488,0.90966797,-0.12799072,0.38616943,0.265625,0.328125,0.59375
489,0.9169922,-0.1260376,0.39007568,0.5625,0.5,0.421875
490,0.9108887,-0.1296997,0.40130615,2.5625,1.125,-0.171875
491,0.9160156,-0.13653564,0.39544678,2.078125,-0.40625,-0.25
492,0.92871094,-0.14727783,0.39764404,1.4375,-0.9375,-0.796875
493,0.90185547,-0.12017822,0.3788452,3.0,1.078125,-0.734375
494,0.8942871,-0.13873291,0.3944702,7.21875,5.046875,-1.171875
495,0.89697266,-0.13995361,0.38031006,5.015625,3.4375,-0.75
496,0.9111328,-0.15020752,0.3764038,3.46875,1.9375,-1.234375
497,0.90893555,-0.15997314,0.3612671,3.0,1.75,-0.703125
498,0.91748047,-0.15362549,0.36053467,2.875,1.265625,-0.5
499,0.91186523,-0.15435791,0.36468506,1.890625,-0.203125,-0.78125
500,0.89868164,-0.15533447,0.35369873,-0.796875,-1.96875,-0.203125
501,0.90600586,-0.15533447,0.36932373,-0.265625,-2.09375,-0.359375
502,0.91186523,-0.15704346,0.3534546,-1.15625,-3.0,-0.15625
503,0.8930664,-0.13140869,0.38079834,-3.40625,-3.1875,0.125
504,0.89331055,-0.12872314,0.354187,-4.0,-4.03125,0.53125
505,0.88671875,-0.14874268,0.36297607,-2.203125,-0.984375,1.40625
506,0.89038086,-0.13995361,0.37176514,-0.8125,-1.234375,2.265625
507,0.92822266,-0.14630127,0.36395264,-3.40625,-3.90625,1.8125
508,0.92407227,-0.13018799,0.3805542,-3.71875,-2.859375,2.46875
509,0.9030762,-0.117492676,0.37835693,-2.203125,-0.28125,2.09375
510,0.9055176,-0.12310791,0.37860107,-0.265625,1.53125,2.140625
511,0.9042969,-0.13677979,0.39007568,2.59375,2.546875,1.6875
512,0.9135742,-0.14215088,0.38397217,0.296875,1.75,1.453125
513,0.9152832,-0.13409424,0.3788452,0.265625,1.140625,1.390625
514,0.9145508,-0.14239502,0.37493896,-0.1875,0.078125,0.703125
515,0.9038086,-0.11968994,0.37322998,-1.6875,0.234375,0.90625
516,0.90966797,-0.11993408,0.3768921,-0.6875,0.421875,0.40625
517,0.9199219,-0.12530518,0.37176514,-1.4375,-0.15625,0.4375
518,0.92041016,-0.12408447,0.37786865,-1.125,-0.265625,0.28125
519,0.9211426,-0.12994385,0.36444092,-0.046875,-0.484375,-0.0625
520,0.93652344,-0.13165283,0.37982178,1.828125,-0.046875,-0.796875
521,0.93530273,-0.12042236,0.37469482,3.34375,1.953125,-1.21875
522,0.9025879,-0.12506104,0.36956787,7.734375,4.671875,-1.921875
523,0.9003906,-0.12335205,0.338562,3.5,3.796875,-1.109375
524,0.9140625,-0.15631104,0.35784912,8.0,4.125,-1.53125
525,0.92578125,-0.15875244,0.34613037,0.375,-0.78125,-0.890625
526,0.9160156,-0.15460205,0.34906006,3.0,-0.25,-1.015625
527,0.91186523,-0.1519165,0.34246826,1.515625,-0.84375,-0.984375
528,0.9157715,-0.14361572,0.34710693,-0.09375,-2.015625,-1.15625
529,0.9133301,-0.14654541,0.34368896,-1.9375,-3.640625,-0.921875
530,0.91552734,-0.1494751,0.34417725,-2.828125,-3.625,-1.046875
531,0.90527344,-0.15557861,0.35687256,-1.90625,-2.765625,-0.390625
532,0.9104004,-0.14752197,0.3649292,-2.734375,-2.9375,-0.203125
533,0.9055176,-0.1519165,0.36273193,-2.203125,-2.71875,0.140625
534,0.88720703,-0.14434814,0.36834717,-0.96875,-2.203125,0.21875
535,0.8859863,-0.13897705,0.3776245,-0.46875,-0.453125,1.0
536,0.88305664,-0.1404419,0.36663818,-1.171875,-2.046875,2.9375
537,0.9082031,-0.1350708,0.37005615,-2.921875,-5.359375,2.203125
538,0.92529297,-0.14361572,0.36956787,-4.734375,-5.671875,2.21875
539,0.91137695,-0.1182251,0.36273193,-4.921875,-3.421875,1.875
540,0.90283203,-0.11529541,0.38446045,-1.765625,0.328125,1.421875
541,0.91064453,-0.13677979,0.39227295,0.921875,1.3125,1.0625
542,0.9074707,-0.12261963,0.3834839,-2.5,-0.578125,1.046875
543,0.91625977,-0.15289307,0.39935303,1.0,0.765625,0.890625
544,0.9121094,-0.13726807,0.38519287,-3.40625,-1.4375,1.078125
545,0.89624023,-0.11602783,0.3944702,-0.5625,0.765625,1.09375
546,0.9177246,-0.13189697,0.38616943,1.203125,1.546875,0.625
547,0.907959,-0.11456299,0.37957764,0.140625,0.9375,0.34375
548,0.9230957,-0.13336182,0.38104248,1.25,1.015625,-0.21875
549,0.9472656,-0.13653564,0.3781128,2.171875,1.46875,-0.890625
550,0.9394531,-0.13043213,0.3776245,3.328125,3.125,-2.0
551,0.89575195,-0.12823486,0.3739624,4.703125,3.296875,-1.765625
552,0.8796387,-0.13555908,0.35760498,3.484375,1.75,-1.0
553,0.91748047,-0.15045166,0.3612671,3.96875,1.84375,-0.875
554,0.9255371,-0.15777588,0.36224365,2.75,1.109375,-0.734375
555,0.9160156,-0.14874268,0.3546753,1.6875,-0.53125,-1.0625
556,0.9055176,-0.14263916,0.34466553,-1.234375,-1.953125,-0.8125
557,0.9135742,-0.14263916,0.35198975,-0.609375,-2.078125,-1.109375
558,0.9099121,-0.14361572,0.36029053,-0.8125,-3.234375,-1.03125
559,0.9074707,-0.144104,0.36151123,-3.109375,-3.796875,-0.40625
560,0.9104004,-0.1572876,0.371521,-2.140625,-3.21875,-0.59375
561,0.89624023,-0.15289307,0.38616943,-1.4375,-3.609375,-0.71875
562,0.88134766,-0.13018799,0.39178467,-1.3125,-3.296875,-0.203125
563,0.87939453,-0.13043213,0.37371826,0.21875,-0.984375,0.484375
564,0.8757324,-0.15533447,0.38079834,0.609375,-0.25,2.234375
565,0.9057617,-0.14874268,0.33880615,0.75,-1.875,1.71875
566,0.92333984,-0.14556885,0.37615967,0.84375,-0.421875,1.53125
567,0.90649414,-0.12994385,0.37445068,-1.171875,-0.15625,1.375
568,0.9140625,-0.13677979,0.36224365,0.34375,1.828125,1.109375
569,0.91381836,-0.14605713,0.37738037,0.9375,1.875,1.234375
570,0.91381836,-0.14923096,0.37420654,0.21875,1.09375,1.203125
571,0.904541,-0.15240479,0.369812,-1.125,0.21875,1.125
572,0.9057617,-0.14581299,0.37445068,-1.140625,0.328125,1.234375
573,0.9104004,-0.13653564,0.3710327,-1.359375,-0.5,0.640625
574,0.8996582,-0.12652588,0.36761475,-1.078125,0.3125,0.59375
575,0.90844727,-0.12579346,0.3678589,0.40625,1.125,0.46875
576,0.9160156,-0.13824463,0.3764038,1.765625,1.328125,0.078125
577,0.9260254,-0.14801025,0.36834717,0.71875,-0.46875,-0.46875
578,0.92333984,-0.14849854,0.37005615,0.734375,-0.671875,-0.21875
579,0.9116211,-0.13287354,0.3456421,-0.859375,-2.0,-0.5625
580,0.9226074,-0.13726807,0.36834717,3.015625,1.921875,-0.890625
581,0.91137695,-0.14385986,0.37200928,3.171875,2.953125,-1.015625
582,0.91430664,-0.14263916,0.36419678,1.390625,1.640625,-0.671875
583,0.9086914,-0.15435791,0.3378296,1.4375,0.015625,-0.71875
584,0.91381836,-0.15045166,0.34710693,-1.0625,-1.953125,-0.265625
585,0.91186523,-0.16363525,0.35980225,1.390625,-1.46875,-0.765625
586,0.9123535,-0.15167236,0.35687256,-1.9375,-3.5,-0.703125
587,0.9094238,-0.13922119,0.35931396,-2.5,-3.703125,-0.578125
588,0.91308594,-0.14093018,0.36419678,-2.65625,-3.953125,-0.890625
589,0.90356445,-0.14337158,0.36444092,-2.140625,-3.609375,-0.46875
590,0.90283203,-0.14068604,0.36541748,-2.296875,-4.125,-0.328125
591,0.9033203,-0.15020752,0.37493896,-3.09375,-3.984375,-0.4375
592,0.88964844,-0.1482544,0.38568115,-1.53125,-2.34375,0.03125
593,0.89331055,-0.13458252,0.38739014,-0.1875,-2.34375,0.3125
594,0.8679199,-0.13970947,0.3751831,2.125,2.609375,2.109375
595,0.89868164,-0.1572876,0.38031006,0.171875,-0.921875,2.40625
596,0.91845703,-0.14239502,0.3739624,-3.875,-3.140625,2.40625
597,0.9165039,-0.1375122,0.38934326,-2.734375,-0.328125,1.859375
598,0.8984375,-0.12188721,0.37713623,-3.65625,-1.46875,1.671875
599,0.90649414,-0.12823486,0.3908081,-0.640625,1.421875,1.328125
600,0.90722656,-0.14068604,0.38861084,-2.21875,0.265625,1.09375
601,0.9067383,-0.12799072,0.4171753,-0.890625,0.765625,0.65625
602,0.9123535,-0.14508057,0.3895874,-1.9375,-1.203125,0.6875
603,0.9038086,-0.12628174,0.35931396,-4.75,-1.265625,1.25
604,0.8989258,-0.120910645,0.39788818,0.515625,0.84375,0.703125
605,0.91674805,-0.12335205,0.3944702,0.890625,0.59375,0.453125
606,0.91552734,-0.13409424,0.39886475,1.953125,2.140625,0.140625
607,0.9367676,-0.14093018,0.38568115,-1.671875,-2.140625,-0.34375
608,0.9160156,-0.1260376,0.38690186,-1.515625,-3.890625,-1.203125
609,0.91015625,-0.11846924,0.39959717,2.0625,0.75,-1.1875
610,0.90356445,-0.11651611,0.40130615,4.140625,1.6875,-1.140625
611,0.89453125,-0.13043213,0.38690186,3.09375,1.359375,-0.90625
612,0.9013672,-0.1519165,0.38568115,3.421875,1.265625,-1.0625
613,0.9135742,-0.14752197,0.37860107,2.59375,-0.96875,-0.84375
614,0.9033203,-0.14239502,0.36932373,1.203125,-0.375,-0.328125
615,0.9147949,-0.14263916,0.37005615,0.625,-1.953125,-0.53125
616,0.9020996,-0.14483643,0.3883667,0.515625,-2.734375,-0.890625
617,0.9001465,-0.1453247,0.38812256,-1.625,-3.1875,-0.328125
618,0.8996582,-0.1338501,0.38812256,-2.421875,-3.078125,-0.5
619,0.8959961,-0.13311768,0.38153076,-2.5,-4.28125,-0.78125
620,0.8996582,-0.14093018,0.38861084,-3.28125,-3.65625,-0.359375
621,0.8901367,-0.13360596,0.3991089,-0.796875,-2.578125,-0.421875
622,0.8730469,-0.13140869,0.3991089,-0.515625,-1.40625,0.046875
623,0.87890625,-0.13287354,0.39520264,6.21875,4.75,0.109375
624,0.8654785,-0.14263916,0.38128662,9.21875,6.140625,1.234375
625,0.9226074,-0.144104,0.39666748,5.28125,2.96875,2.203125
626,0.94384766,-0.16705322,0.3685913,-1.484375,-0.703125,2.296875
627,0.90405273,-0.1362915,0.3678589,-3.109375,-0.703125,2.203125
628,0.90063477,-0.12823486,0.36468506,-2.1875,0.03125,2.046875
629,0.91137695,-0.13165283,0.38250732,0.296875,1.640625,1.484375
630,0.91137695,-0.14459229,0.37860107,-0.96875,0.796875,1.5
631,0.9145508,-0.14605713,0.38616943,1.1875,1.765625,0.9375
632,0.907959,-0.14703369,0.38006592,-0.375,0.71875,0.875
633,0.90405273,-0.14239502,0.37347412,-0.078125,0.8125,0.640625
634,0.90625,-0.12628174,0.3703003,0.4375,0.875,0.828125
635,0.9272461,-0.13092041,0.36932373,1.078125,1.015625,0.25
636,0.92578125,-0.13922119,0.37542725,1.546875,0.078125,-0.046875
637,0.93652344,-0.1416626,0.3788452,0.953125,-0.875,-0.671875
638,0.9243164,-0.13287354,0.3685913,0.828125,0.0625,-0.828125
639,0.9033203,-0.12945557,0.35443115,0.265625,0.21875,-1.078125
640,0.907959,-0.14703369,0.387146,0.984375,1.03125,-1.328125
641,0.91967773,-0.1506958,0.35003662,-0.0625,-1.53125,-0.578125
642,0.9020996,-0.14508057,0.36566162,-2.53125,-2.4375,-0.703125
643,0.9121094,-0.15338135,0.37957764,1.3125,-1.890625,-0.9375
644,0.9003906,-0.14263916,0.3612671,-1.1875,-3.765625,-0.703125
645,0.90527344,-0.1404419,0.37469482,-1.6875,-3.15625,-0.390625
646,0.91308594,-0.13873291,0.3776245,-2.4375,-3.96875,-0.5625
647,0.90063477,-0.14459229,0.3793335,-2.140625,-3.578125,-0.34375
648,0.890625,-0.14556885,0.38372803,-2.0,-2.609375,-0.21875
649,0.890625,-0.13726807,0.38616943,-2.265625,-3.140625,-0.15625
650,0.8852539,-0.128479,0.38690186,-0.75,-2.109375,0.078125
651,0.8798828,-0.13604736,0.38397217,1.484375,0.9375,0.65625
652,0.86621094,-0.12994385,0.3727417,3.0,3.640625,2.703125
653,0.91137695,-0.15045166,0.38885498,2.828125,1.5,2.109375
654,0.92822266,-0.15338135,0.38885498,0.515625,1.796875,2.46875
655,0.91381836,-0.13824463,0.37371826,-1.765625,0.9375,1.96875
656,0.9177246,-0.12652588,0.36102295,-2.4375,0.640625,1.0625
657,0.9128418,-0.12506104,0.37542725,1.1875,2.875,0.921875
658,0.91967773,-0.14703369,0.37200928,0.3125,2.046875,1.078125
659,0.9160156,-0.14068604,0.39471436,-0.171875,0.703125,0.421875
660,0.9165039,-0.1428833,0.36761475,-1.46875,-0.9375,0.5
661,0.90405273,-0.11993408,0.3480835,-3.328125,-0.765625,1.234375
662,0.91918945,-0.13311768,0.3703003,2.375,1.984375,0.578125
663,0.94555664,-0.15435791,0.39569092,1.84375,-1.59375,-0.484375
664,0.94018555,-0.13287354,0.38616943,-2.09375,-4.09375,-0.875
665,0.9033203,-0.12310791,0.37420654,-0.515625,-1.578125,-1.390625
666,0.89208984,-0.11529541,0.37493896,0.125,-0.9375,-1.21875
667,0.89404297,-0.14776611,0.38128662,1.734375,-0.96875,-0.75
668,0.90771484,-0.14727783,0.38397217,-0.4375,-2.015625,-0.5625
669,0.91015625,-0.15240479,0.37982178,-0.375,-1.875,-0.625
670,0.90112305,-0.13653564,0.3847046,0.65625,-1.515625,-0.671875
671,0.89868164,-0.13800049,0.3817749,0.828125,-1.4375,-0.546875
672,0.8979492,-0.13970947,0.38323975,-0.328125,-1.8125,-0.234375
673,0.9057617,-0.13873291,0.38372803,-0.53125,-1.890625,-0.359375
674,0.8947754,-0.14312744,0.3847046,-1.4375,-2.09375,-0.15625
675,0.89575195,-0.13873291,0.38226318,-1.703125,-1.875,-0.203125
676,0.8901367,-0.13092041,0.38885498,-0.9375,-0.765625,0.125
677,0.8864746,-0.13165283,0.37615967,-0.0625,-1.328125,0.3125
678,0.8803711,-0.11846924,0.3768921,-0.265625,1.375,1.6875
679,0.8833008,-0.13482666,0.37127686,-0.09375,-0.578125,2.6875
680,0.9355469,-0.1350708,0.38983154,-3.046875,-2.84375,2.921875
681,0.90893555,-0.11456299,0.38397217,-3.421875,-0.890625,2.375
682,0.9128418,-0.11505127,0.38739014,-0.859375,0.171875,1.0
683,0.91308594,-0.11968994,0.38153076,-0.890625,0.421875,1.03125
684,0.89941406,-0.12506104,0.39813232,0.640625,2.65625,0.765625
685,0.9128418,-0.13189697,0.38885498,0.9375,2.3125,0.59375
686,0.91430664,-0.13604736,0.3895874,1.796875,3.34375,0.765625
687,0.91186523,-0.13043213,0.37591553,-0.15625,1.0625,0.421875
688,0.90356445,-0.12310791,0.37200928,0.46875,0.953125,0.28125
689,0.9172363,-0.1260376,0.3739624,2.234375,1.4375,0.296875
690,0.92700195,-0.12652588,0.38519287,2.71875,0.796875,-0.125
691,0.93237305,-0.1296997,0.3781128,1.921875,1.125,-0.65625
692,0.9291992,-0.13018799,0.38031006,3.953125,0.9375,-1.265625
693,0.90649414,-0.12823486,0.35736084,2.5625,0.8125,-1.1875
694,0.90283203,-0.13848877,0.3673706,3.734375,1.3125,-1.34375
695,0.91259766,-0.14263916,0.35101318,2.03125,-0.078125,-0.96875
696,0.9086914,-0.14971924,0.35858154,2.140625,0.03125,-0.796875
697,0.9104004,-0.14312744,0.35247803,-0.40625,-1.296875,-0.09375
698,0.9091797,-0.14459229,0.35443115,0.0625,-2.34375,-0.65625
699,0.9104004,-0.13800049,0.35443115,-2.59375,-3.375,0.0
700,0.91015625,-0.13702393,0.3685913,-0.5,-3.40625,-0.515625
701,0.90649414,-0.13116455,0.36712646,-3.078125,-2.296875,-0.09375
702,0.9013672,-0.14801025,0.3834839,0.59375,-1.859375,-0.28125
703,0.90966797,-0.14361572,0.37005615,-1.53125,-3.03125,-0.140625
704,0.89868164,-0.12896729,0.37176514,-1.71875,-2.734375,0.109375
705,0.8901367,-0.1326294,0.36956787,-0.796875,-1.265625,0.09375
706,0.8828125,-0.1375122,0.35980225,1.78125,3.4375,0.296875
707,0.9013672,-0.15216064,0.3632202,0.828125,2.125,2.40625
708,0.92749023,-0.13775635,0.37078857,-5.6875,-3.453125,2.03125
709,0.9099121,-0.13043213,0.371521,-7.125,-4.203125,2.046875
710,0.9111328,-0.11236572,0.3710327,-3.75,-0.8125,1.640625
711,0.9055176,-0.11456299,0.37542725,-2.390625,-0.515625,1.21875
712,0.90112305,-0.11895752,0.38568115,-0.59375,1.484375,1.0625
713,0.91381836,-0.13360596,0.3805542,0.125,1.6875,0.625
714,0.91015625,-0.13800049,0.38006592,1.453125,2.84375,0.90625
715,0.91381836,-0.12579346,0.38201904,1.25,1.921875,0.578125
716,0.9013672,-0.13092041,0.36151123,0.25,0.53125,0.65625
717,0.9145508,-0.121154785,0.36346436,1.71875,1.328125,0.59375
718,0.92407227,-0.13677979,0.37322998,2.671875,0.234375,-0.140625
719,0.9291992,-0.13531494,0.37225342,3.109375,0.09375,-0.640625
720,0.9206543,-0.13189697,0.3571167,0.546875,-1.875,-0.78125
721,0.8989258,-0.12261963,0.35882568,3.265625,0.125,-0.703125
722,0.90185547,-0.14239502,0.37249756,6.625,3.234375,-1.390625
723,0.91430664,-0.144104,0.35638428,3.890625,1.78125,-0.953125
724,0.9177246,-0.15264893,0.35565186,1.578125,0.234375,-0.65625
725,0.92578125,-0.15289307,0.36029053,0.71875,-1.234375,-0.953125
726,0.9133301,-0.13800049,0.34979248,-0.796875,-3.03125,-0.3125
727,0.9099121,-0.14605713,0.35931396,-0.78125,-2.46875,-0.625
728,0.9094238,-0.13409424,0.3529663,-3.25,-3.703125,-0.34375
729,0.8991699,-0.14508057,0.37298584,-2.21875,-3.1875,-0.34375
730,0.9145508,-0.14874268,0.37225342,-2.28125,-3.46875,-0.375
731,0.8947754,-0.13214111,0.36468506,-2.890625,-3.375,0.09375
732,0.8859863,-0.121154785,0.36639404,-1.15625,-2.328125,0.125
733,0.89990234,-0.12921143,0.37469482,-1.0,-1.140625,0.78125
734,0.8955078,-0.14752197,0.36834717,-4.125,-2.359375,2.4375
735,0.9140625,-0.14141846,0.3986206,-7.53125,-7.203125,1.9375
736,0.90771484,-0.12872314,0.39935303,-5.421875,-5.1875,1.5
737,0.91015625,-0.112854004,0.39349365,-3.625,-3.15625,0.59375
738,0.89868164,-0.105773926,0.385437,-2.8125,0.640625,1.375
739,0.91015625,-0.11651611,0.416687,1.359375,1.671875,0.21875
740,0.90063477,-0.12335205,0.4039917,-1.5625,1.03125,1.21875
741,0.89819336,-0.124816895,0.4088745,0.265625,1.4375,0.890625
742,0.9189453,-0.14312744,0.3944702,0.0,0.796875,0.5625
743,0.8979492,-0.11114502,0.39666748,-1.171875,-0.140625,0.828125
744,0.904541,-0.11212158,0.3949585,0.375,1.109375,0.25
745,0.9169922,-0.12042236,0.39276123,2.4375,1.796875,0.03125
746,0.92993164,-0.1326294,0.39666748,4.328125,2.203125,-0.234375
747,0.9248047,-0.11968994,0.3944702,3.765625,0.90625,-1.015625
748,0.904541,-0.112854004,0.3751831,4.65625,2.984375,-0.75
749,0.88964844,-0.14239502,0.39520264,5.9375,3.15625,-1.078125
750,0.9177246,-0.15093994,0.38104248,3.15625,0.453125,-1.671875
751,0.9082031,-0.13848877,0.3583374,1.359375,-1.609375,-0.65625
752,0.9133301,-0.14239502,0.3710327,2.375,0.015625,-0.53125
753,0.90771484,-0.14239502,0.3781128,0.421875,-1.140625,-0.515625
754,0.907959,-0.14776611,0.36810303,0.5625,-1.6875,-0.40625
755,0.90771484,-0.1350708,0.37054443,-0.375,-1.671875,-0.625
756,0.90234375,-0.14923096,0.38275146,-2.0625,-1.953125,-0.140625
757,0.904541,-0.14019775,0.37908936,-1.984375,-3.109375,-0.203125
758,0.88500977,-0.13800049,0.3805542,-2.53125,-3.625,0.078125
759,0.89282227,-0.1260376,0.3949585,0.25,-3.46875,0.59375
