sample_no,accel_x,accel_y,accel_z,gyro_x,gyro_y,gyro_z
0,0.34472656,0.026306152,-0.9390259,-1.21875,-6.796875,0.4375
1,0.34985352,0.023376465,-0.9404907,-1.265625,-8.4375,0.234375
2,0.35791016,0.022644043,-0.9121704,-0.234375,-5.828125,0.3125
3,0.36865234,0.012145996,-0.9312134,0.0,-4.640625,0.1875
4,0.36621094,0.023864746,-0.92071533,0.828125,-4.03125,-0.125
5,0.3737793,0.020202637,-0.9151001,1.46875,-1.5625,0.03125
6,0.37451172,0.0289917,-0.9133911,3.625,-1.140625,0.09375
7,0.37158203,0.024597168,-0.892395,7.328125,10.890625,0.1875
8,0.35424805,0.04510498,-0.960022,3.8125,4.734375,0.515625
9,0.35327148,0.042419434,-0.95025635,1.53125,-3.671875,0.015625
10,0.36328125,0.039978027,-0.9434204,4.046875,-9.796875,0.171875
11,0.36938477,0.05316162,-0.95269775,5.75,-16.609375,-0.796875
12,0.3996582,0.05609131,-0.87506104,3.984375,-16.34375,-1.453125
13,0.41015625,0.054626465,-0.90216064,3.40625,-11.421875,-1.125
14,0.41918945,0.059020996,-0.90582275,3.671875,-13.203125,-0.96875
15,0.4477539,0.070007324,-0.89434814,4.578125,-14.78125,-1.03125
16,0.45532227,0.077819824,-0.89434814,7.5,-18.890625,-1.609375
17,0.48242188,0.07879639,-0.8621216,6.984375,-17.671875,-1.625
18,0.4699707,0.1005249,-0.87872314,3.96875,-23.140625,-3.359375
19,0.47387695,0.09173584,-0.7463989,2.0625,-11.1875,-1.625
20,0.5666504,0.05267334,-0.8364868,-1.921875,4.640625,1.078125
21,0.52783203,0.07318115,-0.8496704,0.40625,-1.46875,1.828125
22,0.53027344,0.07122803,-0.80718994,0.703125,-0.328125,2.109375
23,0.545166,0.08050537,-0.8147583,-0.953125,9.078125,2.25
24,0.501709,0.086364746,-0.8399048,-0.21875,10.484375,1.53125
25,0.48535156,0.085876465,-0.8530884,-1.4375,13.59375,1.890625
26,0.47436523,0.07171631,-0.83380127,-4.046875,21.09375,2.625
27,0.45092773,0.08416748,-0.9133911,-2.421875,9.34375,1.1875
28,0.44067383,0.074401855,-0.9065552,-2.203125,6.6875,0.921875
29,0.4321289,0.07269287,-0.85406494,-1.171875,6.8125,0.9375
30,0.42407227,0.07366943,-0.92315674,-0.578125,5.390625,0.984375
31,0.41992188,0.06732178,-0.89385986,-0.484375,3.953125,0.734375
32,0.41479492,0.07122803,-0.9092407,0.515625,-1.5,0.296875
33,0.4230957,0.06951904,-0.91070557,0.21875,-3.640625,0.25
34,0.43847656,0.07122803,-0.9717407,0.96875,-26.234375,-1.484375
35,0.41967773,0.13641357,-0.8201294,4.4375,-23.59375,2.609375
36,0.5102539,0.0067749023,-0.8460083,1.0,-1.328125,1.34375
37,0.4855957,0.07366943,-0.86138916,3.59375,-8.4375,0.5625
38,0.48999023,0.086364746,-0.8274536,1.53125,0.125,0.703125
39,0.4880371,0.081970215,-0.8621216,-0.171875,12.375,2.09375
40,0.46118164,0.07977295,-0.8508911,-1.890625,15.375,1.734375
41,0.44995117,0.085632324,-0.9368286,-3.25,15.28125,1.53125
42,0.4296875,0.074401855,-0.89801025,-3.09375,10.1875,0.890625
43,0.4169922,0.074401855,-0.9116821,-1.359375,6.015625,0.71875
44,0.41381836,0.0770874,-0.90753174,0.734375,2.921875,0.59375
45,0.4033203,0.07098389,-0.9146118,0.875,-0.65625,0.296875
46,0.40600586,0.078308105,-0.9277954,1.625,-1.875,0.3125
47,0.4152832,0.08392334,-0.9717407,5.578125,-22.0625,-1.28125
48,0.4272461,0.08123779,-0.80133057,9.8125,-19.703125,-1.828125
49,0.4868164,0.028747559,-0.77008057,0.71875,0.8125,0.953125
50,0.45532227,0.089538574,-0.8870239,3.375,-6.359375,0.15625
51,0.46606445,0.09124756,-0.8101196,2.296875,-1.984375,0.5
52,0.45361328,0.10101318,-0.84576416,-7.03125,20.875,2.421875
53,0.42700195,0.097595215,-0.94000244,-3.90625,6.28125,1.0
54,0.42211914,0.08343506,-0.9014282,-2.265625,4.3125,0.484375
55,0.4255371,0.081726074,-0.8657837,-4.125,10.453125,0.5
56,0.40795898,0.06903076,-0.8977661,-3.578125,19.703125,1.265625
57,0.37109375,0.0692749,-0.96417236,-0.5,13.265625,1.6875
58,0.36523438,0.06878662,-0.92559814,-0.28125,0.484375,0.46875
59,0.36645508,0.06732178,-0.9180298,-1.171875,3.78125,0.6875
60,0.35791016,0.06854248,-0.9434204,-1.0,-2.1875,0.28125
61,0.36621094,0.059753418,-0.91851807,-1.625,-4.015625,0.828125
62,0.37548828,0.05731201,-0.91485596,-1.4375,-7.671875,1.078125
63,0.3840332,0.078552246,-0.894104,-0.171875,-6.328125,0.125
64,0.38354492,0.06365967,-0.8882446,-2.90625,2.3125,0.1875
65,0.3930664,0.042175293,-0.91973877,-6.53125,5.515625,-0.453125
66,0.36572266,0.038757324,-0.94317627,-4.640625,1.8125,0.578125
67,0.37475586,0.043151855,-0.92852783,0.0625,-3.890625,-0.546875
68,0.37890625,0.03656006,-0.9468384,2.625,-15.703125,-2.953125
69,0.39038086,0.046081543,-0.9014282,3.09375,-20.3125,-4.171875
70,0.42089844,0.04437256,-0.8796997,2.484375,-10.109375,-3.28125
71,0.43139648,0.038024902,-0.90460205,1.328125,-7.0,-2.15625
72,0.42822266,0.047058105,-0.92144775,3.046875,-10.609375,-1.015625
73,0.4477539,0.051208496,-0.8999634,8.21875,-19.640625,-2.140625
74,0.47192383,0.066345215,-0.86505127,13.46875,-16.890625,-3.28125
75,0.47070312,0.08831787,-0.7901001,17.296875,-5.34375,-2.8125
76,0.50634766,0.09906006,-0.93341064,19.296875,-3.125,-0.03125
77,0.5349121,0.08782959,-0.86724854,12.84375,-14.953125,0.578125
78,0.49829102,0.12054443,-0.7817993,9.703125,-12.390625,0.609375
79,0.5366211,0.13812256,-0.8023071,3.484375,-7.390625,-0.40625
80,0.53686523,0.1293335,-0.8076782,0.203125,-7.359375,-1.21875
81,0.55078125,0.12713623,-0.79107666,-1.03125,-2.984375,-0.640625
82,0.55810547,0.12567139,-0.86505127,-2.984375,-0.859375,0.15625
83,0.5773926,0.12445068,-0.91119385,-1.984375,-12.875,0.5
84,0.5473633,0.1539917,-0.7605591,-1.34375,-23.078125,-0.765625
85,0.5407715,0.12664795,-0.6773071,-1.640625,-9.828125,-1.484375
86,0.59521484,0.10345459,-0.7732544,-3.03125,-0.96875,2.21875
87,0.6074219,0.09100342,-0.7732544,-3.078125,0.109375,3.109375
88,0.5878906,0.11175537,-0.76031494,-2.390625,-0.5625,2.703125
89,0.5917969,0.10272217,-0.7319946,-2.65625,5.703125,0.453125
90,0.5686035,0.10467529,-0.7485962,-4.34375,12.78125,1.03125
91,0.5637207,0.10491943,-0.81036377,-7.21875,28.3125,3.90625
92,0.5229492,0.11981201,-0.94537354,-0.90625,9.921875,3.21875
93,0.5214844,0.10443115,-0.87823486,-0.28125,-3.265625,0.875
94,0.53100586,0.101989746,-0.8362427,0.1875,0.21875,0.65625
95,0.5354004,0.10345459,-0.8428345,1.765625,-6.890625,-0.3125
96,0.5422363,0.0993042,-0.8184204,0.3125,-2.859375,-0.203125
97,0.54956055,0.10028076,-0.8428345,0.6875,-4.859375,-0.3125
98,0.54663086,0.09246826,-0.8735962,-0.171875,-17.296875,-0.40625
99,0.52246094,0.14056396,-0.7295532,1.484375,-2.796875,2.9375
100,0.607666,0.051940918,-0.8118286,-2.6875,7.65625,1.671875
101,0.545166,0.12982178,-0.892395,1.984375,-2.328125,3.125
102,0.60375977,0.078308105,-0.74884033,-0.546875,-0.234375,0.40625
103,0.55126953,0.12030029,-0.82769775,0.46875,2.0625,0.984375
104,0.55249023,0.10638428,-0.78912354,1.828125,4.25,1.203125
105,0.54003906,0.105163574,-0.7490845,1.5625,15.5,2.890625
106,0.5239258,0.13031006,-0.8831177,-2.34375,9.15625,3.3125
107,0.51782227,0.11810303,-0.85235596,-0.6875,2.8125,1.390625
108,0.52001953,0.1161499,-0.835022,-0.28125,-1.34375,0.4375
109,0.51660156,0.10784912,-0.8460083,-0.546875,2.09375,0.796875
110,0.5119629,0.11419678,-0.8657837,0.15625,-2.78125,-0.296875
111,0.53125,0.11273193,-0.9175415,2.296875,-6.03125,-0.59375
112,0.48461914,0.14422607,-0.7283325,11.484375,-15.96875,-3.859375
113,0.5666504,0.089538574,-0.6824341,2.46875,4.296875,-0.59375
114,0.55200195,0.12689209,-0.9055786,-2.21875,4.546875,-0.34375
115,0.5292969,0.11981201,-0.8364868,3.375,-3.0625,0.875
116,0.5217285,0.12249756,-0.7744751,-1.890625,6.453125,1.421875
117,0.5163574,0.12591553,-0.8508911,-1.984375,5.25,1.484375
118,0.5148926,0.124938965,-0.84747314,-2.25,3.546875,0.984375
119,0.50341797,0.121032715,-0.80718994,-1.4375,1.5625,0.59375
120,0.5041504,0.11102295,-0.79644775,-8.53125,17.5,1.15625
121,0.47436523,0.09515381,-0.9036255,-7.71875,23.015625,2.21875
122,0.4440918,0.09124756,-0.9036255,-5.203125,17.328125,2.65625
123,0.42700195,0.089538574,-0.8970337,-2.96875,11.96875,1.765625
124,0.40893555,0.08294678,-0.9043579,-3.96875,11.265625,1.65625
125,0.41503906,0.074157715,-0.8989868,-4.703125,11.40625,1.671875
126,0.39697266,0.07757568,-0.9216919,-4.125,5.28125,1.625
127,0.37890625,0.07635498,-0.93170166,-1.234375,-3.984375,0.484375
128,0.39453125,0.06512451,-0.9065552,-0.03125,-4.765625,-0.59375
129,0.3840332,0.08001709,-0.93707275,-0.09375,-6.859375,-0.34375
130,0.41064453,0.07318115,-0.8994751,-0.75,-4.34375,-0.734375
131,0.39868164,0.07122803,-0.9182739,-2.03125,-2.765625,-0.546875
132,0.40625,0.06536865,-0.89630127,-1.34375,-1.921875,-0.28125
133,0.40112305,0.07318115,-0.90509033,-0.84375,-1.84375,-0.328125
134,0.41625977,0.05657959,-0.9011841,-0.65625,-0.734375,-0.3125
135,0.4020996,0.062194824,-0.9138794,0.453125,-5.421875,-0.234375
136,0.4086914,0.05999756,-0.9146118,1.984375,-5.15625,0.0625
137,0.4230957,0.06903076,-0.86920166,5.5,0.234375,0.953125
138,0.40698242,0.07611084,-0.9241333,3.984375,11.03125,0.328125
139,0.40234375,0.06854248,-0.91119385,0.796875,2.5,0.078125
140,0.40185547,0.078552246,-0.92926025,2.234375,-9.4375,0.109375
141,0.4169922,0.07757568,-0.86260986,2.515625,-10.375,-0.125
142,0.4309082,0.08026123,-0.89727783,1.375,-3.953125,-0.078125
143,0.43603516,0.07611084,-0.88653564,0.109375,-2.640625,0.0
144,0.43481445,0.07269287,-0.89556885,0.296875,-1.421875,0.28125
145,0.4494629,0.08734131,-0.9841919,3.515625,-28.8125,-1.15625
146,0.47680664,0.090026855,-0.70562744,6.28125,-29.140625,-2.8125
147,0.51831055,0.07537842,-0.8101196,-0.25,0.96875,-0.78125
148,0.49951172,0.08343506,-0.8477173,0.296875,-4.765625,-0.9375
149,0.5109863,0.07196045,-0.81036377,0.40625,0.40625,0.0
150,0.49414062,0.078552246,-0.831604,-0.40625,13.96875,1.359375
151,0.47875977,0.08465576,-0.8584595,-0.734375,8.15625,0.765625
152,0.46313477,0.08123779,-0.864563,-1.328125,11.296875,1.0625
153,0.45141602,0.077819824,-0.8887329,-1.875,10.203125,1.09375
154,0.44604492,0.07635498,-0.89923096,-0.15625,2.640625,0.53125
155,0.4440918,0.07537842,-0.8789673,0.34375,0.609375,0.34375
156,0.4423828,0.07318115,-0.8867798,-0.453125,2.015625,0.46875
157,0.4404297,0.08294678,-0.8928833,-0.171875,-0.3125,0.125
158,0.43530273,0.07269287,-0.92071533,-1.109375,-1.421875,0.15625
159,0.44433594,0.066589355,-0.8689575,0.171875,-17.5,-1.0
160,0.46728516,0.06903076,-0.8484497,-0.140625,-4.46875,-0.3125
161,0.453125,0.07562256,-0.8477173,0.546875,-2.453125,1.234375
162,0.48413086,0.05657959,-0.8755493,0.609375,0.859375,0.8125
163,0.45385742,0.07537842,-0.8569946,-0.265625,9.375,1.078125
164,0.44091797,0.070007324,-0.87945557,-2.21875,15.640625,1.078125
165,0.4260254,0.066589355,-0.9241333,-2.546875,15.21875,0.828125
166,0.4128418,0.06488037,-0.8965454,0.625,1.53125,0.375
167,0.4050293,0.07171631,-0.90875244,0.609375,-0.03125,0.328125
168,0.40673828,0.06561279,-0.90411377,0.921875,-1.84375,0.171875
169,0.41308594,0.06732178,-0.89019775,1.15625,-0.6875,0.25
170,0.4086914,0.070739746,-0.9072876,0.875,0.21875,0.515625
171,0.41577148,0.066589355,-0.89849854,1.421875,-1.6875,0.3125
172,0.40893555,0.07171631,-0.91290283,1.1875,-0.671875,0.265625
173,0.40844727,0.07757568,-1.024231,3.953125,-8.609375,-0.046875
174,0.38793945,0.038024902,-0.8179321,6.78125,-19.78125,-0.515625
175,0.45654297,0.08001709,-0.8440552,1.640625,-0.984375,0.78125
176,0.4477539,0.08880615,-0.8670044,-1.0625,7.03125,1.015625
177,0.4284668,0.08074951,-0.86383057,-3.171875,14.453125,1.546875
178,0.41235352,0.07977295,-0.90509033,-2.828125,10.75,1.296875
179,0.4033203,0.07635498,-0.9260864,-1.125,4.625,0.890625
180,0.40405273,0.077819824,-0.881897,-1.15625,-0.671875,0.296875
181,0.3930664,0.06903076,-0.944397,-1.875,5.203125,0.734375
182,0.3972168,0.06756592,-0.913147,-1.78125,2.46875,0.125
183,0.38500977,0.059753418,-0.8609009,-3.46875,16.515625,0.875
184,0.35595703,0.06072998,-0.93707275,-0.625,15.140625,1.296875
185,0.33618164,0.06536865,-0.94415283,-0.53125,13.765625,1.0
186,0.32006836,0.06365967,-0.9380493,-1.421875,17.6875,1.015625
187,0.29296875,0.05657959,-0.9890747,-1.15625,10.515625,0.578125
188,0.2861328,0.06390381,-0.9612427,-1.234375,-1.953125,0.140625
189,0.3083496,0.04168701,-0.9373169,-3.859375,1.984375,0.640625
190,0.29541016,0.03753662,-0.95977783,-3.96875,-1.28125,1.140625
191,0.2854004,0.043395996,-0.9456177,-2.25,-5.53125,0.796875
192,0.2998047,0.039733887,-0.94976807,-1.8125,-2.34375,0.765625
193,0.29614258,0.04534912,-0.97613525,-1.9375,-3.171875,-0.0625
194,0.30029297,0.035583496,-0.9439087,0.078125,-4.03125,-0.09375
195,0.31298828,0.027526855,-0.9446411,0.484375,-2.203125,-0.203125
196,0.30810547,0.03265381,-0.93536377,2.109375,-2.09375,0.078125
197,0.30981445,0.035583496,-0.928772,6.140625,1.46875,0.265625
198,0.2993164,0.046081543,-0.95880127,4.265625,-0.5,0.234375
199,0.3034668,0.04486084,-0.94854736,1.921875,-2.328125,0.296875
200,0.3076172,0.05682373,-0.9512329,1.265625,-2.484375,0.21875
201,0.3154297,0.049743652,-0.96759033,1.578125,-7.921875,-0.140625
202,0.33666992,0.051208496,-0.9614868,5.921875,-14.5625,-0.015625
203,0.3605957,0.06585693,-1.0906372,10.65625,-54.015625,-1.546875
204,0.42041016,0.090270996,-0.6670532,14.0625,-55.1875,-4.9375
205,0.47265625,0.085876465,-0.8467407,3.609375,-5.359375,-1.109375
206,0.46362305,0.1005249,-0.9336548,8.3125,-10.6875,-0.84375
207,0.5019531,0.07928467,-0.7642212,8.546875,-10.5,-0.921875
208,0.5449219,0.090026855,-0.7744751,2.34375,1.03125,0.53125
209,0.49682617,0.10736084,-0.78570557,-3.9375,12.8125,-0.296875
210,0.48876953,0.08929443,-0.892395,-8.953125,34.265625,3.25
211,0.4416504,0.0914917,-0.90460205,-6.265625,17.09375,1.484375
212,0.42504883,0.08538818,-0.90460205,-1.75,5.609375,1.28125
213,0.41186523,0.08074951,-0.90509033,-0.3125,1.4375,1.140625
214,0.4116211,0.08099365,-0.90997314,0.4375,1.296875,0.78125
215,0.41333008,0.08685303,-0.9024048,0.5,-2.453125,-0.078125
216,0.4177246,0.08074951,-0.881897,-1.609375,1.984375,0.34375
217,0.41235352,0.0770874,-0.9360962,0.078125,-3.21875,0.09375
218,0.42358398,0.08026123,-0.9976196,1.890625,-21.71875,-0.796875
219,0.43554688,0.050720215,-0.7971802,2.5,-15.890625,0.03125
220,0.4729004,0.08148193,-0.91778564,0.265625,1.859375,1.03125
221,0.46191406,0.08734131,-0.85601807,3.09375,-4.71875,0.46875
222,0.4597168,0.08880615,-0.86138916,3.046875,-5.03125,-0.015625
223,0.46411133,0.08929443,-0.81744385,0.390625,5.546875,0.84375
224,0.45214844,0.09222412,-0.8657837,-0.9375,16.828125,1.890625
225,0.43554688,0.09124756,-0.91363525,-2.09375,9.484375,0.8125
226,0.42700195,0.08807373,-0.9002075,-2.203125,7.125,0.953125
227,0.4182129,0.08294678,-0.9038696,-1.0625,5.03125,0.828125
228,0.40893555,0.08026123,-0.90289307,0.265625,3.578125,0.71875
229,0.39892578,0.08514404,-0.897522,0.578125,0.0,0.296875
230,0.40649414,0.07952881,-0.94073486,1.40625,-3.46875,0.0625
231,0.41918945,0.10443115,-1.0513306,10.671875,-34.25,-1.953125
232,0.38964844,0.19793701,-0.82354736,8.453125,-12.875,-0.90625
233,0.53271484,0.027770996,-0.8574829,1.453125,-1.703125,-0.625
234,0.47192383,0.09442139,-0.8599243,5.78125,-6.78125,-1.171875
235,0.4699707,0.1071167,-0.83428955,-0.21875,5.640625,0.921875
236,0.46557617,0.11151123,-0.8867798,-0.671875,3.640625,1.265625
237,0.46289062,0.11175537,-0.8862915,-0.765625,2.765625,0.921875
238,0.4560547,0.10272217,-0.831604,-1.359375,0.953125,0.46875
239,0.4494629,0.09613037,-0.8701782,-7.203125,11.78125,0.734375
240,0.42993164,0.09124756,-0.92022705,-4.59375,12.890625,1.3125
241,0.4165039,0.085632324,-0.8579712,-4.65625,17.8125,1.828125
242,0.38208008,0.09100342,-0.90093994,-4.03125,20.46875,2.15625
243,0.35839844,0.074645996,-0.9541626,-3.40625,18.046875,2.015625
244,0.3474121,0.0770874,-0.9373169,-0.75,2.046875,0.484375
245,0.3425293,0.07122803,-0.92852783,-0.5625,0.59375,0.0625
246,0.3479004,0.070739746,-0.9221802,-0.15625,-0.546875,0.015625
247,0.35913086,0.06341553,-0.9116821,-1.828125,4.859375,0.421875
248,0.33935547,0.07147217,-0.94415283,-2.484375,5.328125,0.953125
249,0.30517578,0.06829834,-0.9480591,-2.265625,0.640625,0.859375
250,0.34326172,0.058532715,-0.93463135,-3.234375,2.21875,0.203125
251,0.3269043,0.062683105,-0.9534302,-3.203125,0.828125,0.203125
252,0.3239746,0.038513184,-0.9522095,-1.34375,-3.46875,0.25
253,0.32910156,0.050720215,-0.9390259,0.25,-6.125,-0.1875
254,0.3466797,0.04559326,-0.9302368,0.578125,-7.203125,-0.5625
255,0.33520508,0.054138184,-0.9326782,0.3125,-2.734375,-0.375
256,0.32910156,0.055603027,-0.9385376,1.328125,-3.4375,-0.15625
257,0.34545898,0.05340576,-0.91973877,2.25,-0.71875,0.3125
258,0.34643555,0.061950684,-0.9019165,5.203125,0.15625,0.5625
259,0.34594727,0.0602417,-0.94537354,3.375,-1.140625,0.3125
260,0.34423828,0.059753418,-0.9463501,2.03125,-4.53125,0.328125
261,0.36376953,0.066101074,-0.95196533,4.453125,-15.125,-0.078125
262,0.37768555,0.058044434,-0.93585205,4.390625,-16.5625,0.125
263,0.4086914,0.08856201,-0.93829346,10.953125,-45.296875,-1.296875
264,0.44702148,0.093688965,-0.829895,8.953125,-31.765625,-2.5
265,0.4650879,0.097351074,-0.803772,8.5,-12.171875,-1.84375
266,0.47851562,0.113220215,-0.78302,11.84375,-12.359375,-1.046875
267,0.51464844,0.1071167,-0.86309814,7.0625,-6.484375,1.046875
268,0.52197266,0.12298584,-0.8086548,5.1875,-4.109375,0.78125
269,0.50146484,0.12982178,-0.77716064,-1.1875,2.25,-0.9375
270,0.51708984,0.10736084,-0.82110596,-9.40625,16.890625,-0.125
271,0.48364258,0.105651855,-0.91070557,-6.203125,19.0625,2.375
272,0.46655273,0.101989746,-0.8760376,-4.0625,9.53125,1.28125
273,0.45410156,0.09954834,-0.89678955,-2.296875,3.75,0.890625
274,0.4494629,0.09881592,-0.8911743,-1.546875,3.375,0.953125
275,0.4482422,0.093444824,-0.8875122,0.40625,-1.875,0.109375
276,0.45239258,0.09246826,-0.9116821,0.59375,-4.109375,0.046875
277,0.47265625,0.09442139,-0.8467407,5.828125,-29.96875,-1.328125
278,0.4423828,0.19891357,-0.74224854,-0.328125,-0.125,0.84375
279,0.49194336,0.093933105,-0.9302368,-1.40625,9.3125,2.546875
280,0.48657227,0.08343506,-0.82891846,3.734375,-6.296875,-0.171875
281,0.4794922,0.09637451,-0.8284302,-0.0625,7.109375,0.71875
282,0.4724121,0.09857178,-0.8740845,1.578125,7.359375,1.3125
283,0.46704102,0.08929443,-0.8609009,-1.375,12.265625,1.671875
284,0.4453125,0.09564209,-0.8999634,-2.53125,8.859375,1.46875
285,0.44506836,0.085632324,-0.8423462,-3.9375,10.15625,1.109375
286,0.4206543,0.093688965,-0.91729736,-0.796875,5.546875,0.78125
287,0.41333008,0.09100342,-0.9365845,0.328125,1.0,0.421875
288,0.4169922,0.08148193,-0.91119385,1.890625,-3.171875,0.328125
289,0.4267578,0.090270996,-0.90753174,2.9375,-8.234375,-0.171875
290,0.40478516,0.13665771,-0.89556885,13.140625,-35.265625,-2.921875
291,0.5571289,0.11224365,-0.788147,3.09375,-7.6875,-1.484375
292,0.49316406,0.06561279,-0.8543091,-0.75,2.4375,0.484375
293,0.4699707,0.09881592,-0.8401489,1.265625,-2.5625,0.421875
294,0.4638672,0.11126709,-0.8406372,0.4375,1.265625,0.84375
295,0.4650879,0.10003662,-0.86798096,-3.453125,12.15625,2.140625
296,0.44921875,0.11053467,-0.86553955,-3.390625,4.5625,1.703125
297,0.43554688,0.10662842,-0.9043579,-3.34375,5.453125,0.828125
298,0.4338379,0.097595215,-0.89971924,0.21875,-0.671875,0.390625
299,0.43798828,0.09515381,-0.85943604,0.34375,2.28125,0.5625
300,0.4321289,0.09075928,-0.8677368,-3.65625,13.078125,1.578125
301,0.41137695,0.090270996,-0.9221802,-4.0625,15.53125,1.40625
302,0.37597656,0.0914917,-0.9446411,-2.359375,13.15625,1.65625
303,0.3737793,0.07659912,-0.8999634,-2.015625,8.34375,1.03125
304,0.3720703,0.07366943,-0.94488525,-1.4375,2.75,1.0625
305,0.3642578,0.08416748,-0.93170166,-0.4375,-0.734375,0.46875
306,0.3635254,0.074401855,-0.9199829,-0.375,-2.4375,-0.28125
307,0.3474121,0.08319092,-0.9053345,-2.515625,4.671875,-0.078125
308,0.36132812,0.06707764,-0.90948486,-3.640625,7.890625,-0.46875
309,0.3383789,0.055847168,-0.94610596,-2.859375,1.859375,0.09375
310,0.33154297,0.058044434,-0.9290161,-1.390625,-1.640625,0.21875
311,0.34692383,0.06048584,-0.93048096,-1.96875,-0.140625,0.09375
312,0.32910156,0.05682373,-0.94488525,-0.859375,-1.984375,0.046875
313,0.33984375,0.06463623,-0.9290161,1.171875,-3.046875,0.03125
314,0.34814453,0.061950684,-0.927063,4.15625,-2.328125,0.71875
315,0.34399414,0.07220459,-0.91973877,5.765625,1.796875,0.53125
316,0.35009766,0.06951904,-0.9590454,4.125,-8.765625,0.140625
317,0.3630371,0.074645996,-0.91290283,3.390625,-12.3125,0.34375
318,0.38061523,0.08270264,-0.9204712,2.359375,-11.59375,0.09375
319,0.39770508,0.085876465,-0.9104614,0.21875,-12.328125,-0.421875
320,0.40307617,0.08392334,-0.86309814,-2.234375,3.125,0.0625
321,0.390625,0.078063965,-0.9343872,-1.640625,3.390625,0.28125
322,0.39697266,0.07220459,-0.9204712,1.078125,-5.359375,0.1875
323,0.3955078,0.070495605,-0.9439087,2.15625,-8.1875,0.578125
324,0.43041992,0.08807373,-0.93170166,10.09375,-41.234375,-1.015625
325,0.44921875,0.081726074,-0.78448486,3.578125,-13.03125,-1.859375
326,0.46850586,0.08905029,-0.8411255,-0.078125,2.125,-0.015625
327,0.46069336,0.08880615,-0.8916626,0.40625,-2.296875,0.140625
328,0.46826172,0.081726074,-0.86798096,0.921875,-3.125,-0.421875
329,0.46411133,0.09100342,-0.8833618,1.734375,-2.53125,-0.234375
330,0.4699707,0.08465576,-0.8545532,0.40625,-0.65625,0.328125
331,0.46728516,0.093444824,-0.8484497,-0.125,4.59375,0.5
332,0.45874023,0.08685303,-0.85943604,-2.59375,13.828125,0.75
333,0.43774414,0.07879639,-0.866272,-7.484375,26.109375,1.875
334,0.4050293,0.07513428,-0.90631104,-5.015625,16.46875,1.28125
335,0.38427734,0.06976318,-0.94366455,-1.84375,10.171875,1.15625
336,0.38208008,0.070495605,-0.9216919,0.890625,1.71875,0.578125
337,0.37890625,0.07562256,-0.9541626,3.671875,-8.671875,0.53125
338,0.40112305,0.07342529,-0.95635986,8.078125,-31.234375,-1.28125
339,0.4255371,0.090270996,-0.80718994,6.609375,-24.96875,-1.140625
340,0.4909668,0.09124756,-0.8442993,6.578125,-4.359375,-1.734375
341,0.4453125,0.10662842,-0.8591919,8.015625,-10.421875,-0.75
342,0.5048828,0.098083496,-0.7600708,1.109375,-1.984375,0.140625
343,0.4724121,0.098083496,-0.8533325,-4.390625,14.53125,1.140625
344,0.453125,0.09564209,-0.8897095,-4.046875,14.46875,1.71875
345,0.43188477,0.0927124,-0.88531494,-3.140625,8.5625,0.8125
346,0.42041016,0.082458496,-0.88531494,-2.546875,9.09375,0.96875
347,0.40527344,0.08538818,-0.8970337,-2.046875,8.375,0.953125
348,0.39233398,0.078063965,-0.89971924,-2.921875,8.59375,0.609375
349,0.38598633,0.07318115,-0.89312744,-5.828125,13.625,0.71875
350,0.35766602,0.07684326,-0.92755127,-5.28125,19.34375,0.6875
351,0.33203125,0.06121826,-0.99786377,-2.8125,12.140625,0.765625
352,0.32714844,0.06048584,-0.96099854,-0.03125,-0.734375,0.5
353,0.33618164,0.06707764,-0.9505005,4.40625,-15.3125,0.453125
354,0.3630371,0.082458496,-0.94000244,10.90625,-35.75,-0.46875
355,0.38085938,0.089538574,-0.83673096,4.640625,-20.421875,1.71875
356,0.44921875,0.04119873,-0.8233032,0.75,1.34375,0.6875
357,0.41381836,0.082458496,-0.8772583,-2.03125,7.296875,0.609375
358,0.40063477,0.06732178,-0.88116455,-6.71875,15.703125,1.265625
359,0.37231445,0.059509277,-0.93170166,-6.796875,16.0,1.421875
360,0.3552246,0.06341553,-0.9470825,-2.578125,12.140625,0.859375
361,0.34033203,0.06121826,-0.9385376,0.078125,9.90625,0.609375
362,0.32421875,0.059265137,-0.9302368,0.65625,7.6875,0.828125
363,0.31469727,0.058532715,-0.972229,0.765625,2.828125,0.71875
364,0.32055664,0.06585693,-0.9644165,0.875,-4.734375,0.234375
365,0.32861328,0.059020996,-0.9265747,-0.453125,0.796875,0.21875
366,0.32128906,0.05340576,-0.95684814,-0.5,1.734375,0.265625
367,0.32666016,0.055358887,-0.9578247,-0.28125,-1.671875,0.265625
368,0.31835938,0.05340576,-0.93536377,0.4375,-5.5625,-0.421875
369,0.3425293,0.05999756,-0.9421997,0.890625,-4.71875,-1.359375
370,0.32983398,0.057800293,-0.9212036,-0.484375,0.265625,-1.875
371,0.33325195,0.06414795,-0.90802,-2.078125,3.75,-1.625
372,0.3059082,0.043884277,-0.95635986,-3.984375,8.015625,-0.765625
373,0.3112793,0.04095459,-0.9561157,-3.078125,2.125,-0.78125
374,0.30273438,0.028015137,-0.958313,-1.015625,-2.03125,-0.5
375,0.3005371,0.04046631,-0.94854736,0.03125,-1.671875,-0.5
376,0.3034668,0.030944824,-0.9614868,1.015625,-5.453125,-0.125
377,0.3215332,0.03338623,-0.90704346,1.828125,-6.609375,0.109375
378,0.32788086,0.039733887,-0.9356079,3.515625,-3.125,0.40625
379,0.33691406,0.05218506,-0.9036255,7.390625,-3.3125,-0.90625
380,0.3251953,0.05291748,-0.9522095,4.84375,-1.734375,0.125
381,0.34155273,0.06072998,-0.94537354,4.3125,-7.3125,0.625
382,0.3479004,0.06951904,-0.940979,3.9375,-11.546875,0.09375
383,0.36523438,0.06365967,-0.9024048,3.59375,-11.28125,-0.21875
384,0.37353516,0.06390381,-0.92852783,4.734375,-10.890625,0.4375
385,0.3947754,0.08441162,-0.9885864,8.40625,-25.5,-0.46875
386,0.41259766,0.1161499,-0.848938,18.140625,-47.265625,-4.625
387,0.45458984,0.09490967,-0.7324829,8.515625,-8.90625,-4.375
388,0.4650879,0.12249756,-0.8887329,10.828125,-7.453125,-4.015625
389,0.52685547,0.09466553,-0.7920532,6.078125,-8.078125,1.859375
390,0.5222168,0.11468506,-0.8049927,3.21875,-2.421875,1.265625
391,0.5061035,0.13031006,-0.8394165,1.078125,-1.375,0.921875
392,0.5031738,0.12200928,-0.83184814,-0.46875,2.9375,-0.8125
393,0.4970703,0.11883545,-0.8284302,-5.125,9.453125,0.59375
394,0.484375,0.11004639,-0.8484497,-9.609375,19.453125,1.6875
395,0.44018555,0.11444092,-0.92926025,-6.65625,14.875,2.828125
396,0.43579102,0.101745605,-0.8862915,-5.59375,12.53125,2.21875
397,0.42114258,0.09539795,-0.9036255,-3.25,7.921875,1.546875
398,0.4086914,0.093444824,-0.92926025,-1.296875,3.34375,0.90625
399,0.41796875,0.09246826,-0.9163208,2.40625,-5.9375,0.25
400,0.43041992,0.09539795,-1.0730591,9.234375,-23.796875,-0.625
401,0.42163086,0.19622803,-0.78009033,10.3125,-16.9375,1.546875
402,0.4633789,0.09197998,-0.8423462,2.234375,-0.171875,1.0
403,0.50756836,0.07904053,-0.84625244,2.15625,0.421875,-0.15625
404,0.46484375,0.11517334,-0.8088989,-5.171875,5.8125,0.65625
405,0.4506836,0.11029053,-0.8982544,-8.015625,17.1875,2.1875
406,0.4333496,0.0993042,-0.9092407,-5.34375,14.15625,1.609375
407,0.4140625,0.097839355,-0.9260864,-5.171875,13.90625,2.09375
408,0.39648438,0.093933105,-0.9265747,0.96875,0.46875,0.46875
409,0.3972168,0.094177246,-0.9053345,1.4375,1.296875,0.609375
410,0.3955078,0.09539795,-0.89849854,2.296875,-2.609375,0.46875
411,0.39379883,0.10076904,-0.9212036,3.1875,-4.375,0.40625
412,0.40820312,0.09954834,-0.93878174,6.296875,-9.96875,0.625
413,0.4177246,0.11541748,-0.90631104,6.328125,-9.78125,0.109375
414,0.421875,0.12957764,-0.9221802,3.453125,-15.640625,-2.0625
415,0.41870117,0.14593506,-0.8218384,-1.515625,-12.546875,2.03125
416,0.48339844,0.074401855,-0.8206177,-0.453125,-4.25,-1.125
417,0.45751953,0.10638428,-0.8303833,-0.875,2.375,0.3125
418,0.45092773,0.11053467,-0.8452759,-6.515625,16.25,2.03125
419,0.4248047,0.10736084,-0.9260864,-6.765625,15.078125,2.15625
420,0.4099121,0.09979248,-0.92315674,-5.140625,9.171875,1.84375
421,0.39624023,0.0927124,-0.90704346,-1.484375,2.953125,1.046875
422,0.39086914,0.08514404,-0.9265747,-1.921875,5.28125,1.453125
423,0.38354492,0.09173584,-0.92388916,-0.28125,0.34375,0.359375
424,0.3894043,0.08416748,-0.9234009,-0.375,-1.203125,0.40625
425,0.39624023,0.07098389,-0.86676025,-2.046875,5.09375,0.625
426,0.37158203,0.08392334,-0.90216064,-3.53125,17.921875,1.046875
427,0.34277344,0.08026123,-0.94537354,-2.265625,17.90625,0.75
428,0.3317871,0.07952881,-0.9541626,-0.25,4.984375,-0.078125
429,0.3395996,0.06829834,-0.9241333,-1.234375,3.859375,-0.109375
430,0.34399414,0.05682373,-0.9529419,-1.546875,-1.0,0.125
431,0.3244629,0.07269287,-0.9534302,-1.625,-1.28125,0.3125
432,0.3239746,0.0692749,-0.92510986,-0.75,-4.328125,-0.140625
433,0.3100586,0.062194824,-0.9385376,0.125,-3.75,-0.171875
434,0.3400879,0.059509277,-0.9397583,-0.03125,-3.15625,-0.5
435,0.3425293,0.06390381,-0.95635986,-0.21875,-4.21875,-0.21875
436,0.34448242,0.07147217,-0.9092407,1.09375,-3.9375,0.015625
437,0.38867188,0.043884277,-0.9180298,1.0,1.90625,-0.5
438,0.34375,0.06951904,-0.89849854,-2.171875,9.953125,-0.15625
439,0.30639648,0.053649902,-0.9795532,-0.75,7.8125,0.484375
440,0.30444336,0.066101074,-0.9644165,2.78125,-0.9375,0.515625
441,0.32104492,0.059753418,-0.9685669,4.15625,-8.484375,0.140625
442,0.33691406,0.06829834,-0.9360962,4.28125,-11.921875,0.296875
443,0.34985352,0.07537842,-0.9326782,4.40625,-11.984375,0.328125
444,0.36254883,0.07904053,-0.92681885,3.265625,-11.1875,0.25
445,0.37670898,0.090270996,-0.9890747,8.171875,-34.6875,-0.21875
446,0.4099121,0.093688965,-0.767395,5.359375,-27.515625,-1.78125
447,0.43530273,0.08538818,-0.831604,1.375,-4.171875,-0.625
448,0.44921875,0.090026855,-0.8689575,-0.046875,0.96875,0.109375
449,0.43579102,0.0848999,-0.8970337,0.015625,2.328125,0.5625
450,0.4321289,0.09197998,-0.8713989,-0.828125,4.859375,0.59375
451,0.4284668,0.09295654,-0.88946533,-2.203125,7.078125,0.484375
452,0.41870117,0.08441162,-0.87286377,-4.078125,11.421875,0.53125
453,0.4033203,0.07659912,-0.92071533,-3.046875,11.5625,0.734375
454,0.38598633,0.078552246,-0.92022705,-0.84375,5.421875,0.515625
455,0.38208008,0.08026123,-0.9204712,0.234375,1.828125,0.421875
456,0.37939453,0.07244873,-0.92926025,1.046875,-1.234375,0.359375
457,0.38134766,0.078552246,-0.96954346,3.46875,-10.640625,0.0
458,0.41235352,0.08294678,-0.90045166,5.828125,-29.609375,-1.171875
459,0.38354492,0.11785889,-0.92559814,16.0,-31.59375,-3.265625
460,0.5144043,0.04949951,-0.83013916,5.8125,-6.734375,-2.90625
461,0.49975586,0.07879639,-0.84503174,1.828125,-2.453125,0.171875
462,0.47045898,0.10736084,-0.8880005,1.40625,0.765625,0.6875
463,0.47216797,0.10809326,-0.85528564,0.265625,5.375,0.796875
464,0.4567871,0.10321045,-0.8389282,-3.125,11.953125,1.40625
465,0.43286133,0.10394287,-0.93878174,-4.59375,12.03125,2.15625
466,0.4189453,0.10272217,-0.91900635,-3.875,6.59375,1.03125
467,0.42041016,0.09710693,-0.8892212,-1.21875,4.140625,0.40625
468,0.40722656,0.090270996,-0.9143677,-0.765625,5.03125,0.8125
469,0.40454102,0.09661865,-0.9155884,0.515625,0.46875,0.40625
470,0.4091797,0.08929443,-0.892395,1.1875,-0.390625,0.390625
471,0.41357422,0.09515381,-0.9680786,5.78125,-7.671875,0.1875
472,0.40576172,0.12176514,-0.8274536,8.984375,-16.953125,-2.71875
473,0.4663086,0.10321045,-0.8130493,0.25,4.484375,0.734375
474,0.42993164,0.11444092,-0.87945557,-1.5,4.703125,0.609375
475,0.43359375,0.11029053,-0.88287354,1.171875,-3.84375,0.1875
476,0.42797852,0.10369873,-0.86138916,-4.375,10.875,1.59375
477,0.4038086,0.105651855,-0.91534424,-4.875,11.75,1.734375
478,0.39233398,0.094177246,-0.90582275,-1.890625,4.15625,1.03125
479,0.38598633,0.09490967,-0.9038696,-1.5,3.65625,0.703125
480,0.38085938,0.09857178,-0.8887329,-2.40625,8.09375,0.671875
481,0.3671875,0.086120605,-0.9089966,-2.921875,14.609375,1.234375
482,0.35327148,0.09051514,-0.9338989,-0.71875,8.578125,0.859375
483,0.3408203,0.08099365,-0.9307251,-1.1875,8.140625,1.140625
484,0.32910156,0.081726074,-0.9522095,-1.296875,5.75,0.671875
485,0.33007812,0.08050537,-0.94537354,-0.546875,0.859375,0.171875
486,0.33447266,0.07489014,-0.9348755,-1.265625,0.65625,0.421875
487,0.32006836,0.07928467,-0.90753174,-2.265625,3.828125,0.796875
488,0.31079102,0.07147217,-0.9356079,-3.265625,4.109375,0.125
489,0.30029297,0.070739746,-0.95635986,-2.421875,0.734375,-0.3125
490,0.31713867,0.06317139,-0.95147705,-1.90625,-1.9375,-0.328125
491,0.30639648,0.050964355,-0.9573364,-1.859375,-0.609375,-0.296875
492,0.32543945,0.06072998,-0.9522095,-1.0625,-2.75,-0.140625
493,0.32250977,0.055847168,-0.95928955,-0.859375,-4.625,-0.890625
494,0.32226562,0.062194824,-0.9209595,-0.96875,-3.6875,-0.65625
495,0.31298828,0.050964355,-0.9475708,-0.0625,-4.296875,-0.703125
496,0.328125,0.06561279,-0.9314575,0.8125,-3.828125,-0.4375
497,0.33422852,0.058776855,-0.9338989,1.890625,-1.765625,-0.625
498,0.3310547,0.055358887,-0.9146118,3.84375,1.1875,-0.28125
499,0.31884766,0.054626465,-0.9673462,4.515625,5.84375,-0.484375
500,0.3305664,0.06317139,-0.95562744,4.28125,-5.96875,0.15625
501,0.33813477,0.06585693,-0.93463135,4.265625,-10.9375,0.1875
502,0.35131836,0.07098389,-0.9019165,3.609375,-10.53125,0.09375
503,0.3623047,0.07318115,-0.9151001,1.234375,-1.609375,0.203125
504,0.3630371,0.07977295,-0.91607666,1.125,-1.28125,0.125
505,0.36401367,0.07952881,-0.90582275,0.3125,1.171875,0.21875
506,0.35107422,0.070251465,-0.9390259,-1.734375,7.109375,0.828125
507,0.34643555,0.07513428,-0.9378052,0.703125,-1.53125,0.359375
508,0.34765625,0.07269287,-0.9429321,1.484375,-3.625,0.359375
509,0.35131836,0.07635498,-0.93218994,3.046875,-8.640625,0.40625
510,0.36572266,0.085632324,-0.94073486,2.859375,-8.8125,0.25
511,0.375,0.08660889,-0.9158325,4.40625,-15.390625,-0.015625
512,0.4020996,0.09637451,-0.9505005,5.390625,-27.0,-0.734375
513,0.43188477,0.09564209,-0.8123169,3.46875,-21.703125,-1.84375
514,0.44018555,0.09222412,-0.84747314,-1.3125,3.546875,-0.421875
515,0.43896484,0.09490967,-0.8970337,-0.59375,2.09375,0.0
516,0.44140625,0.09857178,-0.90289307,0.0625,-2.078125,0.40625
517,0.4387207,0.08880615,-0.8753052,0.078125,0.75,0.578125
518,0.43945312,0.09246826,-0.880188,-0.140625,1.578125,0.328125
519,0.42822266,0.086364746,-0.8272095,-2.5625,8.0,0.390625
520,0.41723633,0.08856201,-0.9246216,-2.875,10.59375,0.890625
521,0.40942383,0.07977295,-0.92193604,-1.578125,5.8125,0.359375
522,0.40673828,0.078308105,-0.8911743,0.4375,1.921875,0.5625
523,0.39819336,0.08465576,-0.92071533,1.078125,1.984375,0.734375
524,0.39575195,0.07684326,-0.92633057,2.125,-4.734375,0.078125
525,0.40576172,0.08148193,-0.9102173,2.421875,-7.28125,-0.140625
526,0.42016602,0.1005249,-0.9529419,6.375,-26.140625,-1.109375
527,0.4255371,0.10028076,-0.8279419,2.203125,-13.671875,-0.328125
528,0.48657227,0.09686279,-0.81134033,2.75,0.015625,0.5625
529,0.46875,0.0848999,-0.8521118,0.390625,5.9375,1.171875
530,0.43823242,0.09613037,-0.8845825,-1.421875,8.859375,1.078125
531,0.42651367,0.09857178,-0.8982544,-2.375,10.59375,1.0
532,0.41918945,0.08660889,-0.9104614,-1.375,6.609375,0.546875
533,0.40722656,0.078063965,-0.9026489,-1.59375,7.890625,1.046875
534,0.40600586,0.09588623,-0.91729736,1.171875,-0.65625,0.3125
535,0.40185547,0.08709717,-0.9133911,1.34375,-2.5625,0.15625
536,0.40527344,0.08660889,-0.9182739,0.96875,-1.46875,0.125
537,0.4033203,0.085876465,-0.90289307,0.5,0.953125,0.453125
538,0.39794922,0.097839355,-0.9060669,1.296875,-2.703125,0.171875
539,0.40673828,0.09515381,-0.93536377,1.328125,-3.25,0.015625
540,0.41137695,0.09466553,-0.8760376,3.34375,-14.390625,-0.953125
541,0.4404297,0.09490967,-0.8599243,-0.953125,0.671875,1.59375
542,0.41992188,0.10321045,-0.8779907,-1.640625,7.640625,0.6875
543,0.40893555,0.09661865,-0.9006958,-1.84375,8.78125,0.953125
544,0.39331055,0.09197998,-0.9077759,-0.859375,3.90625,0.703125
545,0.38916016,0.08758545,-0.9258423,-0.640625,3.609375,0.84375
546,0.38476562,0.08343506,-0.89508057,-1.15625,3.78125,0.546875
547,0.37841797,0.08905029,-0.92388916,-2.09375,5.578125,0.84375
548,0.37817383,0.081970215,-0.90875244,-1.40625,2.15625,0.625
549,0.36816406,0.08416748,-0.8928833,-2.328125,6.453125,0.671875
550,0.3623047,0.07366943,-0.9031372,-2.71875,11.03125,0.875
551,0.34472656,0.06951904,-0.9414673,-1.734375,10.328125,0.96875
552,0.3330078,0.07244873,-0.9522095,-0.65625,5.28125,0.484375
553,0.33032227,0.06976318,-0.9500122,-0.484375,3.453125,0.421875
554,0.32250977,0.07366943,-0.93756104,-0.796875,4.328125,0.4375
555,0.3125,0.06463623,-0.944397,-0.5625,4.9375,0.40625
556,0.3059082,0.06365967,-0.95147705,-1.21875,2.75,0.328125
557,0.31176758,0.058044434,-0.923645,-1.671875,3.1875,0.265625
558,0.31225586,0.055358887,-0.958313,-2.828125,4.0625,0.515625
559,0.3059082,0.057556152,-0.9558716,-2.640625,0.953125,0.484375
560,0.29077148,0.05609131,-0.95880127,-2.03125,-0.390625,0.3125
561,0.2915039,0.04510498,-0.9517212,-3.046875,0.03125,0.421875
562,0.29467773,0.055847168,-0.9585571,-1.40625,-0.765625,0.609375
563,0.28588867,0.046325684,-0.96466064,1.3125,-3.21875,0.1875
564,0.2998047,0.05218506,-0.96343994,5.5,-6.03125,0.71875
565,0.3095703,0.061462402,-0.9487915,7.25,-6.203125,0.390625
566,0.31567383,0.06048584,-0.93536377,3.171875,-5.484375,0.265625
567,0.31811523,0.06781006,-0.9421997,0.8125,-3.734375,0.109375
568,0.32250977,0.06365967,-0.9421997,0.515625,-3.078125,0.25
569,0.32495117,0.06951904,-0.940979,1.03125,-5.015625,0.078125
570,0.3305664,0.06317139,-0.9434204,1.71875,-7.15625,0.109375
571,0.34936523,0.07537842,-0.9487915,3.0,-10.53125,0.296875
572,0.36328125,0.07366943,-0.9961548,6.59375,-20.15625,0.5
573,0.39208984,0.08734131,-0.8718872,7.25,-36.53125,-1.328125
574,0.43041992,0.08099365,-0.7974243,5.359375,-18.109375,-2.0
575,0.4345703,0.09710693,-0.8887329,4.421875,-13.953125,-2.125
576,0.45776367,0.085632324,-0.82281494,5.515625,-11.921875,-1.796875
577,0.49316406,0.089538574,-0.8374634,1.203125,-1.40625,0.5625
578,0.47460938,0.10662842,-0.84991455,0.296875,2.640625,0.46875
579,0.4584961,0.10272217,-0.84991455,0.09375,4.8125,0.375
580,0.45361328,0.0914917,-0.84454346,-4.546875,18.0625,1.25
581,0.42260742,0.090270996,-0.91412354,-5.21875,15.78125,1.40625
582,0.40820312,0.090270996,-0.9229126,-3.0,9.78125,1.21875
583,0.39819336,0.08148193,-0.93585205,0.296875,2.578125,0.828125
584,0.3996582,0.08465576,-0.92633057,2.296875,-3.171875,0.515625
585,0.40454102,0.09124756,-0.9104614,3.234375,-8.734375,-0.28125
586,0.41870117,0.10662842,-0.9475708,6.921875,-23.171875,-1.0625
587,0.39013672,0.14959717,-0.8362427,6.046875,-12.15625,-0.234375
588,0.47998047,0.078063965,-0.8357544,1.421875,1.046875,-0.421875
589,0.44848633,0.10784912,-0.89849854,-0.390625,4.375,1.15625
590,0.46044922,0.08807373,-0.86016846,1.375,2.5625,-0.53125
591,0.4362793,0.10345459,-0.88238525,1.046875,3.96875,0.859375
592,0.42797852,0.09979248,-0.88653564,-0.109375,7.71875,0.890625
593,0.4177246,0.10003662,-0.9273071,-0.484375,7.03125,1.46875
594,0.40966797,0.113708496,-0.9116821,0.609375,2.59375,1.125
595,0.40893555,0.105407715,-0.90045166,0.59375,0.96875,0.6875
596,0.41064453,0.10467529,-0.9053345,0.453125,1.0,0.53125
597,0.40673828,0.10394287,-0.894104,1.1875,-1.234375,0.34375
598,0.41015625,0.10809326,-0.8999634,2.453125,-4.59375,0.125
599,0.39770508,0.13372803,-0.9163208,2.625,-3.90625,1.828125
600,0.36694336,0.18670654,-0.8867798,5.46875,-8.171875,1.65625
601,0.4440918,0.105407715,-0.8484497,0.90625,0.515625,3.046875
602,0.4597168,0.06951904,-0.85528564,-3.046875,2.953125,-0.28125
603,0.41235352,0.109802246,-0.90509033,-3.875,8.6875,1.203125
604,0.40478516,0.1083374,-0.9019165,-3.75,6.984375,1.625
605,0.38989258,0.10345459,-0.90509033,-6.65625,9.15625,1.71875
606,0.375,0.093444824,-0.91192627,-5.78125,10.359375,1.4375
607,0.3569336,0.08807373,-0.9385376,-4.390625,13.0625,1.515625
608,0.34033203,0.08343506,-0.9314575,-3.3125,12.28125,0.953125
609,0.33325195,0.06903076,-0.9336548,-2.671875,12.765625,0.53125
610,0.32226562,0.0758667,-0.95391846,-2.0,12.65625,0.34375
611,0.30908203,0.06732178,-0.9678345,-2.578125,10.0,0.390625
612,0.28515625,0.06756592,-0.972229,-1.390625,2.0625,0.75
613,0.27929688,0.059020996,-0.9507446,-0.984375,-0.9375,0.703125
614,0.2878418,0.066345215,-0.95513916,-1.09375,-1.328125,0.421875
615,0.2783203,0.05633545,-0.9470825,-1.734375,0.90625,0.078125
616,0.26879883,0.070007324,-0.9534302,-1.296875,-3.234375,0.21875
617,0.28344727,0.055114746,-0.9373169,-1.203125,-1.234375,0.1875
618,0.2788086,0.04949951,-0.9429321,-1.515625,-2.609375,0.015625
619,0.2927246,0.055114746,-0.9356079,-0.953125,-2.9375,-0.140625
620,0.31201172,0.04949951,-0.9505005,-1.65625,-0.40625,-0.4375
621,0.28979492,0.04559326,-0.9663696,-0.625,-0.640625,0.140625
622,0.28051758,0.04876709,-0.9590454,1.265625,-3.484375,0.265625
623,0.2939453,0.05291748,-0.95147705,4.796875,-3.5,0.53125
624,0.30297852,0.062927246,-0.94537354,6.09375,-6.34375,0.453125
625,0.31860352,0.06854248,-0.9273071,3.25,-6.34375,0.28125
626,0.32250977,0.061706543,-0.9380493,1.375,-5.671875,0.1875
627,0.3232422,0.066589355,-0.9402466,0.953125,-4.671875,0.03125
628,0.32666016,0.066833496,-0.9414673,1.1875,-4.734375,-0.078125
629,0.33520508,0.0758667,-0.9458618,1.390625,-6.171875,0.140625
630,0.3515625,0.06536865,-1.0266724,6.03125,-21.390625,0.71875
631,0.38330078,0.08685303,-0.8994751,8.984375,-38.1875,-1.109375
632,0.42456055,0.08343506,-0.8670044,1.6875,-8.28125,-0.984375
633,0.4248047,0.09124756,-0.9180298,2.46875,-6.671875,-0.765625
634,0.4345703,0.08929443,-0.87457275,2.953125,-5.0625,-0.578125
635,0.4416504,0.09857178,-0.86968994,1.25,1.734375,0.578125
636,0.43041992,0.09710693,-0.8609009,-1.71875,9.609375,0.734375
637,0.41674805,0.093444824,-0.86016846,-5.171875,20.234375,1.0
638,0.38745117,0.08782959,-0.9541626,-3.296875,9.875,0.640625
639,0.3791504,0.07928467,-0.92193604,-1.71875,5.90625,0.546875
640,0.36914062,0.082214355,-0.91729736,-0.125,2.875,0.390625
641,0.3671875,0.07659912,-0.93218994,1.734375,-1.859375,0.359375
642,0.3696289,0.07513428,-0.9199829,1.4375,-0.890625,0.40625
643,0.37719727,0.08514404,-0.9314575,2.828125,-5.71875,0.421875
644,0.3803711,0.07977295,-0.956604,2.328125,-4.0625,0.21875
645,0.3955078,0.097351074,-0.8826294,8.328125,-29.328125,-0.921875
646,0.38623047,0.12762451,-0.892395,10.0625,-13.21875,-2.71875
647,0.49414062,0.07537842,-0.8201294,2.640625,-0.25,-1.171875
648,0.4284668,0.10858154,-0.8674927,0.140625,2.078125,0.1875
649,0.41992188,0.1083374,-0.87994385,-1.8125,6.859375,0.5
650,0.41357422,0.10638428,-0.892395,-1.875,9.3125,0.859375
651,0.39257812,0.10028076,-0.92193604,-3.71875,13.921875,1.453125
652,0.38134766,0.09637451,-0.9356079,-0.5,2.109375,0.484375
653,0.37768555,0.09222412,-0.91851807,-0.421875,1.890625,0.4375
654,0.37426758,0.101989746,-0.91485596,0.546875,-0.4375,0.15625
655,0.37719727,0.09637451,-0.9146118,0.6875,-0.75,0.1875
656,0.375,0.09564209,-0.9277954,1.421875,-3.515625,0.203125
657,0.38793945,0.09515381,-0.92974854,2.703125,-5.875,0.0625
658,0.38378906,0.09075928,-0.8648071,3.078125,-13.625,-0.796875
659,0.44189453,0.08441162,-0.8479614,0.5,-2.25,-1.5625
660,0.39282227,0.09906006,-0.909729,-3.1875,7.71875,0.625
661,0.38842773,0.10272217,-0.9265747,-1.046875,2.1875,0.625
662,0.3840332,0.093688965,-0.90289307,-2.078125,5.65625,1.09375
663,0.3815918,0.09466553,-0.92315674,-2.390625,5.9375,0.953125
664,0.36401367,0.0848999,-0.91900635,-1.671875,4.265625,0.75
665,0.36645508,0.08660889,-0.9265747,-1.796875,5.828125,1.078125
666,0.35986328,0.08465576,-0.9151001,-0.75,3.90625,1.15625
667,0.3503418,0.08001709,-0.9060669,-3.15625,8.953125,1.28125
668,0.32763672,0.082214355,-0.9331665,-2.796875,11.84375,1.28125
669,0.3149414,0.07220459,-0.93878174,-2.453125,13.640625,1.046875
670,0.30517578,0.070495605,-0.94732666,-1.21875,6.6875,0.53125
671,0.2878418,0.06829834,-0.9585571,-1.765625,5.59375,0.71875
672,0.2866211,0.06585693,-0.9602661,-1.640625,4.21875,0.515625
673,0.2854004,0.06536865,-0.9517212,-2.3125,3.09375,0.5625
674,0.2722168,0.057556152,-0.94537354,-4.578125,8.578125,1.28125
675,0.24316406,0.054870605,-0.972229,-4.859375,4.4375,1.0625
676,0.25561523,0.047546387,-0.95928955,-4.625,3.71875,0.921875
677,0.2397461,0.049987793,-0.96099854,-3.34375,0.59375,0.59375
678,0.24829102,0.0289917,-0.96466064,-2.671875,-0.9375,0.359375
679,0.25830078,0.029724121,-0.9729614,-1.734375,-3.71875,0.234375
680,0.24829102,0.030944824,-0.9595337,-1.109375,-2.46875,-0.1875
681,0.26904297,0.009216309,-0.95635986,-1.1875,-2.03125,-0.40625
682,0.2722168,0.023620605,-0.9619751,-0.75,-1.875,0.09375
683,0.265625,0.028259277,-0.9697876,-0.53125,-1.703125,0.0625
684,0.25195312,0.023132324,-0.9585571,-0.078125,-3.578125,0.28125
685,0.2685547,0.029724121,-0.94415283,0.265625,-2.46875,-0.078125
686,0.25634766,0.027526855,-0.95147705,0.3125,-1.53125,-0.015625
687,0.27294922,0.023132324,-0.9536743,1.0,-5.359375,-0.125
688,0.2705078,0.026550293,-0.95025635,3.4375,-4.796875,0.28125
689,0.28637695,0.0368042,-0.9492798,7.359375,-2.453125,-0.734375
690,0.29077148,0.04534912,-0.97906494,8.140625,-9.984375,0.125
691,0.3022461,0.047546387,-1.0300903,11.671875,-25.421875,0.03125
692,0.3515625,0.06317139,-0.8999634,11.84375,-32.765625,-0.953125
693,0.3774414,0.10345459,-0.9314575,15.25,-36.4375,-3.65625
694,0.44384766,0.061950684,-0.87994385,6.203125,-13.765625,-2.78125
695,0.44384766,0.09173584,-0.8464966,4.40625,-9.515625,-2.046875
696,0.4519043,0.09442139,-0.85406494,0.328125,2.125,0.09375
697,0.4423828,0.09832764,-0.8804321,-1.09375,7.0625,0.71875
698,0.42382812,0.10076904,-0.85040283,-1.9375,12.984375,1.0625
699,0.3955078,0.1005249,-0.9475708,-7.4375,27.640625,2.734375
700,0.37329102,0.08929443,-0.9470825,-1.671875,7.265625,0.90625
701,0.36328125,0.08758545,-0.9512329,-0.640625,0.765625,0.265625
702,0.36889648,0.09100342,-0.9343872,-1.484375,2.09375,0.453125
703,0.36572266,0.08148193,-0.93414307,2.015625,-6.890625,0.0625
704,0.37963867,0.08465576,-0.956604,4.4375,-14.046875,-0.265625
705,0.39624023,0.09686279,-0.96539307,5.8125,-19.125,-0.796875
706,0.38256836,0.16107178,-0.9234009,8.953125,-34.40625,-2.796875
707,0.46118164,0.06561279,-0.76641846,7.65625,-12.171875,-2.203125
708,0.5187988,0.07293701,-0.84625244,0.03125,2.34375,0.21875
709,0.46606445,0.11273193,-0.8323364,-2.859375,5.40625,0.203125
710,0.45898438,0.09613037,-0.8599243,-3.84375,10.0625,1.21875
711,0.44018555,0.105651855,-0.8687134,-4.234375,15.28125,2.390625
712,0.42016602,0.0927124,-0.92681885,-6.171875,20.140625,3.078125
713,0.3947754,0.09979248,-0.94366455,-1.78125,6.875,1.234375
714,0.39038086,0.08807373,-0.9121704,0.5625,1.15625,0.484375
715,0.38330078,0.09246826,-0.9055786,1.0,2.3125,0.546875
716,0.38793945,0.08660889,-0.92510986,1.28125,-0.9375,0.1875
717,0.3894043,0.0993042,-0.909729,2.796875,-5.90625,-0.0625
718,0.39697266,0.11932373,-0.9536743,9.5,-26.25,-2.609375
719,0.41625977,0.1630249,-0.8352661,4.09375,-5.65625,2.625
720,0.4411621,0.07196045,-0.9026489,3.953125,-4.75,-0.75
721,0.5031738,0.08831787,-0.81085205,0.359375,-1.28125,-0.78125
722,0.42749023,0.109313965,-0.8411255,-5.203125,11.09375,1.15625
723,0.41308594,0.11224365,-0.9351196,-5.671875,13.484375,2.53125
724,0.40307617,0.10076904,-0.90753174,-4.109375,8.265625,1.6875
725,0.38671875,0.09857178,-0.909729,-5.25,10.171875,2.140625
726,0.37182617,0.09466553,-0.9360962,-3.828125,7.28125,1.828125
727,0.36450195,0.085632324,-0.9138794,-1.375,5.546875,1.015625
728,0.35327148,0.082458496,-0.92437744,-2.25,8.96875,0.890625
729,0.34155273,0.07269287,-0.92852783,-2.671875,14.140625,1.46875
730,0.3166504,0.07952881,-0.9348755,-2.203125,13.703125,1.0
731,0.29125977,0.07513428,-0.9487915,-3.796875,17.90625,1.1875
732,0.2746582,0.06781006,-0.9727173,-2.25,7.390625,0.546875
733,0.28076172,0.066345215,-0.9558716,-2.4375,4.59375,0.78125
734,0.27905273,0.062927246,-0.95440674,-3.3125,3.90625,1.328125
735,0.26098633,0.051696777,-0.9788208,-2.515625,-0.625,1.296875
736,0.26708984,0.034606934,-0.9771118,-2.1875,-3.296875,1.0625
737,0.28320312,0.04949951,-0.95196533,-1.53125,-3.234375,0.53125
738,0.24291992,0.054138184,-0.958313,-0.859375,-0.15625,0.609375
739,0.25268555,0.04827881,-0.9692993,1.1875,-2.65625,0.21875
740,0.26416016,0.055603027,-0.960022,5.140625,-5.890625,0.296875
741,0.27734375,0.054382324,-0.9517212,3.4375,-4.65625,0.0625
742,0.28125,0.06097412,-0.97125244,1.9375,-6.8125,0.0
743,0.28857422,0.058044434,-0.9517212,1.609375,-6.96875,0.078125
744,0.30126953,0.06463623,-0.9414673,2.796875,-11.125,0.3125
745,0.3244629,0.06903076,-1.0413208,8.5625,-26.8125,0.703125
746,0.35766602,0.08929443,-0.85284424,9.234375,-35.03125,-1.09375
747,0.38183594,0.078063965,-0.8987427,5.46875,-16.84375,-1.484375
748,0.41064453,0.08465576,-0.8945923,5.90625,-15.8125,-1.5
749,0.4243164,0.08441162,-0.86724854,2.921875,-7.59375,-0.296875
750,0.42578125,0.10076904,-0.87091064,0.5625,0.71875,0.53125
751,0.41967773,0.09222412,-0.8694458,-0.859375,8.703125,0.765625
752,0.40942383,0.09222412,-0.87628174,-2.640625,13.921875,0.78125
753,0.38427734,0.08343506,-0.9595337,-4.921875,18.234375,1.25
754,0.37475586,0.07952881,-0.93585205,-1.453125,6.375,0.59375
755,0.3696289,0.08123779,-0.9351196,1.125,-1.078125,0.203125
756,0.3701172,0.08685303,-0.9216919,2.71875,-3.296875,0.421875
757,0.37402344,0.08734131,-0.97613525,4.984375,-12.203125,-0.125
758,0.35302734,0.117126465,-0.93634033,9.78125,-26.234375,-2.21875
759,0.3996582,0.09686279,-0.7925415,3.890625,-5.828125,-4.046875
