sample_no,accel_x,accel_y,accel_z,gyro_x,gyro_y,gyro_z
0,0.8640137,0.0446167,0.5079956,-0.703125,0.90625,-0.40625
1,0.8569336,0.043640137,0.5101929,-0.453125,-0.6875,-1.28125
2,0.86865234,0.046325684,0.49969482,-2.265625,-1.296875,-1.59375
3,0.86816406,0.038024902,0.49969482,-2.296875,-0.671875,-1.5
4,0.857666,0.026794434,0.5219116,-0.734375,-0.109375,-0.890625
5,0.8601074,0.041931152,0.5023804,-0.984375,-1.1875,-0.734375
6,0.8515625,0.04852295,0.49261475,0.9375,-1.09375,0.453125
7,0.8703613,0.04852295,0.4960327,2.5625,1.015625,1.328125
8,0.8635254,0.038269043,0.526062,1.859375,-0.796875,1.78125
9,0.8623047,0.035583496,0.5206909,1.59375,-3.359375,1.78125
10,0.85058594,0.034362793,0.5363159,0.203125,-5.796875,2.09375
11,0.8574219,0.030456543,0.56243896,-0.4375,-9.359375,1.84375
12,0.8601074,0.048034668,0.55340576,0.140625,-8.265625,3.3125
13,0.84375,0.050231934,0.543396,-0.09375,-7.4375,5.65625
14,0.85375977,0.050476074,0.5866089,1.140625,2.125,6.6875
15,0.83691406,0.06488037,0.5956421,-0.875,-2.546875,4.625
16,0.82714844,0.062194824,0.57733154,-0.71875,-2.59375,4.734375
17,0.8342285,-0.004211426,0.4940796,-1.96875,10.3125,7.484375
18,0.8601074,0.14959717,0.5626831,0.765625,8.5,3.28125
19,0.83862305,0.022399902,0.5570679,-0.828125,8.3125,-2.203125
20,0.87890625,0.054626465,0.4850464,-5.015625,2.484375,-2.53125
21,0.83618164,0.08050537,0.52752686,-4.796875,0.46875,-1.328125
22,0.88842773,0.06732178,0.49871826,-1.875,1.3125,-2.34375
23,0.88256836,0.078063965,0.51068115,-1.015625,-2.125,-2.421875
24,0.85595703,0.070495605,0.52093506,1.484375,-1.234375,-2.765625
25,0.86035156,0.04949951,0.5429077,2.4375,-0.296875,-0.4375
26,0.84399414,0.055847168,0.5321655,0.15625,1.25,-0.0625
27,0.87646484,0.06536865,0.53900146,-0.734375,3.140625,-1.296875
28,0.8791504,0.061706543,0.54022217,0.734375,5.140625,-1.390625
29,0.87841797,0.04901123,0.5270386,0.46875,3.375,-0.578125
30,0.8466797,0.0524292,0.5219116,-0.890625,1.890625,-0.546875
31,0.8562012,0.043151855,0.49261475,-1.015625,2.15625,-1.078125
32,0.87524414,0.050720215,0.51556396,-1.84375,0.828125,-1.171875
33,0.85131836,0.054626465,0.5006714,-2.15625,0.84375,-0.890625
34,0.8703613,0.049743652,0.52923584,-0.4375,2.90625,-1.328125
35,0.88183594,0.04168701,0.49725342,-2.84375,-0.953125,-0.828125
36,0.85668945,0.059753418,0.48919678,-1.109375,-1.703125,-0.234375
37,0.86865234,0.051940918,0.4882202,0.296875,-2.390625,1.046875
38,0.8654785,0.0524292,0.48260498,1.9375,-0.984375,1.84375
39,0.86816406,0.05682373,0.5194702,5.15625,-0.796875,2.953125
40,0.86206055,0.050720215,0.49554443,10.390625,-5.71875,6.921875
41,0.8684082,0.03753662,0.49871826,5.796875,-2.40625,7.953125
42,0.8703613,0.062683105,0.57489014,3.34375,-4.890625,3.625
43,0.8598633,0.034606934,0.5282593,-0.8125,-3.796875,3.3125
44,0.84716797,0.070495605,0.54022217,-0.40625,-3.078125,1.625
45,0.8618164,0.04534912,0.5680542,-0.90625,-3.609375,1.765625
46,0.83569336,0.06048584,0.5482788,-1.09375,-5.21875,2.109375
47,0.8442383,0.07928467,0.51678467,0.4375,-3.4375,3.1875
48,0.83984375,0.018981934,0.6078491,5.203125,1.40625,7.8125
49,0.77490234,0.12786865,0.5722046,-5.671875,2.390625,2.140625
50,0.83154297,0.050476074,0.5778198,-1.84375,12.765625,-0.828125
51,0.8869629,0.009460449,0.5216675,-7.484375,8.953125,-3.203125
52,0.8413086,0.090270996,0.4953003,-8.609375,-0.890625,-6.421875
53,0.89990234,0.08514404,0.5036011,-2.703125,2.796875,-2.59375
54,0.92456055,0.07562256,0.512146,-1.703125,-0.484375,1.59375
55,0.81518555,0.086364746,0.51239014,1.09375,-0.703125,-2.640625
56,0.8496094,0.054382324,0.5180054,-0.671875,0.265625,-1.5
57,0.86938477,0.061462402,0.5375366,-0.109375,-0.359375,-0.65625
58,0.8737793,0.06097412,0.5289917,0.375,2.734375,-0.75
59,0.8713379,0.07537842,0.50897217,-1.59375,6.53125,-0.953125
60,0.88964844,0.066101074,0.508728,1.5625,10.15625,-0.828125
61,0.87597656,0.05267334,0.50579834,1.421875,4.859375,0.5
62,0.8520508,0.06097412,0.49261475,-1.078125,0.3125,-0.015625
63,0.8647461,0.06097412,0.49090576,-3.203125,-0.0625,-0.421875
64,0.87939453,0.053894043,0.49627686,-1.90625,1.890625,-0.9375
65,0.8959961,0.05340576,0.48162842,-2.421875,-0.078125,-1.21875
66,0.8820801,0.06512451,0.48382568,-2.21875,-1.296875,-0.640625
67,0.8725586,0.061706543,0.4977417,-1.46875,-1.75,-0.625
68,0.87109375,0.05657959,0.48797607,-1.328125,-1.0625,-0.421875
69,0.8679199,0.062194824,0.4874878,-1.453125,-1.546875,0.0
70,0.8676758,0.05999756,0.49310303,-0.4375,-2.09375,0.3125
71,0.87231445,0.062194824,0.49139404,0.921875,-1.46875,1.0
72,0.8786621,0.04925537,0.4977417,2.46875,-2.40625,1.46875
73,0.8730469,0.06072998,0.5109253,4.28125,-2.28125,1.5
74,0.86328125,0.046813965,0.49627686,2.640625,-5.875,2.6875
75,0.87939453,0.06414795,0.513855,0.046875,-3.296875,3.6875
76,0.8703613,0.061950684,0.53338623,1.9375,-2.96875,2.765625
77,0.85839844,0.06756592,0.53240967,-0.515625,-5.84375,1.84375
78,0.8430176,0.06732178,0.53900146,-1.65625,-5.140625,1.765625
79,0.8491211,0.07489014,0.6010132,-0.875,-7.078125,2.859375
80,0.85839844,0.02557373,0.44207764,1.71875,-0.328125,9.03125
81,0.92626953,0.14910889,0.56585693,-0.4375,9.15625,5.1875
82,0.7675781,0.07489014,0.586853,1.375,8.015625,0.5
83,0.8671875,0.0099487305,0.48919678,-1.171875,4.5625,-0.9375
84,0.84472656,0.08709717,0.51776123,-3.546875,2.046875,-3.59375
85,0.8598633,0.085632324,0.52093506,-3.359375,2.890625,-2.203125
86,0.90356445,0.081970215,0.51190186,-2.21875,0.28125,-1.90625
87,0.8642578,0.094177246,0.49993896,-1.109375,-1.125,-1.75
88,0.8562012,0.073913574,0.51190186,-0.078125,0.890625,-1.296875
89,0.8496094,0.061950684,0.5126343,-0.03125,1.109375,-1.328125
90,0.8791504,0.066345215,0.513855,-0.765625,1.421875,-1.046875
91,0.9013672,0.058532715,0.5241089,-1.90625,1.390625,-0.328125
92,0.8803711,0.066345215,0.51190186,-1.015625,1.984375,-0.625
93,0.8630371,0.066101074,0.5101929,-0.890625,0.75,-0.390625
94,0.86450195,0.06536865,0.5079956,-0.390625,1.03125,-0.125
95,0.8666992,0.055847168,0.49578857,-1.125,-1.25,-1.75
96,0.86157227,0.06488037,0.49334717,-2.78125,1.328125,-1.5625
97,0.88256836,0.050231934,0.52020264,-1.046875,1.84375,-1.171875
98,0.86816406,0.055847168,0.50531006,-0.984375,-0.71875,-1.515625
99,0.8605957,0.06439209,0.5018921,-2.15625,-1.84375,-1.296875
100,0.87524414,0.05609131,0.5050659,-1.3125,-2.734375,-1.765625
101,0.85791016,0.05316162,0.49749756,-1.28125,-3.359375,-1.375
102,0.8562012,0.05340576,0.49212646,-1.875,-1.359375,-0.546875
103,0.87646484,0.05291748,0.5038452,-0.5625,-1.09375,0.171875
104,0.8679199,0.06048584,0.5060425,0.59375,-2.671875,0.546875
105,0.857666,0.055358887,0.50042725,2.40625,-2.59375,1.546875
106,0.8605957,0.055847168,0.5006714,3.046875,-2.0,2.234375
107,0.87280273,0.044128418,0.5109253,4.1875,-6.609375,3.578125
108,0.86376953,0.051940918,0.5685425,1.40625,-3.78125,3.15625
109,0.8405762,0.053894043,0.5504761,-0.71875,-7.25,1.984375
110,0.83984375,0.058044434,0.5463257,-0.9375,-5.109375,3.484375
111,0.85839844,0.06756592,0.62420654,1.75,-5.4375,2.921875
112,0.82128906,0.06756592,0.57073975,-4.796875,-12.703125,4.5625
113,0.80810547,0.058288574,0.5258179,-4.359375,3.40625,3.484375
114,0.8540039,0.1071167,0.59710693,-0.890625,12.234375,-0.109375
115,0.83374023,0.04559326,0.50823975,-3.546875,3.125,-0.375
116,0.86376953,0.07659912,0.53582764,-1.53125,4.234375,-1.609375
117,0.8774414,0.06439209,0.53826904,-0.90625,3.21875,-0.09375
118,0.85131836,0.082458496,0.524353,-0.046875,0.9375,-1.703125
119,0.8586426,0.074157715,0.5343628,0.703125,1.125,-1.1875
120,0.85839844,0.070251465,0.53045654,1.53125,1.296875,-0.5625
121,0.861084,0.07318115,0.53240967,1.078125,1.53125,0.140625
122,0.8564453,0.057556152,0.5463257,0.96875,2.15625,-0.5625
123,0.8510742,0.062438965,0.55023193,-0.703125,1.90625,-0.796875
124,0.8688965,0.06707764,0.5236206,-2.1875,-0.09375,-0.203125
125,0.8532715,0.074401855,0.5355835,-1.078125,0.84375,0.09375
126,0.8515625,0.057800293,0.5414429,-0.421875,2.671875,-0.234375
127,0.8527832,0.055847168,0.5285034,-0.828125,2.328125,-0.4375
128,0.86621094,0.05291748,0.5307007,-0.703125,3.1875,-0.8125
129,0.86572266,0.059265137,0.5192261,-1.765625,1.375,-1.265625
130,0.85595703,0.062194824,0.48895264,-5.15625,1.84375,-0.890625
131,0.8730469,0.06585693,0.5084839,-3.53125,5.25,-0.28125
132,0.88793945,0.06536865,0.51361084,-0.796875,2.578125,-0.265625
133,0.85546875,0.06707764,0.5014038,-0.859375,-2.0,0.125
134,0.8796387,0.05609131,0.49334717,0.15625,-0.15625,0.03125
135,0.8703613,0.054138184,0.49798584,0.921875,-1.90625,0.375
136,0.87109375,0.06097412,0.49163818,0.359375,-1.78125,0.578125
137,0.86279297,0.0680542,0.508728,1.171875,-2.40625,1.15625
138,0.8601074,0.06097412,0.5338745,1.0625,-1.671875,0.875
139,0.85009766,0.06365967,0.51849365,-0.265625,-3.59375,0.75
140,0.8544922,0.061950684,0.5326538,1.265625,-4.609375,1.21875
141,0.876709,0.057556152,0.5348511,1.53125,-5.453125,1.75
142,0.861084,0.061706543,0.53338623,-0.4375,-5.828125,1.65625
143,0.84521484,0.062683105,0.5453491,-0.90625,-12.265625,2.09375
144,0.8532715,0.07147217,0.5895386,-0.0625,-8.546875,5.34375
145,0.83447266,0.06903076,0.57977295,-1.796875,-6.625,4.5
146,0.8190918,0.09466553,0.53460693,-6.0,2.390625,0.6875
147,0.8239746,0.0770874,0.5153198,-0.8125,11.890625,-0.3125
148,0.8486328,0.058776855,0.5421753,-0.5,4.046875,-1.78125
149,0.845459,0.05682373,0.5475464,-1.484375,2.21875,-2.25
150,0.8725586,0.07293701,0.5543823,-0.609375,4.09375,-0.703125
151,0.8647461,0.09222412,0.54608154,0.40625,3.09375,-0.140625
152,0.83496094,0.08392334,0.54681396,0.59375,2.109375,-1.421875
153,0.84033203,0.062194824,0.5270386,-0.671875,0.84375,-0.640625
154,0.8413086,0.06414795,0.52874756,0.546875,1.515625,-0.21875
155,0.8630371,0.05706787,0.5414429,1.09375,2.5625,0.234375
156,0.8815918,0.07244873,0.5350952,0.6875,2.6875,-0.171875
157,0.8562012,0.070495605,0.52215576,1.140625,1.6875,-0.078125
158,0.85839844,0.06048584,0.53338623,0.9375,1.21875,-0.15625
159,0.8442383,0.059020996,0.5199585,0.03125,0.8125,-0.484375
160,0.86035156,0.057556152,0.5175171,-0.4375,0.734375,-1.140625
161,0.87719727,0.055603027,0.52215576,0.0625,-0.34375,-1.109375
162,0.85839844,0.0524292,0.5368042,0.078125,1.03125,-1.28125
163,0.86572266,0.058288574,0.5231323,-0.1875,1.171875,-0.671875
164,0.86035156,0.05682373,0.52215576,-0.875,-0.53125,-0.53125
165,0.85302734,0.053649902,0.5211792,-0.953125,-2.015625,-0.1875
166,0.8532715,0.04559326,0.5140991,-0.921875,0.265625,0.03125
167,0.8754883,0.04852295,0.5114136,-0.609375,0.015625,-0.28125
168,0.8588867,0.051452637,0.5140991,-0.703125,-1.828125,0.453125
169,0.8574219,0.051696777,0.5223999,0.34375,-1.125,0.453125
170,0.8588867,0.059020996,0.5170288,0.453125,-2.15625,0.796875
171,0.8598633,0.049987793,0.52508545,-0.15625,-3.203125,0.515625
172,0.85595703,0.053649902,0.5475464,-0.640625,-1.75,1.21875
173,0.8544922,0.045837402,0.5775757,3.640625,-3.4375,0.859375
174,0.8625488,0.048034668,0.5199585,0.9375,-3.046875,2.390625
175,0.83081055,0.06048584,0.5470581,0.4375,-4.4375,1.453125
176,0.8515625,0.046325684,0.5548706,-0.390625,-4.3125,3.4375
177,0.8449707,0.05267334,0.5426636,-0.265625,-3.34375,5.015625
178,0.85180664,0.06878662,0.55877686,3.859375,-6.875,5.65625
179,0.88134766,0.027770996,0.56951904,3.828125,4.65625,6.3125
180,0.76416016,0.10321045,0.58270264,-3.125,5.0625,-0.546875
181,0.84716797,0.03338623,0.51190186,-2.828125,11.078125,-2.75
182,0.8791504,0.049987793,0.5228882,-2.984375,1.1875,-2.96875
183,0.84643555,0.07684326,0.55096436,-3.953125,3.0,-0.6875
184,0.8742676,0.06854248,0.5314331,-1.65625,2.1875,0.171875
185,0.8515625,0.070007324,0.54852295,-0.453125,1.71875,-1.078125
186,0.84887695,0.070007324,0.5128784,-0.515625,0.65625,0.015625
187,0.8623047,0.062927246,0.52337646,0.4375,0.5,0.25
188,0.8757324,0.055603027,0.52801514,-0.140625,1.203125,0.359375
189,0.8623047,0.053649902,0.5309448,0.125,1.21875,0.125
190,0.86938477,0.053894043,0.5326538,0.65625,2.234375,0.1875
191,0.861084,0.05731201,0.52679443,0.578125,1.875,-0.140625
192,0.8515625,0.06488037,0.52508545,1.375,3.125,-0.640625
193,0.8466797,0.049987793,0.51776123,1.265625,4.109375,-0.578125
194,0.86987305,0.05682373,0.51483154,-0.078125,1.890625,-0.703125
195,0.8696289,0.047302246,0.51361084,-0.75,0.265625,-0.25
196,0.8703613,0.049987793,0.51116943,-0.515625,1.875,-0.40625
197,0.8708496,0.048034668,0.50335693,-0.578125,0.03125,-0.421875
198,0.8684082,0.051940918,0.5036011,-0.296875,0.046875,-0.21875
199,0.873291,0.043640137,0.496521,-1.046875,-1.046875,-0.40625
200,0.8720703,0.04510498,0.50579834,-1.171875,-2.0625,-0.578125
201,0.8520508,0.054870605,0.5072632,-0.984375,-1.671875,0.0625
202,0.8684082,0.049743652,0.5140991,-0.296875,-0.5,0.234375
203,0.8588867,0.047546387,0.510437,-0.78125,-2.375,0.328125
204,0.86279297,0.054626465,0.51678467,-0.734375,-1.671875,0.4375
205,0.8642578,0.0524292,0.5282593,-0.171875,-0.171875,0.6875
206,0.8552246,0.044128418,0.52337646,1.734375,4.046875,0.890625
207,0.8679199,0.042419434,0.5075073,0.609375,1.953125,1.140625
208,0.8666992,0.039733887,0.52337646,0.59375,-3.4375,1.15625
209,0.8635254,0.046081543,0.524353,-1.109375,-4.921875,1.640625
210,0.86376953,0.06463623,0.53582764,-2.546875,-7.171875,3.265625
211,0.84155273,0.07196045,0.54559326,-0.875,-9.796875,5.5625
212,0.8869629,0.07611084,0.559021,4.515625,-0.828125,8.546875
213,0.85498047,0.08441162,0.5223999,-4.328125,7.328125,4.09375
214,0.8190918,0.08709717,0.5492554,-1.453125,8.96875,2.390625
215,0.8562012,0.038269043,0.494812,-2.203125,7.984375,-0.109375
216,0.8515625,0.058776855,0.51898193,-0.296875,7.4375,-2.265625
217,0.890625,0.054626465,0.49749756,-0.734375,1.65625,-2.421875
218,0.85302734,0.10247803,0.47991943,-2.125,-0.234375,-2.46875
219,0.907959,0.07635498,0.5343628,0.84375,0.265625,-0.765625
220,0.8408203,0.062683105,0.5192261,1.109375,-0.3125,-0.453125
221,0.85375977,0.06488037,0.5038452,-0.703125,0.90625,-0.765625
222,0.8869629,0.051208496,0.510437,-0.265625,0.71875,-1.015625
223,0.88671875,0.05633545,0.5133667,-0.21875,-0.53125,-1.5
224,0.8901367,0.054138184,0.50335693,-0.328125,0.78125,-1.25
225,0.88305664,0.061462402,0.50335693,-1.09375,0.640625,-1.453125
226,0.8679199,0.061706543,0.4977417,-0.984375,1.84375,-1.640625
227,0.859375,0.061706543,0.49798584,-1.03125,0.375,-1.359375
228,0.8664551,0.057556152,0.5060425,-1.484375,0.265625,-1.0625
229,0.86816406,0.041931152,0.50457764,-0.1875,1.65625,-0.96875
230,0.88793945,0.046081543,0.49578857,-1.53125,-0.109375,-0.296875
231,0.8774414,0.050720215,0.48919678,-1.21875,-0.34375,0.0625
232,0.87646484,0.049987793,0.49139404,0.203125,-0.75,-0.0625
233,0.87280273,0.04168701,0.49334717,0.171875,-1.375,0.359375
234,0.87060547,0.042663574,0.49993896,0.09375,-1.78125,-0.375
235,0.8718262,0.042175293,0.48480225,-1.0625,-1.671875,0.21875
236,0.8730469,0.039489746,0.5075073,0.5,0.03125,0.46875
237,0.86865234,0.04949951,0.5097046,0.640625,-2.765625,0.3125
238,0.87719727,0.047790527,0.48260498,2.21875,-5.015625,1.828125
239,0.8737793,0.053649902,0.5182495,-0.78125,-11.328125,3.0625
240,0.84033203,0.051208496,0.5626831,-5.046875,-17.671875,3.078125
241,0.8625488,0.046325684,0.56781006,-0.8125,-6.4375,3.328125
242,0.83691406,0.090026855,0.61712646,3.65625,-6.734375,5.78125
243,0.87109375,0.061950684,0.5289917,-2.421875,4.96875,6.578125
244,0.80859375,0.098083496,0.5487671,0.109375,12.28125,1.671875
245,0.8588867,0.030456543,0.54486084,-4.21875,7.625,-0.515625
246,0.82714844,0.046813965,0.53826904,2.21875,5.21875,-2.65625
247,0.8857422,0.050964355,0.54901123,-0.03125,6.40625,-0.578125
248,0.876709,0.07537842,0.51068115,-0.359375,2.53125,-0.953125
249,0.8659668,0.08319092,0.51898193,0.765625,0.25,-2.359375
250,0.8486328,0.05609131,0.5092163,1.203125,0.46875,-0.1875
251,0.8532715,0.055847168,0.5162964,0.515625,1.484375,-0.671875
252,0.86328125,0.04901123,0.50579834,-0.75,2.15625,-0.46875
253,0.88549805,0.046081543,0.5211792,0.34375,3.4375,-0.46875
254,0.8876953,0.048034668,0.5158081,-0.078125,2.4375,-0.75
255,0.8779297,0.055358887,0.49334717,-1.671875,1.4375,-0.46875
256,0.861084,0.049743652,0.51605225,-0.5,0.921875,-1.125
257,0.8535156,0.04925537,0.50531006,-2.078125,1.3125,-0.75
258,0.85839844,0.04901123,0.50653076,-1.421875,2.09375,-1.21875
259,0.8781738,0.04876709,0.5014038,-1.375,0.640625,-0.484375
260,0.8691406,0.050476074,0.508728,0.28125,1.125,-0.046875
261,0.8725586,0.039733887,0.5001831,-0.546875,-1.0625,-0.1875
262,0.8601074,0.04876709,0.48651123,-0.109375,-0.640625,0.125
263,0.87768555,0.04486084,0.49261475,0.515625,-0.34375,0.140625
264,0.8725586,0.04437256,0.4953003,-0.359375,-1.359375,0.28125
265,0.8701172,0.039733887,0.50823975,-0.015625,-1.265625,0.234375
266,0.86816406,0.04559326,0.49505615,0.03125,-1.453125,0.515625
267,0.8696289,0.046569824,0.5084839,0.296875,-1.484375,0.484375
268,0.85498047,0.04559326,0.49017334,-1.328125,-2.15625,0.671875
269,0.86987305,0.03753662,0.5038452,0.109375,-4.71875,1.328125
270,0.86743164,0.04095459,0.53778076,-1.015625,-7.015625,1.40625
271,0.8232422,0.059020996,0.52020264,-7.078125,-15.171875,1.65625
272,0.8642578,0.07366943,0.5409546,-5.046875,-9.25,3.59375
273,0.8598633,0.05706787,0.5951538,-2.90625,-8.171875,3.234375
274,0.8276367,0.0602417,0.56829834,-2.9375,-6.265625,2.96875
275,0.82666016,0.06561279,0.5595093,-6.046875,4.8125,0.015625
276,0.84887695,0.07318115,0.5697632,0.234375,10.78125,0.40625
277,0.8527832,0.04437256,0.5531616,0.28125,7.328125,-0.984375
278,0.8623047,0.06732178,0.50531006,1.140625,2.140625,-1.421875
279,0.86035156,0.06561279,0.5441284,2.734375,3.59375,-0.4375
280,0.84814453,0.07513428,0.52508545,0.09375,1.625,-1.078125
281,0.8515625,0.07318115,0.52630615,1.34375,1.953125,-0.046875
282,0.8552246,0.051696777,0.5331421,1.703125,1.0625,0.421875
283,0.8679199,0.05218506,0.52459717,0.515625,0.484375,0.40625
284,0.87060547,0.04949951,0.54071045,0.84375,1.203125,0.3125
285,0.8691406,0.05706787,0.53338623,-0.078125,2.75,0.03125
286,0.87890625,0.05657959,0.53289795,1.0625,4.34375,-0.515625
287,0.8574219,0.05340576,0.5338745,0.453125,2.78125,-0.609375
288,0.8623047,0.05267334,0.5101929,0.328125,3.734375,-1.15625
289,0.85717773,0.05682373,0.4989624,-1.203125,1.515625,-0.609375
290,0.8688965,0.048034668,0.51361084,-0.984375,2.4375,-0.515625
291,0.87109375,0.043884277,0.51068115,-1.34375,0.515625,-0.28125
292,0.85424805,0.049987793,0.49725342,-1.53125,-0.109375,-0.15625
293,0.876709,0.047790527,0.5038452,-0.015625,-0.390625,0.15625
294,0.8762207,0.04827881,0.50531006,-0.125,-1.234375,0.078125
295,0.86816406,0.043640137,0.50457764,0.25,-1.59375,-0.265625
296,0.8688965,0.04437256,0.50823975,-0.046875,-2.453125,-0.296875
297,0.85839844,0.048034668,0.5133667,-0.03125,-2.046875,0.375
298,0.8625488,0.04486084,0.50823975,1.296875,-3.203125,0.765625
299,0.8618164,0.043640137,0.53289795,0.9375,-6.953125,0.875
300,0.84350586,0.04827881,0.49017334,4.1875,-17.40625,3.625
301,0.8312988,0.039733887,0.5519409,4.21875,-0.625,3.921875
302,0.8417969,0.04534912,0.6520386,1.96875,-9.765625,1.640625
303,0.82910156,0.043640137,0.5692749,-5.390625,-4.390625,4.703125
304,0.84887695,0.066101074,0.5582886,-2.71875,-3.890625,1.484375
305,0.8327637,0.06707764,0.5758667,-7.453125,6.875,-0.171875
306,0.8276367,0.07928467,0.5414429,-3.859375,7.984375,0.21875
307,0.8544922,0.047058105,0.54608154,-1.234375,6.125,-0.53125
308,0.86206055,0.047546387,0.5541382,0.8125,5.234375,-0.875
309,0.8491211,0.054626465,0.5265503,1.375,3.71875,-0.484375
310,0.8742676,0.06512451,0.53533936,1.6875,1.25,-0.890625
311,0.8522949,0.061706543,0.54071045,1.78125,0.078125,-0.484375
312,0.8408203,0.053894043,0.5326538,0.6875,1.078125,0.53125
313,0.85009766,0.057800293,0.5387573,0.21875,0.6875,0.234375
314,0.8625488,0.053894043,0.543396,0.546875,1.484375,0.375
315,0.8564453,0.046081543,0.54193115,0.890625,1.59375,0.203125
316,0.86743164,0.042663574,0.5126343,-0.65625,1.3125,0.15625
317,0.8684082,0.050720215,0.53656006,0.234375,2.109375,-0.328125
318,0.8522949,0.04437256,0.5302124,-1.59375,2.734375,-0.5
319,0.8562012,0.0446167,0.5380249,-0.921875,3.109375,-1.140625
320,0.8625488,0.04095459,0.51898193,-2.8125,1.09375,-1.234375
321,0.85180664,0.055358887,0.5133667,-1.9375,1.15625,-1.09375
322,0.8676758,0.042663574,0.52093506,-1.328125,0.859375,-0.828125
323,0.86816406,0.047302246,0.5145874,-1.09375,0.109375,-0.59375
324,0.86572266,0.034606934,0.5228882,-0.375,-0.96875,-0.359375
325,0.8569336,0.03729248,0.5097046,-1.234375,-1.21875,-0.125
326,0.8630371,0.051208496,0.5204468,-0.078125,-1.390625,0.03125
327,0.86499023,0.050231934,0.51898193,0.40625,-2.15625,0.546875
328,0.8510742,0.044128418,0.51556396,0.546875,-2.4375,0.90625
329,0.8618164,0.042419434,0.52264404,1.46875,-1.328125,1.140625
330,0.83374023,0.046081543,0.5363159,1.9375,-5.4375,2.546875
331,0.87353516,0.027282715,0.5272827,3.03125,-4.71875,4.65625
332,0.8417969,0.055603027,0.56048584,-2.765625,-12.203125,1.65625
333,0.86206055,0.043884277,0.56414795,-1.84375,-6.515625,1.96875
334,0.83374023,0.06121826,0.55218506,-1.671875,-0.875,2.40625
335,0.83740234,0.06048584,0.59198,-0.671875,-5.0,3.078125
336,0.83740234,0.05218506,0.5829468,-3.75,-1.328125,2.640625
337,0.8166504,0.0848999,0.56829834,-4.78125,7.921875,-0.0625
338,0.83325195,0.043884277,0.5355835,-5.375,4.109375,-0.203125
339,0.8339844,0.06829834,0.5704956,-0.59375,3.625,-2.40625
340,0.8535156,0.054138184,0.5331421,-0.296875,6.953125,-0.0625
341,0.8479004,0.06365967,0.5326538,1.046875,2.578125,-1.453125
342,0.85717773,0.061462402,0.5465698,1.71875,1.046875,-1.453125
343,0.83862305,0.059509277,0.53900146,1.40625,2.109375,-0.3125
344,0.85302734,0.059265137,0.54437256,1.328125,2.5,-0.015625
345,0.8552246,0.059020996,0.545105,1.609375,1.59375,0.34375
346,0.85839844,0.04876709,0.5499878,1.234375,1.859375,0.359375
347,0.875,0.043151855,0.5321655,1.0,2.40625,-0.109375
348,0.87060547,0.047302246,0.52557373,1.21875,2.5625,-0.28125
349,0.8569336,0.034851074,0.5307007,1.328125,2.078125,-0.796875
350,0.8588867,0.04168701,0.5338745,-0.890625,1.140625,-1.609375
351,0.85375977,0.04901123,0.5187378,-2.484375,0.078125,-0.71875
352,0.8486328,0.044128418,0.5270386,-1.46875,1.671875,-0.34375
353,0.8630371,0.04144287,0.5158081,-0.953125,1.265625,-0.609375
354,0.85595703,0.039733887,0.5072632,-2.3125,-1.6875,-0.328125
355,0.86694336,0.04437256,0.524353,0.078125,-0.53125,0.046875
356,0.85498047,0.039733887,0.52630615,-0.15625,-1.546875,0.390625
357,0.86572266,0.04119873,0.51312256,-1.8125,-2.109375,0.09375
358,0.8564453,0.04144287,0.5145874,-0.515625,-1.84375,0.71875
359,0.84936523,0.045837402,0.5228882,1.109375,-0.421875,1.078125
360,0.8618164,0.04071045,0.52948,1.953125,-1.03125,1.078125
361,0.85302734,0.042419434,0.52801514,2.53125,-2.9375,0.78125
362,0.845459,0.039001465,0.52679443,1.125,-1.21875,1.75
363,0.8666992,0.03729248,0.55023193,1.734375,-3.5625,2.234375
364,0.861084,0.046569824,0.5560913,-0.09375,-4.8125,2.125
365,0.84399414,0.043151855,0.5285034,-0.953125,-8.171875,1.859375
366,0.83154297,0.055603027,0.5758667,-2.75,-5.71875,1.671875
367,0.85058594,0.035827637,0.60076904,-2.609375,-1.390625,2.65625
368,0.8352051,0.05706787,0.59783936,-2.625,-5.28125,4.40625
369,0.8588867,0.04901123,0.56536865,-3.046875,1.734375,4.171875
370,0.8183594,0.10003662,0.5482788,-5.4375,15.3125,-0.171875
371,0.83691406,0.054870605,0.50994873,-0.0625,9.0625,0.0625
372,0.83569336,0.043395996,0.53338623,-0.703125,2.4375,-1.328125
373,0.8623047,0.051696777,0.5075073,-0.296875,6.734375,-0.734375
374,0.8713379,0.074401855,0.51849365,-0.6875,3.125,-0.796875
375,0.86328125,0.07098389,0.539978,0.875,2.234375,-1.109375
376,0.8564453,0.061950684,0.5258179,1.046875,1.21875,-0.296875
377,0.845459,0.055114746,0.5223999,0.734375,1.078125,-0.15625
378,0.8635254,0.04876709,0.52874756,1.515625,4.0,-0.546875
379,0.8967285,0.04437256,0.5231323,0.40625,6.984375,-1.21875
380,0.8742676,0.054870605,0.510437,0.953125,2.75,-0.234375
381,0.8703613,0.051940918,0.49725342,2.015625,1.359375,-0.09375
382,0.8688965,0.042907715,0.50579834,-0.203125,-0.09375,-0.125
383,0.8544922,0.0446167,0.5023804,-1.359375,-0.984375,-0.640625
384,0.8762207,0.038269043,0.50042725,-1.671875,0.3125,-0.90625
385,0.8701172,0.043640137,0.50823975,-1.828125,0.109375,-1.296875
386,0.8720703,0.0446167,0.5031128,-2.5,0.1875,-0.96875
387,0.8730469,0.041931152,0.5097046,-1.71875,0.890625,-1.125
388,0.8701172,0.042175293,0.47894287,-1.90625,-2.484375,-0.375
389,0.87231445,0.058776855,0.49212646,0.78125,-0.515625,0.59375
390,0.87060547,0.05316162,0.5048218,1.5625,-1.34375,0.671875
391,0.87060547,0.04046631,0.5023804,0.828125,-4.265625,1.390625
392,0.86450195,0.031188965,0.50897217,0.875,-1.796875,2.390625
393,0.8679199,0.043151855,0.5446167,0.046875,-3.265625,1.75
394,0.8491211,0.035339355,0.51434326,0.71875,-3.515625,2.265625
395,0.8791504,0.070251465,0.52557373,-2.390625,-6.53125,3.21875
396,0.8613281,0.043640137,0.5387573,-0.734375,-5.125,4.96875
397,0.8378906,0.066589355,0.5704956,0.703125,-7.0625,3.828125
398,0.8640137,0.077819824,0.4874878,4.671875,0.703125,9.234375
399,0.87768555,0.06048584,0.53240967,4.53125,12.15625,7.9375
400,0.8432617,0.09295654,0.5927124,-0.265625,7.203125,2.046875
401,0.8293457,0.02508545,0.4869995,-4.3125,6.4375,1.875
402,0.8474121,0.057556152,0.5199585,-2.96875,4.671875,-4.125
403,0.8635254,0.06561279,0.5175171,-6.671875,3.609375,-2.6875
404,0.90234375,0.10101318,0.48114014,-2.0,-2.921875,-3.0
405,0.89404297,0.07611084,0.508728,-1.078125,-0.828125,-0.75
406,0.83447266,0.07147217,0.513855,1.015625,-0.578125,-1.171875
407,0.861084,0.06732178,0.5036011,0.015625,1.0,-0.359375
408,0.8713379,0.0602417,0.513855,0.875,1.734375,-0.328125
409,0.8835449,0.06390381,0.5014038,0.640625,1.375,-0.265625
410,0.8876953,0.0602417,0.5062866,0.765625,2.546875,-0.125
411,0.8881836,0.0602417,0.49700928,1.140625,1.125,-0.640625
412,0.86499023,0.05999756,0.49578857,-0.765625,0.78125,-0.5
413,0.86938477,0.055114746,0.50115967,0.296875,3.40625,-1.78125
414,0.8742676,0.044128418,0.49993896,-0.890625,1.984375,-1.46875
415,0.8779297,0.05706787,0.4796753,-2.578125,-0.125,-1.71875
416,0.8779297,0.051208496,0.49310303,0.375,0.453125,-0.859375
417,0.8713379,0.055114746,0.48260498,0.625,0.0625,0.421875
418,0.8708496,0.059020996,0.48846436,0.28125,-1.390625,0.046875
419,0.8769531,0.050231934,0.46673584,-0.71875,-2.015625,0.78125
420,0.87524414,0.04046631,0.49920654,0.53125,-1.171875,0.765625
421,0.88256836,0.04486084,0.49700928,-0.828125,-1.421875,0.21875
422,0.8730469,0.047790527,0.48431396,-1.953125,-4.421875,0.5
423,0.85961914,0.06365967,0.5062866,-2.484375,-2.71875,1.125
424,0.8588867,0.061462402,0.5055542,-1.734375,-2.1875,1.03125
425,0.8691406,0.047790527,0.5187378,0.5,-3.546875,0.765625
426,0.8581543,0.05340576,0.5216675,-2.375,-3.921875,0.5625
427,0.8613281,0.050720215,0.51434326,-2.0,-5.390625,1.1875
428,0.85424805,0.06585693,0.53167725,-1.953125,-8.015625,2.171875
429,0.8466797,0.07122803,0.52264404,-4.0,-16.390625,3.1875
430,0.8425293,0.07244873,0.5836792,-6.046875,-6.453125,1.953125
431,0.8474121,0.097595215,0.571228,-6.09375,8.140625,-0.265625
432,0.8378906,0.07196045,0.513855,-0.75,6.84375,-0.65625
433,0.8547363,0.057800293,0.54364014,2.65625,4.65625,-0.765625
434,0.85302734,0.05682373,0.5531616,2.4375,5.453125,-0.21875
435,0.873291,0.070739746,0.52679443,1.515625,3.96875,-0.3125
436,0.861084,0.086364746,0.5206909,0.21875,1.28125,-0.34375
437,0.85253906,0.07098389,0.5336304,1.375,2.34375,-0.28125
438,0.8508301,0.054382324,0.5314331,0.78125,2.1875,-0.046875
439,0.8540039,0.05999756,0.5194702,0.5625,1.71875,-0.09375
440,0.86938477,0.059020996,0.5309448,1.921875,3.15625,-0.171875
441,0.8835449,0.050231934,0.51068115,2.09375,2.984375,-0.546875
442,0.8757324,0.04925537,0.51727295,1.71875,2.828125,0.203125
443,0.8640137,0.043395996,0.51361084,-0.046875,2.4375,0.515625
444,0.8640137,0.05218506,0.4887085,-1.140625,1.265625,-0.875
445,0.8808594,0.066101074,0.4935913,-1.6875,-0.453125,-0.59375
446,0.8654785,0.058288574,0.50164795,-0.5,-0.265625,-0.609375
447,0.86206055,0.047058105,0.50653076,-0.0625,0.03125,0.1875
448,0.88012695,0.049987793,0.51361084,0.609375,-1.390625,0.46875
449,0.8679199,0.054626465,0.49578857,-0.03125,-2.015625,0.875
450,0.8688965,0.04901123,0.5038452,0.9375,-2.390625,0.765625
451,0.86450195,0.051696777,0.5014038,0.640625,-2.671875,1.1875
452,0.8588867,0.05657959,0.51849365,-0.140625,-0.171875,0.875
453,0.86621094,0.050964355,0.50457764,-2.5,-1.390625,0.796875
454,0.8544922,0.05267334,0.5309448,-0.265625,-3.734375,1.03125
455,0.86694336,0.050720215,0.5101929,-0.09375,-3.3125,1.875
456,0.8564453,0.066833496,0.5426636,-0.5625,-4.0625,1.109375
457,0.8562012,0.055114746,0.5282593,-1.8125,-3.625,1.96875
458,0.8457031,0.043395996,0.5199585,-5.1875,-7.671875,2.3125
459,0.8483887,0.0836792,0.5932007,-6.765625,-9.1875,2.40625
460,0.81640625,0.078308105,0.56243896,-1.765625,-8.21875,3.34375
461,0.87597656,0.07879639,0.5619507,-3.46875,8.765625,3.375
462,0.8388672,0.09906006,0.539978,0.125,12.15625,1.328125
463,0.86450195,0.036315918,0.5231323,1.984375,7.28125,1.03125
464,0.8737793,0.049743652,0.5206909,-2.6875,1.53125,-1.390625
465,0.8527832,0.09197998,0.51971436,-1.09375,0.65625,-2.21875
466,0.85546875,0.08123779,0.52142334,0.34375,2.109375,-1.015625
467,0.8742676,0.09588623,0.53240967,-0.0625,0.8125,-0.359375
468,0.8532715,0.07293701,0.5211792,1.484375,1.390625,-0.25
469,0.8598633,0.05609131,0.5175171,1.140625,1.640625,-0.1875
470,0.8588867,0.066101074,0.53167725,1.8125,1.359375,0.015625
471,0.8691406,0.06414795,0.52142334,1.15625,3.265625,0.328125
472,0.8742676,0.062927246,0.5211792,0.75,4.0,-0.515625
473,0.8708496,0.062194824,0.50653076,-0.953125,0.390625,-0.828125
474,0.8623047,0.0692749,0.49969482,-1.53125,1.09375,-1.265625
475,0.87109375,0.06414795,0.5175171,-1.015625,2.890625,-0.78125
476,0.8696289,0.05267334,0.5072632,-0.515625,0.359375,-0.71875
477,0.8679199,0.05316162,0.49139404,-0.890625,-0.765625,-1.140625
478,0.8730469,0.05706787,0.5109253,-0.046875,-1.140625,-0.40625
479,0.8745117,0.06439209,0.5036011,1.1875,-1.1875,0.125
480,0.8713379,0.058776855,0.48651123,1.84375,-1.84375,0.0
481,0.86206055,0.06732178,0.49969482,-0.09375,-3.4375,0.734375
482,0.8664551,0.04437256,0.508728,-0.421875,-2.578125,1.5
483,0.8532715,0.059509277,0.53240967,-2.046875,-2.828125,1.625
484,0.86279297,0.053649902,0.5385132,1.890625,-2.125,1.484375
485,0.8623047,0.06414795,0.53656006,0.859375,-1.90625,1.34375
486,0.85961914,0.05609131,0.5165405,-0.625,-3.390625,1.1875
487,0.86083984,0.06048584,0.5465698,-0.296875,-2.328125,2.03125
488,0.83154297,0.06439209,0.5285034,-2.34375,-4.90625,2.3125
489,0.8210449,0.07537842,0.59490967,3.84375,-4.046875,3.90625
490,0.8730469,0.058288574,0.5700073,-1.578125,-5.109375,2.359375
491,0.85839844,0.08001709,0.5265503,-2.046875,-1.921875,1.5
492,0.8432617,0.08807373,0.5297241,-4.234375,10.203125,-0.984375
493,0.85302734,0.05682373,0.51068115,-2.421875,6.421875,0.28125
494,0.85961914,0.055358887,0.5101929,0.359375,5.09375,-0.84375
495,0.8774414,0.070495605,0.53900146,-0.65625,4.46875,-0.78125
496,0.8679199,0.074157715,0.527771,-0.171875,2.359375,-0.453125
497,0.857666,0.07489014,0.5206909,-0.1875,0.21875,-0.65625
498,0.8562012,0.070739746,0.52874756,1.234375,1.328125,0.03125
499,0.8569336,0.06488037,0.5180054,0.828125,2.984375,0.140625
500,0.86694336,0.06585693,0.5248413,1.703125,3.296875,0.078125
501,0.8874512,0.051940918,0.5126343,1.34375,2.875,0.171875
502,0.86572266,0.054382324,0.51971436,0.828125,2.21875,-0.4375
503,0.8696289,0.059509277,0.5199585,0.1875,1.265625,-0.515625
504,0.8652344,0.05682373,0.4899292,-1.21875,-0.421875,0.03125
505,0.86376953,0.06414795,0.5023804,-0.328125,-0.171875,-0.640625
506,0.86279297,0.06317139,0.5023804,-1.34375,-0.671875,0.0
507,0.87719727,0.049743652,0.4935913,0.078125,0.34375,-0.28125
508,0.8703613,0.057800293,0.50897217,-0.125,-1.640625,0.265625
509,0.8671875,0.05291748,0.48260498,-0.1875,-1.890625,0.3125
510,0.87475586,0.058776855,0.5031128,-0.109375,-2.65625,0.25
511,0.8642578,0.053649902,0.50042725,-2.6875,-4.234375,0.265625
512,0.85375977,0.053649902,0.5355835,-3.359375,-3.78125,0.234375
513,0.8598633,0.054870605,0.5285034,-0.953125,-4.28125,0.8125
514,0.861084,0.07147217,0.53533936,-0.859375,-2.40625,0.921875
515,0.8618164,0.061950684,0.53338623,0.328125,-2.875,1.5
516,0.8405762,0.05633545,0.5343628,-0.09375,-4.9375,1.796875
517,0.85791016,0.048034668,0.53826904,-3.328125,-8.90625,2.390625
518,0.78881836,0.07489014,0.6222534,-4.96875,-12.359375,1.0625
519,0.8569336,0.06976318,0.545105,-8.015625,4.03125,0.171875
520,0.87158203,0.11981201,0.50946045,-0.8125,11.078125,1.515625
521,0.8684082,0.036315918,0.51434326,3.59375,3.484375,-0.078125
522,0.83496094,0.0602417,0.53582764,-0.984375,3.359375,-0.296875
523,0.84765625,0.06365967,0.5331421,-0.3125,6.09375,-0.140625
524,0.88427734,0.07904053,0.5285034,-0.09375,1.734375,-0.6875
525,0.8605957,0.0848999,0.53411865,1.28125,0.859375,-0.3125
526,0.845459,0.062927246,0.527771,0.53125,0.265625,-0.3125
527,0.8618164,0.061706543,0.5270386,0.984375,1.328125,0.375
528,0.85424805,0.06414795,0.53533936,2.546875,3.375,0.203125
529,0.8676758,0.062683105,0.5302124,2.0,3.9375,0.359375
530,0.8762207,0.06072998,0.51068115,1.921875,3.25,-0.203125
531,0.8679199,0.053894043,0.5211792,1.640625,2.171875,-0.890625
532,0.8679199,0.05609131,0.5126343,-0.703125,1.0625,-0.75
533,0.86279297,0.055114746,0.4989624,-0.25,1.875,-0.640625
534,0.8652344,0.05657959,0.5050659,-0.515625,0.921875,-0.234375
535,0.86694336,0.05657959,0.5067749,0.09375,-0.15625,-0.28125
536,0.87231445,0.054382324,0.4935913,0.125,-1.140625,0.171875
537,0.876709,0.04949951,0.4953003,-0.078125,-3.84375,0.046875
538,0.86450195,0.042175293,0.49310303,-2.078125,-6.421875,-0.75
539,0.8725586,0.06048584,0.51312256,-1.640625,-1.984375,-0.109375
540,0.8601074,0.06048584,0.5018921,-2.90625,-3.640625,0.53125
541,0.8527832,0.061950684,0.53338623,-2.5,-2.921875,0.375
542,0.85498047,0.05291748,0.5512085,1.625,-0.296875,1.078125
543,0.8479004,0.047302246,0.5512085,-0.640625,-3.625,0.640625
544,0.86157227,0.062927246,0.53289795,-0.46875,-1.0,0.953125
545,0.859375,0.062927246,0.5541382,0.609375,-5.3125,2.15625
546,0.83154297,0.051940918,0.52557373,-1.578125,-5.84375,3.65625
547,0.8334961,0.0680542,0.5656128,-1.703125,-10.515625,2.3125
548,0.8444824,0.042907715,0.5753784,-4.421875,3.046875,-0.078125
549,0.84643555,0.10296631,0.5516968,-4.515625,13.515625,-0.875
550,0.8774414,0.05633545,0.5216675,-0.28125,2.96875,0.8125
551,0.8544922,0.035827637,0.55584717,1.65625,1.515625,-1.40625
552,0.8544922,0.058776855,0.54730225,0.140625,6.125,0.578125
553,0.85180664,0.0770874,0.5001831,0.625,2.265625,0.3125
554,0.86694336,0.08416748,0.54241943,1.65625,1.28125,-0.34375
555,0.8461914,0.0602417,0.5109253,0.328125,1.765625,0.375
556,0.8586426,0.05267334,0.53411865,0.96875,2.546875,-0.015625
557,0.88134766,0.04119873,0.53582764,0.953125,2.78125,0.109375
558,0.876709,0.0602417,0.5128784,0.75,3.1875,-0.0625
559,0.8791504,0.057556152,0.52020264,1.234375,3.265625,-0.375
560,0.8635254,0.06072998,0.5006714,-0.75,1.453125,-0.8125
561,0.8562012,0.053894043,0.49334717,-1.328125,-0.40625,-1.078125
562,0.8574219,0.05218506,0.4935913,-4.65625,-1.0,0.125
563,0.87939453,0.051208496,0.49676514,-2.421875,0.8125,-0.21875
564,0.8642578,0.066345215,0.5343628,0.59375,-0.078125,0.328125
565,0.8557129,0.046569824,0.5043335,-0.4375,-1.28125,0.171875
566,0.87939453,0.05218506,0.5018921,1.71875,-1.0625,0.6875
567,0.8737793,0.058044434,0.49749756,1.328125,-2.078125,0.78125
568,0.86279297,0.04901123,0.49749756,-0.59375,-3.3125,1.140625
569,0.8605957,0.055603027,0.5248413,-1.1875,-2.171875,0.515625
570,0.8635254,0.05609131,0.5492554,1.15625,-0.15625,0.5
571,0.86206055,0.05340576,0.5126343,0.109375,-1.65625,0.828125
572,0.86376953,0.055358887,0.53289795,0.421875,-3.03125,1.46875
573,0.86938477,0.04852295,0.5314331,1.140625,-3.90625,2.125
574,0.85058594,0.06048584,0.5297241,-1.84375,-7.125,2.984375
575,0.8432617,0.06463623,0.541687,-1.734375,-7.375,1.609375
576,0.84106445,0.057556152,0.5787964,-1.78125,-8.296875,1.234375
577,0.83374023,0.08001709,0.5477905,-8.515625,6.84375,-1.34375
578,0.8684082,0.06097412,0.5360718,0.3125,7.546875,-0.46875
579,0.8708496,0.04437256,0.54803467,0.890625,2.0,0.640625
580,0.83935547,0.062683105,0.543396,2.265625,6.109375,0.359375
581,0.861084,0.06439209,0.51727295,0.90625,3.4375,0.171875
582,0.8520508,0.08001709,0.5170288,1.703125,1.5625,-0.953125
583,0.86450195,0.06341553,0.53118896,0.953125,2.234375,-0.234375
584,0.8557129,0.04852295,0.5194702,0.671875,2.046875,0.203125
585,0.8659668,0.051696777,0.52752686,1.328125,2.21875,0.0625
586,0.87280273,0.047302246,0.5350952,1.484375,2.828125,0.046875
587,0.8688965,0.051208496,0.52801514,0.53125,3.078125,-0.421875
588,0.86499023,0.055603027,0.4935913,-1.1875,2.265625,-0.421875
589,0.86572266,0.050720215,0.5092163,-1.15625,1.875,-0.6875
590,0.8796387,0.04559326,0.50994873,-1.25,1.671875,-1.28125
591,0.87109375,0.051208496,0.49920654,-1.484375,-2.171875,-0.953125
592,0.8605957,0.06317139,0.52020264,1.6875,-4.15625,-0.265625
593,0.8664551,0.042419434,0.4899292,-0.03125,-0.875,0.625
594,0.8703613,0.05316162,0.49700928,-0.390625,-1.6875,-0.046875
595,0.86743164,0.047058105,0.50994873,-0.015625,-3.0,0.625
596,0.8547363,0.04071045,0.4911499,0.015625,-3.953125,0.953125
597,0.861084,0.049987793,0.5204468,-1.40625,-4.03125,1.171875
598,0.85375977,0.04486084,0.5309448,0.5,-2.1875,1.65625
599,0.85913086,0.051940918,0.55145264,4.34375,-0.6875,1.609375
600,0.85302734,0.038024902,0.54608154,0.953125,-2.578125,1.0625
601,0.8532715,0.051940918,0.53704834,0.328125,-3.5625,1.203125
602,0.85424805,0.047546387,0.5429077,-0.3125,-3.875,2.125
603,0.83251953,0.04852295,0.5331421,-5.9375,-18.765625,2.59375
604,0.8339844,0.07098389,0.58099365,-4.828125,-5.21875,0.421875
605,0.78686523,0.10028076,0.6132202,-1.21875,14.59375,2.5
606,0.87768555,0.06756592,0.5109253,0.859375,4.3125,0.390625
607,0.857666,0.0040893555,0.5685425,3.0,2.5,-1.0625
608,0.8491211,0.031433105,0.5529175,-1.296875,4.78125,0.9375
609,0.84936523,0.07122803,0.5397339,-1.203125,5.875,0.078125
610,0.8676758,0.08782959,0.54681396,-0.796875,2.765625,-1.046875
611,0.8400879,0.07269287,0.52801514,0.5625,1.078125,-0.75
612,0.8522949,0.044128418,0.52630615,1.28125,3.46875,0.015625
613,0.87231445,0.044128418,0.5289917,1.1875,3.96875,0.140625
614,0.86328125,0.042663574,0.5343628,0.609375,3.0,0.0
615,0.8828125,0.047546387,0.53460693,0.265625,2.875,-0.078125
616,0.8652344,0.05267334,0.50823975,-0.703125,0.96875,-0.640625
617,0.8532715,0.061950684,0.49969482,-1.140625,0.28125,0.0
618,0.86499023,0.06097412,0.5180054,0.96875,-0.09375,0.15625
619,0.87109375,0.046325684,0.51727295,-0.75,-1.34375,-0.140625
620,0.8652344,0.043884277,0.5092163,-1.03125,-0.953125,0.015625
621,0.8564453,0.042663574,0.51483154,0.421875,-1.125,0.359375
622,0.87597656,0.04437256,0.5140991,0.859375,-0.734375,0.171875
623,0.84716797,0.04510498,0.49676514,-0.578125,-3.046875,0.5625
624,0.8522949,0.055847168,0.5206909,-1.640625,-1.203125,0.359375
625,0.8630371,0.05706787,0.53240967,1.625,2.1875,0.984375
626,0.87524414,0.039001465,0.53826904,3.25,-0.59375,1.1875
627,0.8588867,0.04437256,0.52948,-0.75,-2.078125,1.125
628,0.8547363,0.051208496,0.5182495,-0.734375,-2.109375,1.875
629,0.86621094,0.039489746,0.5289917,-0.875,-5.5,2.4375
630,0.8395996,0.05609131,0.5446167,-4.234375,-10.421875,2.21875
631,0.8479004,0.043395996,0.57928467,-4.265625,-3.703125,1.921875
632,0.8405762,0.0758667,0.5704956,-5.515625,9.859375,1.421875
633,0.8569336,0.05999756,0.49383545,-0.25,8.5,0.4375
634,0.86621094,0.051696777,0.5079956,1.1875,1.921875,-1.140625
635,0.8601074,0.05731201,0.5360718,2.421875,5.15625,-0.671875
636,0.8613281,0.05340576,0.49627686,-0.015625,4.078125,0.296875
637,0.8598633,0.081970215,0.52142334,0.34375,1.625,-0.65625
638,0.8791504,0.062683105,0.527771,0.703125,1.546875,-0.375
639,0.86743164,0.05316162,0.51312256,0.390625,1.421875,-0.21875
640,0.87646484,0.046813965,0.5097046,0.53125,2.015625,-0.03125
641,0.8840332,0.04437256,0.5067749,0.078125,1.671875,-0.125
642,0.8833008,0.051696777,0.50335693,0.21875,2.734375,-0.84375
643,0.8959961,0.050231934,0.50579834,1.3125,1.3125,-1.140625
644,0.8491211,0.05316162,0.508728,-0.21875,1.453125,-0.3125
645,0.86572266,0.05291748,0.5114136,1.765625,2.875,-1.03125
646,0.88256836,0.050476074,0.5101929,-0.171875,0.390625,-0.234375
647,0.8498535,0.0446167,0.48919678,-1.890625,-1.328125,-0.046875
648,0.8796387,0.043884277,0.48260498,-0.59375,-0.34375,0.125
649,0.8779297,0.053894043,0.4779663,0.640625,-1.125,0.9375
650,0.87719727,0.034606934,0.47283936,1.4375,-2.984375,0.953125
651,0.87597656,0.039733887,0.50457764,-1.09375,-2.375,0.671875
652,0.8737793,0.03387451,0.494812,-2.0,-1.859375,0.734375
653,0.86206055,0.043151855,0.5338745,1.265625,-2.34375,0.71875
654,0.8725586,0.047546387,0.52020264,0.625,-2.640625,0.28125
655,0.8725586,0.057800293,0.5170288,-0.40625,-3.65625,1.640625
656,0.85253906,0.058532715,0.53045654,-0.515625,-5.34375,2.625
657,0.8515625,0.04925537,0.5248413,-3.34375,-9.6875,3.125
658,0.83251953,0.046325684,0.6273804,-3.40625,-10.21875,1.875
659,0.8186035,0.047058105,0.51239014,-13.3125,-5.671875,1.5625
660,0.8703613,0.08831787,0.50897217,-3.34375,10.015625,-1.921875
661,0.8725586,0.04510498,0.50823975,0.671875,4.796875,-1.5625
662,0.8496094,0.043395996,0.5475464,3.0,4.90625,-0.40625
663,0.86938477,0.0446167,0.53826904,1.546875,5.796875,1.328125
664,0.8688965,0.07879639,0.5187378,1.125,0.84375,1.0
665,0.8581543,0.078552246,0.53338623,1.34375,0.84375,0.171875
666,0.8688965,0.05633545,0.52215576,1.234375,3.671875,-0.21875
667,0.86572266,0.047302246,0.49969482,1.28125,2.796875,-0.15625
668,0.8754883,0.047790527,0.5331421,0.765625,1.3125,-0.34375
669,0.8703613,0.04949951,0.51971436,0.046875,2.765625,0.359375
670,0.859375,0.050720215,0.53167725,0.96875,1.890625,-0.359375
671,0.87402344,0.0446167,0.50213623,-1.4375,0.921875,-0.671875
672,0.8569336,0.06390381,0.4989624,-1.6875,0.796875,-0.65625
673,0.8664551,0.04925537,0.49749756,-0.875,-0.515625,-0.625
674,0.8688965,0.043640137,0.49969482,-0.6875,-0.328125,0.015625
675,0.87231445,0.043640137,0.49090576,-0.3125,-0.203125,0.453125
676,0.8718262,0.04559326,0.48773193,0.140625,-1.734375,0.484375
677,0.8786621,0.05340576,0.48431396,-0.4375,-3.859375,0.671875
678,0.8647461,0.051452637,0.5170288,-0.25,-1.59375,0.84375
679,0.8601074,0.05291748,0.5282593,2.0,0.65625,0.734375
680,0.8725586,0.039489746,0.5228882,2.9375,-0.84375,1.390625
681,0.85839844,0.0524292,0.52948,-0.109375,-5.15625,0.84375
682,0.86035156,0.05633545,0.5363159,0.515625,-4.15625,1.90625
683,0.86206055,0.05633545,0.5228882,-1.265625,-6.203125,3.34375
684,0.8378906,0.05999756,0.5726929,-1.625,-5.046875,3.046875
685,0.83618164,0.053894043,0.55218506,-3.515625,-3.25,4.09375
686,0.8696289,0.06439209,0.53704834,-1.53125,7.515625,3.984375
687,0.8547363,0.08734131,0.51605225,-3.0,7.90625,1.53125
688,0.8532715,0.04852295,0.4977417,-0.328125,6.9375,-0.03125
689,0.86328125,0.059753418,0.5023804,-0.21875,2.921875,-1.625
690,0.88623047,0.06707764,0.49798584,1.15625,4.53125,-1.015625
691,0.8791504,0.06903076,0.5026245,0.375,1.609375,-1.203125
692,0.86743164,0.06854248,0.5175171,0.875,0.109375,-1.6875
693,0.86328125,0.061706543,0.5126343,0.875,1.859375,-0.796875
694,0.8742676,0.06097412,0.49798584,0.234375,2.09375,-0.359375
695,0.88183594,0.05609131,0.51312256,0.90625,3.0625,-0.359375
696,0.8742676,0.05291748,0.49871826,-0.078125,2.28125,-0.453125
697,0.8847656,0.05267334,0.49456787,-0.390625,2.671875,-0.640625
698,0.87231445,0.04949951,0.496521,-0.359375,-0.984375,-0.21875
699,0.87402344,0.046569824,0.4869995,0.578125,-0.625,-0.515625
700,0.8701172,0.054138184,0.49871826,-0.96875,-1.53125,-0.625
701,0.86938477,0.05218506,0.4845581,-0.890625,-1.0,0.234375
702,0.873291,0.046325684,0.49700928,0.171875,-0.46875,0.125
703,0.8796387,0.043884277,0.49163818,0.03125,-2.84375,0.28125
704,0.8664551,0.06121826,0.4857788,-0.875,-2.234375,0.34375
705,0.8786621,0.058044434,0.49945068,0.984375,0.578125,0.859375
706,0.88378906,0.046813965,0.51434326,2.484375,-0.59375,0.71875
707,0.8708496,0.035827637,0.5219116,0.25,-3.5625,0.359375
708,0.8654785,0.05267334,0.5133667,-1.625,-3.9375,0.4375
709,0.8618164,0.05340576,0.5140991,-0.609375,-3.3125,1.515625
710,0.859375,0.06732178,0.59490967,-0.71875,-3.15625,1.3125
711,0.861084,0.030456543,0.52508545,-0.03125,-4.03125,0.421875
712,0.83569336,0.06854248,0.545105,-3.234375,-9.859375,2.234375
713,0.8664551,0.050720215,0.5079956,-5.796875,-2.609375,2.375
714,0.8466797,0.09466553,0.5204468,-3.40625,5.9375,0.40625
715,0.8391113,0.051940918,0.50701904,-0.484375,7.640625,1.3125
716,0.87109375,0.04510498,0.4953003,2.703125,6.84375,-0.21875
717,0.88012695,0.05218506,0.5109253,2.265625,3.53125,-0.171875
718,0.888916,0.042419434,0.51190186,0.90625,1.515625,-0.84375
719,0.8823242,0.053894043,0.50653076,0.84375,0.671875,-1.140625
720,0.8510742,0.062683105,0.51239014,-0.609375,-0.234375,-0.625
721,0.8527832,0.05682373,0.5211792,-0.484375,0.953125,-0.25
722,0.8630371,0.048034668,0.52142334,-0.609375,0.6875,-0.5
723,0.8703613,0.054138184,0.51483154,-0.84375,1.859375,-0.53125
724,0.88012695,0.039489746,0.51849365,-0.3125,2.296875,-0.171875
725,0.86865234,0.050231934,0.5192261,-0.734375,1.3125,-0.140625
726,0.8691406,0.04827881,0.5006714,-0.4375,0.546875,-0.734375
727,0.8696289,0.04827881,0.494812,-0.75,-0.5625,-0.578125
728,0.86572266,0.04534912,0.496521,-0.234375,-0.5625,-0.265625
729,0.873291,0.04827881,0.49700928,-0.140625,-0.6875,-0.09375
730,0.86816406,0.04949951,0.49261475,0.203125,-1.546875,0.453125
731,0.87109375,0.041931152,0.49798584,0.765625,-3.125,0.75
732,0.8708496,0.039001465,0.4779663,-3.03125,-4.328125,1.03125
733,0.85717773,0.042663574,0.5223999,-1.6875,-1.328125,0.71875
734,0.8684082,0.044128418,0.5285034,-1.671875,-3.71875,0.734375
735,0.86572266,0.04510498,0.55340576,-1.203125,-4.359375,0.375
736,0.87231445,0.04949951,0.52142334,-1.453125,-3.078125,1.375
737,0.83618164,0.06512451,0.53826904,-1.0,-5.0,1.765625
738,0.8635254,0.053894043,0.5582886,-1.75,-3.296875,2.796875
739,0.8371582,0.055603027,0.58343506,-0.328125,-8.234375,2.71875
740,0.85961914,0.039001465,0.545105,-1.3125,-2.84375,3.90625
741,0.828125,0.08123779,0.5097046,-1.90625,10.796875,0.125
742,0.8730469,0.066833496,0.5038452,-0.5,7.015625,0.25
743,0.859375,0.05731201,0.5363159,1.203125,3.984375,-0.953125
744,0.8623047,0.05731201,0.52996826,0.234375,4.390625,-0.28125
745,0.86450195,0.06756592,0.5192261,0.796875,2.90625,-0.453125
746,0.8857422,0.07293701,0.5199585,0.40625,1.328125,-0.125
747,0.85595703,0.05267334,0.52142334,0.921875,1.65625,-0.109375
748,0.8659668,0.049987793,0.51361084,1.015625,1.171875,0.34375
749,0.86376953,0.04925537,0.52020264,1.734375,2.234375,0.140625
750,0.8781738,0.04852295,0.5231323,1.703125,2.546875,-0.40625
751,0.86157227,0.06512451,0.50897217,0.640625,1.140625,-0.25
752,0.87524414,0.04534912,0.5282593,0.390625,2.28125,-0.65625
753,0.87646484,0.042175293,0.5050659,-0.609375,0.03125,-0.78125
754,0.85253906,0.04949951,0.48919678,-1.328125,-0.5625,-0.40625
755,0.88061523,0.04852295,0.5060425,-0.484375,0.03125,-0.25
756,0.8713379,0.043640137,0.50897217,-0.4375,-1.484375,-0.125
757,0.86743164,0.04534912,0.48968506,-0.3125,-0.53125,0.265625
758,0.8640137,0.043884277,0.5023804,-0.234375,-1.265625,0.65625
759,0.8703613,0.043151855,0.49847412,-0.796875,-3.03125,0.578125
