sample_no,accel_x,accel_y,accel_z,gyro_x,gyro_y,gyro_z
0,-0.22753906,-0.96539307,0.054382324,0.328125,2.234375,0.84375
1,-0.24658203,-0.9680786,0.049743652,2.15625,0.625,1.875
2,-0.26586914,-0.9763794,0.05999756,4.171875,-2.546875,-0.171875
3,-0.33789062,-1.0481567,-0.12261963,-1.453125,-12.59375,-4.375
4,-0.00048828125,-0.79400635,0.19403076,2.625,5.0625,-1.484375
5,-0.40454102,-1.11969,0.06585693,9.796875,-14.828125,4.671875
6,-0.30908203,-1.1360474,0.11273193,1.203125,7.75,0.265625
7,-0.17553711,-0.9258423,0.010925293,6.71875,2.5625,2.921875
8,-0.2241211,-0.8796997,-0.016906738,3.21875,-1.515625,1.53125
9,-0.28955078,-1.0073853,0.01751709,1.375,-7.109375,-1.875
10,-0.28564453,-1.0474243,0.032165527,-1.1875,-4.90625,-2.5
11,-0.25439453,-0.9885864,0.0211792,-0.53125,-1.0625,-2.640625
12,-0.23730469,-0.9788208,0.028747559,-0.046875,0.703125,-1.8125
13,-0.2602539,-0.9937134,0.02532959,0.03125,0.0625,-0.5
14,-0.265625,-0.9885864,0.026306152,-1.609375,1.421875,-0.640625
15,-0.26391602,-0.98687744,0.010681152,-1.65625,1.4375,-1.234375
16,-0.2758789,-0.986145,0.03387451,-2.328125,0.6875,-0.828125
17,-0.26049805,-0.97979736,0.03729248,-1.53125,0.53125,-1.046875
18,-0.26342773,-0.98516846,0.016296387,-2.1875,1.4375,-0.484375
19,-0.26367188,-0.9805298,0.025817871,-2.015625,1.09375,-0.71875
20,-0.27685547,-0.9866333,0.035827637,-1.640625,0.578125,-0.171875
21,-0.25732422,-0.99176025,0.04046631,-1.59375,0.84375,-0.953125
22,-0.24829102,-0.99005127,0.042419434,-2.46875,0.90625,-2.15625
23,-0.2697754,-0.9780884,0.030456543,-3.03125,-0.03125,-2.0625
24,-0.2878418,-1.0003052,0.039489746,-3.703125,2.03125,-1.453125
25,-0.28027344,-0.9829712,0.049743652,-4.34375,2.046875,-2.75
26,-0.2722168,-0.9495239,0.055603027,-4.1875,2.765625,-3.09375
27,-0.30737305,-0.9663696,0.06512451,-1.796875,2.09375,-1.546875
28,-0.29736328,-0.97735596,0.06488037,-1.578125,3.671875,-1.140625
29,-0.30371094,-0.9680786,0.070251465,-0.546875,4.359375,0.484375
30,-0.3010254,-0.98321533,0.07098389,-0.46875,3.90625,1.5
31,-0.30004883,-0.9776001,0.06365967,-0.640625,4.21875,1.1875
32,-0.29174805,-0.97857666,0.06097412,-0.640625,4.234375,1.4375
33,-0.27734375,-0.9819946,0.059753418,-0.65625,4.59375,1.4375
34,-0.28833008,-0.97906494,0.07244873,-0.890625,3.171875,1.84375
35,-0.2758789,-0.972229,0.0446167,-0.296875,3.6875,1.328125
36,-0.28027344,-0.9692993,0.0692749,0.140625,2.59375,1.84375
37,-0.27124023,-0.9680786,0.06976318,0.765625,1.8125,1.359375
38,-0.26391602,-0.9631958,0.05682373,1.4375,0.890625,1.234375
39,-0.2697754,-0.98272705,0.06854248,1.953125,0.5,1.53125
40,-0.28857422,-0.9817505,0.06463623,2.609375,-0.578125,1.3125
41,-0.28515625,-0.98638916,0.03753662,1.484375,-1.53125,-0.140625
42,-0.27685547,-0.96539307,0.08441162,-4.390625,-1.703125,0.3125
43,-0.32421875,-1.0293579,-0.074035645,3.15625,2.203125,0.078125
44,-0.0871582,-0.84454346,0.15814209,6.015625,2.0,-1.453125
45,-0.40527344,-1.1377563,0.09979248,5.71875,0.25,5.484375
46,-0.19433594,-0.94073486,0.06121826,4.140625,7.234375,2.234375
47,-0.25830078,-0.9429321,-0.013244629,6.03125,1.359375,4.40625
48,-0.25976562,-0.9463501,0.03265381,3.375,-2.90625,0.34375
49,-0.3076172,-1.0144653,0.031433105,0.15625,-3.015625,0.09375
50,-0.26098633,-1.0012817,0.01776123,-0.984375,-1.09375,-0.140625
51,-0.23950195,-0.97320557,0.041931152,1.59375,-0.953125,-0.59375
52,-0.2578125,-0.9937134,0.009216309,0.34375,1.109375,0.265625
53,-0.2626953,-0.9883423,0.019714355,0.640625,0.5,0.140625
54,-0.27563477,-0.98516846,0.032409668,0.65625,0.8125,0.421875
55,-0.25463867,-0.9920044,0.0211792,-0.390625,0.984375,0.0
56,-0.25561523,-0.99053955,0.019958496,-0.890625,0.859375,0.328125
57,-0.26000977,-0.98565674,0.030456543,-1.015625,0.140625,0.578125
58,-0.26953125,-0.9932251,0.021911621,-2.109375,0.75,0.515625
59,-0.24243164,-0.9829712,0.022399902,-2.28125,0.21875,-0.53125
60,-0.2446289,-0.9829712,0.027038574,-2.640625,-0.59375,-0.28125
61,-0.26611328,-0.99346924,0.023132324,-3.203125,-0.46875,-0.671875
62,-0.25219727,-0.9915161,0.030456543,-4.15625,0.59375,-0.78125
63,-0.26489258,-0.9883423,0.04510498,-4.09375,1.203125,-0.828125
64,-0.26342773,-0.97613525,0.040222168,-4.65625,1.609375,-1.046875
65,-0.25268555,-0.9846802,0.048034668,-3.9375,1.28125,-0.984375
66,-0.25439453,-0.99005127,0.044128418,-3.3125,1.765625,-0.4375
67,-0.2722168,-0.98321533,0.05218506,-2.234375,0.609375,-0.140625
68,-0.2529297,-0.97052,0.05291748,-2.109375,2.515625,-0.65625
69,-0.25097656,-0.9697876,0.050964355,-1.328125,0.890625,-0.5
70,-0.25390625,-0.97003174,0.051940918,0.109375,1.125,-0.453125
71,-0.27319336,-0.98321533,0.05291748,0.90625,1.328125,0.078125
72,-0.25854492,-0.97857666,0.047058105,1.453125,1.1875,0.5625
73,-0.2644043,-0.9768677,0.039733887,3.0625,0.453125,1.625
74,-0.28881836,-1.0010376,0.06951904,0.234375,-1.828125,-0.0625
75,-0.25512695,-1.0188599,-0.05645752,1.15625,5.578125,-1.640625
76,-0.19824219,-0.8796997,0.05633545,4.484375,1.984375,0.46875
77,-0.27368164,-0.9902954,0.0692749,2.625,-3.03125,-0.375
78,-0.33007812,-1.0818481,0.05999756,-0.25,-1.859375,0.78125
79,-0.26464844,-0.9656372,0.047058105,0.8125,1.265625,-0.09375
80,-0.24121094,-0.9470825,-0.010314941,6.046875,1.28125,1.40625
81,-0.26123047,-0.9558716,0.01727295,6.359375,-3.296875,-0.28125
82,-0.27929688,-1.0071411,0.02923584,3.203125,-2.515625,1.25
83,-0.27197266,-1.0183716,0.020690918,0.28125,-1.734375,-0.25
84,-0.26293945,-0.97906494,0.0038452148,1.59375,-1.09375,-0.625
85,-0.25610352,-0.9636841,-0.008117676,0.859375,0.84375,-0.515625
86,-0.27514648,-0.9873657,0.007507324,-0.234375,0.125,-0.25
87,-0.25463867,-0.98101807,-0.0037231445,0.078125,1.8125,-1.015625
88,-0.26513672,-0.9837036,0.010925293,-0.5625,1.265625,-0.875
89,-0.26831055,-0.9746704,0.009460449,-1.1875,1.390625,-0.65625
90,-0.265625,-0.987854,0.0072631836,-1.890625,1.03125,-0.796875
91,-0.2680664,-0.9866333,0.004333496,-2.015625,1.15625,-0.703125
92,-0.26660156,-0.9866333,0.012634277,-2.28125,1.046875,0.078125
93,-0.26245117,-0.9824829,0.014099121,-2.875,1.421875,0.28125
94,-0.27978516,-0.9854126,0.024841309,-3.828125,1.75,0.59375
95,-0.27807617,-0.9800415,0.023376465,-4.421875,1.78125,0.984375
96,-0.26708984,-0.98760986,0.03289795,-3.828125,1.890625,1.0625
97,-0.2680664,-0.9859009,0.03289795,-3.125,2.328125,0.984375
98,-0.26245117,-0.97613525,0.029724121,-2.921875,2.265625,1.21875
99,-0.26513672,-0.98101807,0.046813965,-2.609375,2.515625,0.953125
100,-0.2565918,-0.9741821,0.032165527,-1.84375,2.796875,1.0625
101,-0.25830078,-0.9866333,0.050476074,-1.1875,2.84375,1.046875
102,-0.26342773,-0.9768677,0.036315918,-1.078125,2.953125,1.046875
103,-0.26098633,-0.975647,0.04437256,-0.375,1.96875,1.046875
104,-0.24584961,-0.97247314,0.009460449,2.078125,2.84375,1.15625
105,-0.24658203,-0.9824829,0.031921387,3.828125,1.9375,1.96875
106,-0.2541504,-0.98687744,0.0368042,4.78125,1.25,1.5625
107,-0.25732422,-0.99224854,0.007751465,3.40625,7.515625,1.15625
108,-0.21777344,-0.99591064,-6.1035156e-05,-2.34375,8.3125,-0.71875
109,-0.3010254,-0.98272705,-0.094055176,-0.21875,-3.96875,1.65625
110,-0.14648438,-0.84381104,0.11834717,4.828125,5.5625,-1.078125
111,-0.29541016,-1.062561,0.051940918,6.3125,-5.59375,2.375
112,-0.27416992,-1.0789185,0.06414795,3.96875,3.34375,3.828125
113,-0.25146484,-0.93829346,0.023864746,3.546875,-1.84375,3.84375
114,-0.2241211,-0.89727783,-0.024963379,1.734375,-6.734375,-0.25
115,-0.26000977,-1.0183716,-0.0115356445,1.484375,-7.96875,-0.5
116,-0.27416992,-1.0523071,0.0004272461,0.78125,-4.578125,-0.828125
117,-0.23413086,-0.9734497,-0.012512207,0.34375,-1.84375,-2.765625
118,-0.2199707,-0.97442627,-0.02960205,-1.453125,-0.71875,-1.6875
119,-0.25439453,-1.0110474,-0.0071411133,-1.390625,0.015625,-0.78125
120,-0.2409668,-0.98028564,0.0021362305,-0.859375,0.765625,-1.03125
121,-0.23925781,-0.98101807,-0.017150879,-2.15625,0.640625,-0.9375
122,-0.24560547,-0.98272705,-0.008117676,-2.296875,0.375,-1.203125
123,-0.26293945,-0.9985962,0.008239746,-2.15625,0.859375,-1.0625
124,-0.2446289,-0.98760986,0.020446777,-2.921875,1.671875,-1.34375
125,-0.25952148,-0.97369385,0.010192871,-4.234375,1.875,-0.9375
126,-0.26098633,-0.98321533,0.023864746,-4.796875,1.1875,-1.53125
127,-0.2565918,-0.9837036,0.0028686523,-3.4375,0.90625,-0.078125
128,-0.25830078,-0.97491455,0.025817871,-1.859375,1.671875,0.25
129,-0.26220703,-0.9793091,0.01751709,-2.28125,1.796875,0.65625
130,-0.25341797,-0.97857666,0.024108887,-2.515625,2.015625,0.6875
131,-0.25341797,-0.9846802,0.019470215,-2.296875,2.21875,0.734375
132,-0.2541504,-0.98101807,0.039489746,-1.984375,1.9375,0.921875
133,-0.25976562,-0.9783325,0.027282715,-1.890625,1.640625,0.796875
134,-0.25170898,-0.98150635,0.041931152,-1.703125,2.234375,0.609375
135,-0.25195312,-0.97198486,0.029724121,-1.203125,2.09375,0.375
136,-0.2565918,-0.98687744,0.042663574,-0.46875,1.40625,0.828125
137,-0.25170898,-0.987854,0.04119873,1.640625,1.546875,0.140625
138,-0.26391602,-0.97442627,0.036315918,3.765625,-1.4375,0.984375
139,-0.2607422,-0.9834595,0.017028809,8.515625,-3.859375,1.375
140,-0.29760742,-1.0105591,0.042175293,5.828125,-1.5625,2.5625
141,-0.18383789,-0.95928955,-0.14727783,8.015625,20.6875,4.09375
142,-0.061767578,-0.82476807,0.03778076,7.90625,2.515625,4.5625
143,-0.2697754,-1.0005493,-0.008605957,4.953125,-2.390625,7.625
144,-0.26586914,-1.0567017,0.0014038086,1.40625,-2.0,4.625
145,-0.2475586,-1.0117798,-0.004211426,-0.71875,1.609375,-0.625
146,-0.21533203,-0.9639282,-0.0010375977,1.078125,-1.171875,0.671875
147,-0.27197266,-0.99713135,0.006286621,0.6875,-6.546875,-4.21875
148,-0.25073242,-1.0337524,-0.03668213,1.21875,-6.6875,-1.703125
149,-0.22729492,-0.9751587,-0.0256958,1.671875,-3.125,1.296875
150,-0.21679688,-0.9807739,-0.04547119,0.875,0.484375,-0.75
151,-0.23144531,-0.9898071,-0.03765869,0.359375,1.703125,0.0625
152,-0.23388672,-0.9937134,-0.030578613,-1.03125,3.96875,-0.59375
153,-0.2199707,-0.9927368,-0.031311035,-3.859375,3.453125,-1.390625
154,-0.2355957,-0.9939575,-0.028381348,-5.4375,2.34375,-2.140625
155,-0.23071289,-0.987854,-0.0064086914,-5.0,2.015625,-2.453125
156,-0.23510742,-0.98565674,-0.007873535,-5.984375,2.546875,-1.59375
157,-0.2614746,-0.98223877,-0.010070801,-4.5625,1.8125,-1.625
158,-0.23754883,-0.97320557,0.0067749023,-3.71875,1.734375,-1.375
159,-0.2397461,-0.9807739,0.010925293,-3.625,1.71875,-1.3125
160,-0.24633789,-0.9817505,0.007019043,-2.953125,1.734375,-1.09375
161,-0.25219727,-0.97662354,0.027038574,-2.390625,1.890625,-1.328125
162,-0.26513672,-0.98150635,0.013122559,-3.109375,3.3125,-1.578125
163,-0.25024414,-0.9819946,0.0211792,-2.71875,3.03125,-1.734375
164,-0.2475586,-0.9824829,0.028259277,-2.453125,3.796875,-1.375
165,-0.2607422,-0.9873657,0.03289795,-2.296875,3.0625,-0.984375
166,-0.2548828,-0.97979736,0.031188965,-1.515625,3.171875,-0.609375
167,-0.2626953,-0.98443604,0.035827637,-1.46875,3.359375,-0.84375
168,-0.25927734,-0.9783325,0.031921387,-0.828125,3.03125,-0.609375
169,-0.26953125,-0.9834595,0.036315918,1.765625,1.03125,0.3125
170,-0.23925781,-0.98394775,0.034118652,3.09375,1.671875,2.5625
171,-0.25927734,-0.9944458,0.010192871,6.046875,-1.203125,3.40625
172,-0.2553711,-1.0120239,-0.010314941,5.03125,1.75,3.453125
173,-0.27856445,-1.0064087,0.00018310547,-1.65625,13.921875,0.75
174,-0.23144531,-0.87457275,-0.1194458,11.5,6.71875,3.78125
175,0.029052734,-0.71954346,0.11541748,13.828125,-4.25,6.0
176,-0.42138672,-1.2664185,0.030456543,10.453125,0.6875,13.3125
177,-0.1940918,-1.0471802,0.04071045,-1.34375,7.015625,5.53125
178,-0.2446289,-0.8772583,-0.020324707,4.84375,-5.90625,2.546875
179,-0.24707031,-0.98760986,-0.06036377,3.03125,-6.46875,2.390625
180,-0.20800781,-1.048645,-0.050109863,-0.375,-5.953125,-3.890625
181,-0.2241211,-0.96343994,-0.059387207,-0.234375,-5.40625,-2.546875
182,-0.20776367,-0.9849243,-0.047668457,-1.578125,-2.09375,-3.578125
183,-0.2241211,-1.0254517,-0.0335083,-1.796875,-0.703125,-3.75
184,-0.2084961,-0.98565674,-0.032287598,-2.59375,1.671875,-3.1875
185,-0.22363281,-0.9776001,-0.030334473,-3.0625,0.546875,-3.5625
186,-0.24389648,-0.99468994,-0.027404785,-3.5,-0.203125,-4.640625
187,-0.25634766,-0.9932251,-0.018615723,-3.5,-0.1875,-5.015625
188,-0.25268555,-0.99835205,-0.023254395,-4.0625,1.03125,-4.59375
189,-0.24169922,-0.975647,-0.026672363,-4.0625,0.78125,-4.171875
190,-0.2607422,-0.9871216,-0.028381348,-5.140625,2.015625,-3.53125
191,-0.2697754,-0.9859009,-0.0056762695,-4.78125,1.578125,-1.96875
192,-0.26611328,-0.97979736,-0.023010254,-5.59375,3.328125,-2.375
193,-0.25732422,-0.9729614,0.0018920898,-5.265625,2.921875,-2.859375
194,-0.27246094,-0.98223877,0.021911621,-5.34375,2.34375,-1.5
195,-0.2626953,-0.97320557,0.0065307617,-5.15625,3.046875,-1.875
196,-0.27685547,-0.97052,0.02947998,-4.15625,1.8125,-2.0625
197,-0.27954102,-0.98272705,0.038513184,-4.046875,2.8125,-0.15625
198,-0.28198242,-0.9734497,0.027526855,-3.75,1.5625,-0.40625
199,-0.28393555,-0.97076416,0.041931152,-3.171875,1.78125,-0.03125
200,-0.27856445,-0.97979736,0.04071045,-2.640625,1.8125,0.5625
201,-0.29223633,-0.9678345,0.039733887,-1.40625,1.984375,0.78125
202,-0.27954102,-0.97442627,0.051696777,-1.296875,1.78125,1.0625
203,-0.28515625,-0.97540283,0.04559326,0.453125,1.53125,1.0625
204,-0.28271484,-0.96832275,0.05267334,1.515625,1.21875,1.875
205,-0.26049805,-0.9824829,0.018737793,3.71875,0.328125,2.953125
206,-0.2631836,-1.0042114,0.06072998,1.359375,6.546875,2.015625
207,-0.22363281,-0.93756104,-0.097717285,3.453125,11.484375,1.765625
208,-0.1862793,-0.8521118,0.15032959,8.109375,-7.0,3.46875
209,-0.38208008,-1.1152954,0.055603027,3.640625,-0.40625,2.890625
210,-0.26367188,-1.031311,0.04901123,0.78125,3.859375,0.5625
211,-0.21533203,-0.909729,-0.0134887695,6.96875,1.109375,3.046875
212,-0.25512695,-0.95025635,0.0028686523,2.875,-5.09375,1.765625
213,-0.2854004,-1.0291138,0.0016479492,4.0,-7.25,1.84375
214,-0.2602539,-0.9898071,0.0072631836,1.625,-1.3125,0.28125
215,-0.23242188,-0.9636841,-0.0017700195,-0.40625,-0.5625,-0.421875
216,-0.24707031,-0.9990845,-0.0025024414,0.125,-0.59375,-0.703125
217,-0.26660156,-0.99346924,-0.008117676,-0.59375,0.921875,-1.46875
218,-0.2434082,-0.97906494,-0.0068969727,-1.390625,1.140625,-1.484375
219,-0.25317383,-0.9846802,0.0026245117,-0.953125,0.765625,-1.46875
220,-0.26416016,-0.98028564,-0.0044555664,-2.03125,1.28125,-1.546875
221,-0.24853516,-0.98150635,0.0053100586,-2.03125,2.46875,-1.640625
222,-0.26416016,-0.9800415,0.004333496,-2.203125,1.984375,-1.234375
223,-0.2746582,-0.9800415,0.007507324,-2.359375,2.25,-1.3125
224,-0.26342773,-0.98272705,0.0021362305,-3.203125,1.96875,-0.90625
225,-0.26464844,-0.9793091,0.0138549805,-2.5625,3.078125,-0.765625
226,-0.27124023,-0.9746704,0.0138549805,-2.5625,2.5,0.203125
227,-0.25830078,-0.9824829,0.0040893555,-2.40625,3.640625,0.46875
228,-0.2644043,-0.975647,0.029724121,-1.578125,2.828125,0.796875
229,-0.2607422,-0.99053955,0.00091552734,-2.359375,4.609375,1.0
230,-0.25952148,-0.9841919,0.028015137,-2.828125,3.796875,0.71875
231,-0.24731445,-0.97198486,0.02508545,-1.953125,5.25,0.84375
232,-0.2746582,-0.9907837,0.03314209,-1.90625,4.03125,1.4375
233,-0.26049805,-0.9841919,0.026550293,-1.8125,4.390625,0.078125
234,-0.25830078,-0.97125244,0.03265381,-1.015625,4.328125,-0.546875
235,-0.25683594,-0.973938,0.02532959,-0.71875,3.078125,-0.5625
236,-0.25561523,-0.97320557,0.04876709,0.5,2.265625,-0.203125
237,-0.2644043,-0.9829712,0.032409668,0.65625,1.265625,0.390625
238,-0.2644043,-0.99468994,0.018005371,1.390625,-0.3125,0.203125
239,-0.27685547,-0.98883057,0.039245605,-2.125,2.96875,-0.328125
240,-0.27856445,-0.96881104,-0.070373535,1.578125,2.6875,-1.375
241,-0.10131836,-0.8086548,0.12005615,5.515625,-3.28125,-0.046875
242,-0.42285156,-1.1519165,0.074645996,7.9375,-1.953125,4.1875
243,-0.24829102,-0.99176025,0.05609131,4.921875,6.8125,4.578125
244,-0.22290039,-0.88238525,-0.014953613,5.265625,-0.203125,4.40625
245,-0.25268555,-0.95391846,-0.0071411133,1.28125,-4.859375,1.28125
246,-0.2824707,-1.0327759,0.011413574,1.15625,-8.375,-0.625
247,-0.26708984,-1.0044556,-0.009094238,-1.4375,-3.84375,-1.890625
248,-0.24072266,-0.9729614,-0.0017700195,-0.9375,0.1875,-3.03125
249,-0.24584961,-0.9976196,-0.0154418945,-1.515625,0.890625,-0.953125
250,-0.27563477,-0.98394775,0.005554199,-0.3125,0.234375,-0.703125
251,-0.2524414,-0.9817505,-0.015686035,-1.375,1.640625,-1.5
252,-0.2536621,-0.98394775,-0.003479004,-1.171875,0.984375,-1.296875
253,-0.26245117,-0.9871216,0.003112793,-0.296875,0.25,-1.1875
254,-0.25708008,-0.9780884,0.0045776367,-0.75,0.3125,-1.59375
255,-0.26245117,-0.9800415,0.006286621,-1.390625,0.546875,-0.828125
256,-0.26782227,-0.9812622,-0.0005493164,-1.390625,0.75,-1.0
257,-0.26879883,-0.98028564,0.003112793,-1.3125,0.78125,-0.859375
258,-0.25683594,-0.9812622,0.0065307617,-1.296875,1.40625,-0.59375
259,-0.27075195,-0.97735596,0.010437012,-1.5,1.859375,-0.359375
260,-0.26782227,-0.9859009,0.009460449,-2.09375,1.78125,-0.40625
261,-0.25634766,-0.98394775,0.017028809,-2.125,2.078125,-0.390625
262,-0.2668457,-0.9776001,0.014099121,-2.53125,1.578125,0.390625
263,-0.265625,-0.9805298,0.02166748,-2.671875,1.375,0.453125
264,-0.2734375,-0.9932251,0.023620605,-2.296875,1.390625,1.15625
265,-0.26904297,-0.97491455,0.019714355,-2.203125,2.234375,0.984375
266,-0.26293945,-0.97979736,0.026062012,-2.3125,2.203125,1.046875
267,-0.2734375,-0.973938,0.031188965,-2.28125,2.578125,0.890625
268,-0.2602539,-0.9751587,0.03338623,-1.703125,1.921875,0.875
269,-0.2607422,-0.9795532,0.023864746,-1.109375,2.28125,0.546875
270,-0.26000977,-0.98028564,0.030456543,-0.71875,2.515625,0.71875
271,-0.26733398,-0.9837036,0.031921387,-0.21875,1.296875,0.625
272,-0.25634766,-0.97125244,0.0524292,1.015625,1.203125,0.640625
273,-0.25463867,-0.9793091,0.0033569336,-0.28125,2.96875,0.671875
274,-0.26733398,-0.9963989,0.043640137,1.328125,6.796875,-0.5625
275,-0.24804688,-0.9680786,0.04046631,0.484375,4.21875,1.046875
276,-0.25634766,-0.9829712,0.024841309,4.140625,1.46875,1.234375
277,-0.27978516,-0.99176025,0.0211792,2.25,1.671875,1.421875
278,-0.25561523,-0.99468994,0.0053100586,0.265625,3.609375,1.125
279,-0.2993164,-0.9734497,-0.035217285,0.421875,5.296875,-0.640625
280,-0.12231445,-0.9031372,0.06951904,3.125,-0.015625,-0.828125
281,-0.34765625,-1.0784302,0.04071045,3.8125,-2.796875,2.703125
282,-0.22851562,-0.9673462,0.03265381,2.78125,0.03125,1.15625
283,-0.23242188,-0.9336548,-0.027404785,4.90625,-3.234375,2.265625
284,-0.22998047,-0.9668579,-0.0115356445,2.890625,-7.8125,0.0625
285,-0.29174805,-1.008606,0.008483887,-0.28125,-9.21875,-0.53125
286,-0.2770996,-1.0220337,-0.0071411133,-1.921875,-4.265625,-0.796875
287,-0.24169922,-0.98760986,-0.01373291,-0.828125,-1.046875,-1.59375
288,-0.24291992,-0.973938,-0.012268066,-0.53125,-0.0625,-0.5625
289,-0.25683594,-0.9841919,-0.01373291,-1.015625,0.203125,-0.234375
290,-0.2565918,-0.9866333,-0.0037231445,-1.09375,0.265625,-0.53125
291,-0.24829102,-0.98565674,-0.010803223,-1.21875,1.078125,-0.484375
292,-0.25756836,-0.9771118,0.00018310547,-1.390625,0.828125,-0.34375
293,-0.26342773,-0.9944458,-0.004211426,-2.078125,1.53125,-0.25
294,-0.25805664,-0.9763794,0.014343262,-0.796875,1.03125,-0.078125
295,-0.25610352,-0.9805298,-0.025939941,-1.859375,1.859375,-0.125
296,-0.2602539,-0.9776001,0.0016479492,-1.984375,2.28125,0.265625
297,-0.26513672,-0.98809814,0.005554199,-1.21875,1.984375,0.234375
298,-0.24853516,-0.9871216,0.012145996,-1.984375,2.796875,0.25
299,-0.2536621,-0.9800415,-6.1035156e-05,-2.0,2.046875,0.5
300,-0.2565918,-0.9812622,0.0016479492,-1.78125,2.3125,0.796875
301,-0.25585938,-0.99102783,0.012878418,-2.078125,2.359375,0.953125
302,-0.24853516,-0.98150635,0.01727295,-2.515625,3.078125,0.625
303,-0.2524414,-0.9859009,0.014831543,-2.265625,2.65625,0.59375
304,-0.2553711,-0.99005127,0.02557373,-2.421875,1.984375,0.875
305,-0.25073242,-0.98931885,0.028259277,-2.046875,2.96875,0.671875
306,-0.26171875,-0.986145,0.04168701,-1.53125,1.5625,0.21875
307,-0.26123047,-0.99420166,0.0289917,0.421875,0.75,0.15625
308,-0.25805664,-0.99102783,0.04119873,1.171875,-1.0,1.296875
309,-0.27172852,-0.99664307,0.008972168,1.203125,-3.0625,1.53125
310,-0.35351562,-1.0078735,-0.1026001,-3.78125,-18.734375,-3.203125
311,-0.076171875,-0.87628174,0.0680542,2.828125,18.265625,-2.25
312,-0.0793457,-0.9612427,0.03704834,5.578125,-9.34375,-1.265625
313,-0.35424805,-1.0999146,0.04949951,-0.578125,2.21875,5.421875
314,-0.18017578,-0.9295044,-0.00982666,0.65625,3.359375,3.109375
315,-0.24926758,-0.90289307,-0.007385254,-2.546875,-0.875,-0.53125
316,-0.30566406,-1.0039673,0.0028686523,-3.21875,-3.875,-1.90625
317,-0.32348633,-1.0767212,0.043640137,-3.796875,-5.984375,-3.1875
318,-0.26879883,-0.9505005,0.008972168,-3.640625,-0.765625,-3.75
319,-0.24609375,-0.9348755,0.0099487305,-2.453125,-1.671875,-2.8125
320,-0.2607422,-0.99542236,0.0119018555,-0.109375,-1.28125,-2.296875
321,-0.2590332,-0.973938,0.00579834,-0.15625,1.109375,-1.59375
322,-0.26000977,-0.9812622,0.016296387,0.234375,0.671875,-0.671875
323,-0.26708984,-0.9944458,0.014831543,0.515625,0.515625,-0.28125
324,-0.27954102,-0.9841919,0.018005371,0.125,0.59375,-0.296875
325,-0.2680664,-0.987854,0.02166748,0.140625,0.984375,0.3125
326,-0.27514648,-0.9837036,0.020690918,-0.046875,1.484375,0.859375
327,-0.2734375,-0.98101807,0.018005371,-0.28125,1.46875,0.953125
328,-0.27734375,-0.9807739,0.020446777,-1.109375,2.625,1.28125
329,-0.27685547,-0.98150635,0.014587402,-1.59375,2.6875,1.0
330,-0.27416992,-0.98687744,0.024108887,-1.71875,3.609375,0.59375
331,-0.26489258,-0.98272705,0.024353027,-2.03125,3.40625,1.484375
332,-0.26513672,-0.9817505,0.02947998,-1.203125,3.390625,0.84375
333,-0.25561523,-0.98223877,0.030944824,-1.734375,3.390625,1.640625
334,-0.2590332,-0.98101807,0.034362793,-1.578125,3.078125,1.234375
335,-0.2578125,-0.9805298,0.028503418,-1.484375,2.65625,1.03125
336,-0.2553711,-0.9783325,0.035827637,-1.328125,3.359375,0.890625
337,-0.26245117,-0.986145,0.051696777,-1.296875,2.796875,1.59375
338,-0.25708008,-0.98223877,0.020935059,-2.25,4.046875,0.65625
339,-0.25073242,-0.98565674,0.039733887,-1.40625,2.765625,1.234375
340,-0.23022461,-0.9854126,0.040222168,-0.171875,4.4375,2.71875
341,-0.26049805,-0.99102783,0.050476074,0.765625,2.328125,2.453125
342,-0.24731445,-0.9800415,0.034362793,1.46875,2.40625,2.25
343,-0.24194336,-0.98028564,0.028015137,4.84375,-1.640625,2.28125
344,-0.21899414,-0.9812622,-0.027648926,8.0625,-3.0625,4.109375
345,-0.23242188,-0.9898071,0.005065918,4.921875,2.625,2.453125
346,-0.234375,-0.9702759,-0.1416626,2.1875,2.015625,-1.65625
347,-0.07739258,-0.8345337,0.09613037,0.15625,7.546875,-2.921875
348,-0.26123047,-1.06427,0.027282715,5.78125,-10.09375,-0.046875
349,-0.32739258,-1.0994263,0.028747559,1.09375,2.71875,2.78125
350,-0.2084961,-0.92315674,0.03265381,0.6875,4.40625,2.46875
351,-0.2434082,-0.89190674,-0.011779785,5.21875,-4.203125,0.234375
352,-0.3244629,-1.0718384,-0.010314941,4.421875,-6.875,0.921875
353,-0.24438477,-1.0093384,-0.009094238,3.375,-3.6875,0.734375
354,-0.23925781,-0.94976807,-0.04058838,1.78125,-1.65625,0.296875
355,-0.20825195,-1.000061,-0.031066895,0.703125,1.84375,0.421875
356,-0.2211914,-1.0066528,-0.024230957,0.46875,1.703125,0.453125
357,-0.23144531,-0.98760986,-0.039367676,-1.109375,2.4375,0.109375
358,-0.22070312,-0.98516846,-0.02960205,-1.859375,1.953125,-0.640625
359,-0.23217773,-0.9961548,-0.02520752,-2.25,1.53125,-0.90625
360,-0.22924805,-0.9788208,-0.0010375977,-1.375,0.390625,-1.171875
361,-0.24291992,-0.9883423,-0.034973145,-2.796875,1.28125,-0.6875
362,-0.22949219,-0.9793091,-0.016662598,-2.4375,1.609375,-1.125
363,-0.25,-0.986145,-0.011047363,-2.9375,1.890625,-0.484375
364,-0.23339844,-0.98321533,-0.0015258789,-4.015625,2.109375,-0.796875
365,-0.23730469,-0.9859009,-0.0071411133,-3.796875,1.921875,-0.484375
366,-0.23486328,-0.9890747,-0.0056762695,-2.71875,2.171875,-0.90625
367,-0.23706055,-0.98931885,-0.008117676,-1.515625,0.859375,-0.109375
368,-0.23925781,-0.97784424,-0.0056762695,-0.359375,1.640625,0.453125
369,-0.23779297,-0.9776001,0.005065918,-0.015625,2.15625,0.296875
370,-0.25097656,-0.9927368,0.007019043,-0.640625,1.375,1.0
371,-0.24560547,-0.99102783,0.0036010742,-0.375,1.734375,0.703125
372,-0.23486328,-0.9824829,-0.0012817383,-0.03125,2.0,0.5
373,-0.23095703,-0.9793091,0.007751465,-0.375,1.859375,0.484375
374,-0.24707031,-0.97613525,-6.1035156e-05,0.4375,-0.09375,0.296875
375,-0.24389648,-0.98028564,0.0045776367,2.09375,-1.984375,0.703125
376,-0.22851562,-1.0056763,-0.026916504,3.890625,-2.375,-0.984375
377,-0.22753906,-0.9729614,-0.022766113,3.796875,-3.59375,-1.5
378,-0.2199707,-0.97979736,-0.049865723,1.046875,9.625,-0.109375
379,-0.22363281,-0.96588135,-0.022033691,0.46875,10.765625,-0.859375
380,-0.3317871,-0.96099854,-0.09893799,4.921875,0.1875,-0.28125
381,-0.016113281,-0.81622314,0.023864746,4.484375,9.21875,2.15625
382,-0.31713867,-1.1199341,0.0119018555,7.140625,-6.984375,8.328125
383,-0.23754883,-1.0056763,-0.018859863,2.875,0.90625,5.4375
384,-0.22729492,-0.93463135,-0.010070801,4.65625,-6.875,4.40625
385,-0.2368164,-0.99884033,-0.078186035,3.203125,-10.765625,3.359375
386,-0.21777344,-1.0144653,-0.06866455,2.5625,-10.78125,-0.703125
387,-0.21826172,-0.9807739,-0.06793213,1.28125,-7.703125,-1.046875
388,-0.20263672,-0.99005127,-0.070373535,-0.15625,-3.6875,-2.015625
389,-0.21875,-1.0005493,-0.06939697,-0.828125,-0.859375,-2.328125
390,-0.22021484,-0.9866333,-0.06915283,-1.140625,1.390625,-2.640625
391,-0.21435547,-0.98101807,-0.06109619,-1.9375,1.78125,-1.671875
392,-0.23120117,-0.98272705,-0.05670166,-2.359375,0.828125,-2.21875
393,-0.22827148,-0.9871216,-0.06329346,-3.03125,1.921875,-2.1875
394,-0.2253418,-0.98516846,-0.04888916,-3.484375,2.6875,-2.171875
395,-0.23046875,-0.9885864,-0.046447754,-4.34375,2.59375,-2.59375
396,-0.25170898,-0.975647,-0.047424316,-4.515625,1.75,-2.765625
397,-0.2397461,-0.9824829,-0.043762207,-3.84375,2.515625,-2.875
398,-0.22998047,-0.9898071,-0.042297363,-3.640625,3.640625,-2.359375
399,-0.23779297,-0.9763794,-0.03717041,-3.421875,3.1875,-1.875
400,-0.23071289,-0.9800415,-0.034729004,-3.390625,3.6875,-1.578125
401,-0.24121094,-0.9793091,-0.0154418945,-3.125,3.421875,-2.03125
402,-0.2529297,-0.9849243,-0.031799316,-3.9375,3.640625,-2.140625
403,-0.25219727,-0.9673462,-0.00030517578,-3.625,2.15625,-2.09375
404,-0.26586914,-0.9710083,-0.02545166,-3.3125,2.78125,-1.625
405,-0.28881836,-0.98272705,0.00970459,-1.53125,1.453125,-0.765625
406,-0.2854004,-0.98516846,-0.005432129,-0.484375,3.4375,-0.46875
407,-0.25146484,-0.96221924,-0.0005493164,0.03125,1.90625,-0.203125
408,-0.2619629,-0.9834595,-0.010803223,0.9375,0.640625,0.78125
409,-0.24975586,-0.9961548,-0.017150879,1.015625,1.484375,0.96875
410,-0.24926758,-0.9751587,-0.018615723,2.5625,0.234375,1.15625
411,-0.23486328,-0.96954346,-0.014465332,3.0,0.21875,1.78125
412,-0.25170898,-0.9949341,-0.02911377,-3.265625,8.203125,1.1875
413,-0.21240234,-0.98223877,-0.043518066,-9.078125,6.234375,-3.453125
414,-0.32666016,-0.93927,-0.12750244,1.09375,0.734375,0.015625
415,-0.07739258,-0.87457275,0.10321045,3.59375,-1.84375,-1.4375
416,-0.39892578,-1.144104,0.043395996,2.828125,1.375,4.53125
417,-0.25927734,-0.9817505,0.023864746,1.390625,5.75,4.875
418,-0.21875,-0.89312744,-0.019592285,5.0625,-1.4375,3.890625
419,-0.28076172,-0.9920044,-0.029846191,6.203125,-4.203125,3.3125
420,-0.27319336,-1.0332642,-0.0071411133,1.5,-7.03125,1.40625
421,-0.2487793,-0.9859009,-0.031799316,-0.515625,-5.046875,-0.21875
422,-0.22167969,-0.975647,-0.030334473,0.25,-3.203125,-1.46875
423,-0.22583008,-0.99005127,-0.050354004,0.0,-0.984375,-1.75
424,-0.25195312,-0.98394775,-0.035461426,-0.96875,-0.703125,-0.65625
425,-0.23852539,-0.97784424,-0.04083252,-1.109375,1.421875,-2.0625
426,-0.2578125,-0.9885864,-0.02520752,-1.96875,0.71875,-1.71875
427,-0.25317383,-0.99468994,-0.021057129,-2.96875,1.421875,-2.046875
428,-0.24731445,-0.9819946,-0.031799316,-3.03125,0.984375,-2.140625
429,-0.24853516,-0.9859009,-0.024719238,-3.078125,0.671875,-1.65625
430,-0.25708008,-0.97857666,-0.018371582,-3.25,1.28125,-1.65625
431,-0.2529297,-0.98028564,-0.017150879,-3.671875,2.203125,-1.875
432,-0.25708008,-0.9751587,-0.0025024414,-4.078125,1.953125,-0.984375
433,-0.26782227,-0.9793091,0.0072631836,-4.703125,2.125,-0.421875
434,-0.27416992,-0.9710083,-0.0064086914,-4.15625,2.96875,-0.1875
435,-0.2915039,-0.9819946,0.028259277,-4.609375,3.5625,1.296875
436,-0.2902832,-0.9973755,0.018737793,-4.6875,3.921875,1.75
437,-0.2619629,-0.97735596,0.024353027,-3.28125,4.453125,2.359375
438,-0.2578125,-0.9776001,0.030700684,-3.953125,3.71875,2.234375
439,-0.24194336,-0.989563,0.030944824,-2.734375,3.59375,1.703125
440,-0.24047852,-0.97320557,0.031433105,-1.796875,1.96875,1.421875
441,-0.23803711,-0.975647,0.028015137,-1.53125,1.28125,1.625
442,-0.23168945,-0.9961548,0.027526855,-1.296875,0.203125,1.5625
443,-0.24047852,-0.9788208,0.02923584,-0.5625,0.015625,1.59375
444,-0.24365234,-0.97320557,0.03704834,1.265625,-1.484375,1.875
445,-0.23022461,-0.9871216,0.0067749023,3.109375,-1.640625,2.84375
446,-0.21728516,-0.9590454,0.01751709,4.53125,-2.296875,3.859375
447,-0.23291016,-0.9800415,0.011169434,4.71875,-1.359375,3.3125
448,-0.21826172,-0.9680786,0.058044434,-0.046875,-5.328125,0.875
449,-0.35375977,-1.0481567,-0.12750244,5.359375,-0.34375,-3.140625
450,-0.08520508,-0.82232666,0.1071167,4.4375,1.828125,-1.453125
451,-0.35302734,-1.0789185,0.04925537,5.4375,-3.625,2.34375
452,-0.21923828,-1.0422974,0.00091552734,2.859375,7.375,0.09375
453,-0.2043457,-0.9260864,-0.008361816,3.53125,3.390625,0.8125
454,-0.25146484,-0.9729614,-0.0095825195,0.953125,-2.9375,0.15625
455,-0.28222656,-1.0220337,0.008483887,-1.296875,-4.859375,-1.296875
456,-0.23266602,-1.0090942,-0.012268066,-1.828125,-3.4375,-2.78125
457,-0.24780273,-0.98809814,-0.020568848,-1.375,-2.359375,-3.515625
458,-0.23461914,-0.986145,-0.019592285,-2.1875,0.375,-2.78125
459,-0.24707031,-0.9902954,-0.016418457,-2.046875,1.3125,-1.953125
460,-0.24560547,-0.98028564,-0.009338379,-2.1875,1.625,-1.640625
461,-0.25708008,-0.9795532,-0.011779785,-2.734375,1.296875,-1.28125
462,-0.2524414,-0.97735596,-0.0022583008,-2.53125,1.203125,-1.59375
463,-0.25683594,-0.98321533,-0.008117676,-2.875,1.421875,-1.796875
464,-0.25732422,-0.97735596,0.007019043,-1.953125,0.375,-0.90625
465,-0.265625,-0.9690552,-0.012268066,-1.609375,1.546875,-1.609375
466,-0.26782227,-0.97979736,0.0014038086,-1.109375,1.390625,-1.109375
467,-0.26757812,-0.98516846,0.015319824,-0.9375,1.828125,-0.328125
468,-0.27172852,-0.9783325,0.013366699,-1.09375,2.046875,-0.5
469,-0.27392578,-0.98516846,0.019958496,-1.3125,2.09375,0.484375
470,-0.26342773,-0.9800415,0.011657715,-2.03125,2.5,0.265625
471,-0.26782227,-0.9883423,0.012145996,-2.25,2.21875,0.828125
472,-0.26635742,-0.97857666,0.011657715,-1.203125,2.359375,1.140625
473,-0.28027344,-0.98809814,0.022155762,-1.546875,3.265625,1.640625
474,-0.26953125,-0.98809814,0.013122559,-1.5,2.890625,2.09375
475,-0.25634766,-0.96466064,0.022155762,-0.984375,3.46875,2.21875
476,-0.2548828,-0.9898071,0.030700684,-0.5,3.640625,2.59375
477,-0.25830078,-0.98931885,0.027282715,0.625,3.1875,3.1875
478,-0.2253418,-0.9729614,0.008728027,1.796875,5.015625,3.71875
479,-0.18530273,-0.96221924,-0.02935791,2.640625,4.4375,6.3125
480,-0.23022461,-1.0090942,0.024353027,4.734375,2.625,2.859375
481,-0.3696289,-0.9990845,-0.11578369,6.28125,-10.15625,-4.734375
482,-0.080566406,-0.784729,0.08880615,1.65625,8.125,-3.8125
483,-0.30029297,-1.0825806,0.070739746,4.46875,-3.203125,2.21875
484,-0.2607422,-1.0752563,-0.0056762695,0.671875,6.6875,4.4375
485,-0.18066406,-0.93634033,-0.0154418945,2.03125,1.390625,2.984375
486,-0.21508789,-0.91412354,-0.031555176,0.921875,-1.71875,2.03125
487,-0.2680664,-1.060852,-0.02935791,2.421875,-8.1875,-0.40625
488,-0.24926758,-1.0015259,0.0021362305,-0.640625,-5.65625,-1.71875
489,-0.22827148,-0.9673462,-0.0256958,-1.96875,-3.109375,-2.890625
490,-0.22924805,-0.99346924,-0.028137207,-1.5,-0.65625,-1.984375
491,-0.24511719,-0.9885864,-0.018615723,-0.53125,0.34375,-1.75
492,-0.2421875,-0.98272705,-0.02178955,-1.65625,0.953125,-1.203125
493,-0.23168945,-0.9924927,-0.019348145,-1.875,0.40625,-1.609375
494,-0.2434082,-0.9866333,-0.020324707,-1.5,0.484375,-1.390625
495,-0.24829102,-0.98394775,-0.0068969727,-2.03125,0.4375,-1.46875
496,-0.2446289,-0.98394775,-0.007873535,-2.34375,1.484375,-1.59375
497,-0.24609375,-0.9780884,-0.015197754,-2.4375,1.1875,-1.890625
498,-0.2607422,-0.9859009,0.00091552734,-2.8125,2.046875,-1.90625
499,-0.25878906,-0.9841919,-6.1035156e-05,-3.140625,1.859375,-1.609375
500,-0.2607422,-0.99224854,0.005554199,-2.4375,2.109375,-0.859375
501,-0.25878906,-0.98516846,0.008483887,-2.84375,2.546875,-0.34375
502,-0.26220703,-0.97442627,0.002380371,-3.015625,2.5625,0.015625
503,-0.25952148,-0.9829712,0.020202637,-3.25,2.84375,-0.03125
504,-0.27075195,-0.98321533,0.023864746,-2.75,1.828125,0.375
505,-0.2553711,-0.9649048,0.023864746,-1.140625,1.921875,0.015625
506,-0.2541504,-0.9776001,0.015563965,-2.25,2.34375,0.65625
507,-0.25317383,-0.98150635,0.027770996,-1.6875,2.703125,0.53125
508,-0.26489258,-0.98272705,0.028259277,-1.546875,2.71875,0.625
509,-0.24267578,-0.97857666,0.024841309,-1.203125,2.609375,-0.0625
510,-0.2631836,-0.97662354,0.02532959,-0.53125,2.53125,0.125
511,-0.25390625,-0.98516846,0.0368042,-0.78125,2.140625,-0.171875
512,-0.2590332,-0.9834595,0.035095215,-0.640625,0.8125,0.515625
513,-0.26416016,-0.9768677,0.026794434,-0.125,1.71875,0.265625
514,-0.26245117,-0.97369385,0.026550293,0.8125,1.140625,0.21875
515,-0.26586914,-0.9751587,0.03363037,2.46875,0.4375,0.78125
516,-0.27783203,-0.9956665,0.03265381,3.75,0.75,1.328125
517,-0.27685547,-1.0130005,0.003112793,6.96875,-3.046875,-0.671875
518,-0.24145508,-0.98760986,-0.009338379,2.125,3.171875,-2.90625
519,-0.21557617,-0.954895,-0.0791626,-2.296875,7.15625,-1.890625
520,-0.27148438,-0.9224243,0.002380371,7.859375,9.65625,-4.75
521,-0.123291016,-0.8921509,0.06903076,10.28125,-5.515625,3.21875
522,-0.36547852,-1.1463013,0.034362793,6.421875,2.921875,9.609375
523,-0.24731445,-0.9644165,0.026062012,1.609375,4.703125,5.4375
524,-0.22973633,-0.90411377,-0.04107666,2.609375,-0.84375,2.609375
525,-0.30078125,-0.98101807,-0.04522705,2.03125,-7.5,0.9375
526,-0.28637695,-1.0745239,-0.013000488,2.71875,-10.109375,-2.390625
527,-0.27001953,-0.9763794,-0.046447754,-0.46875,-4.125,-1.6875
528,-0.23583984,-0.95928955,-0.046936035,0.734375,-2.59375,-3.234375
529,-0.23901367,-1.0081177,-0.04083252,-0.5,0.375,-3.28125
530,-0.24438477,-0.97784424,-0.04107666,-0.625,1.0,-3.28125
531,-0.25268555,-0.97857666,-0.03668213,-1.765625,0.703125,-2.921875
532,-0.2692871,-0.99420166,-0.034729004,-2.03125,0.9375,-2.765625
533,-0.2607422,-0.9871216,-0.026916504,-2.890625,0.328125,-2.265625
534,-0.26757812,-0.97979736,-0.029846191,-2.9375,0.1875,-1.046875
535,-0.27294922,-0.97906494,-0.038879395,-3.109375,0.78125,-1.125
536,-0.27075195,-0.97247314,-0.0154418945,-2.796875,0.421875,-0.53125
537,-0.27514648,-0.9805298,-0.022766113,-3.234375,1.09375,0.1875
538,-0.27661133,-0.9829712,0.001159668,-4.109375,1.828125,0.21875
539,-0.28588867,-0.9788208,0.0045776367,-5.53125,1.53125,0.25
540,-0.28588867,-0.986145,-0.007873535,-4.046875,1.5625,-0.046875
541,-0.28442383,-0.96539307,-0.016418457,-2.859375,3.03125,-0.328125
542,-0.26953125,-0.96710205,0.0036010742,-2.453125,2.484375,0.296875
543,-0.27001953,-0.97320557,0.007019043,-2.28125,2.671875,0.421875
544,-0.2775879,-0.97052,-0.00030517578,-1.359375,3.21875,0.359375
545,-0.26879883,-0.9680786,0.0099487305,-1.328125,3.28125,0.140625
546,-0.2770996,-0.9841919,0.009460449,-1.265625,3.34375,0.09375
547,-0.27612305,-0.97491455,0.01751709,-0.5625,2.421875,0.359375
548,-0.27392578,-0.9854126,-0.018615723,-1.125,3.71875,0.296875
549,-0.2709961,-0.9734497,0.020202637,0.875,1.421875,-0.96875
550,-0.25805664,-0.9714966,-0.0044555664,2.109375,1.15625,-1.125
551,-0.26220703,-0.99102783,-0.019348145,3.5,-1.828125,-0.296875
552,-0.30371094,-0.9944458,0.030700684,-1.578125,-2.40625,-4.125
553,-0.30395508,-1.0073853,-0.15093994,-4.796875,11.171875,-7.046875
554,-0.14355469,-0.8196411,0.11810303,0.09375,6.9375,-3.21875
555,-0.34448242,-1.0471802,0.04925537,4.21875,-3.546875,-0.828125
556,-0.36132812,-1.0117798,0.030456543,1.484375,2.9375,3.5
557,-0.2668457,-0.9536743,0.0040893555,5.859375,3.375,4.09375
558,-0.28149414,-0.9378052,-0.02130127,3.84375,-0.40625,3.40625
559,-0.30126953,-0.99884033,-0.00592041,2.375,-4.90625,0.859375
560,-0.2956543,-0.9898071,-0.008117676,0.0625,-3.875,1.6875
561,-0.27392578,-0.97076416,-0.022766113,0.53125,-1.46875,0.515625
562,-0.27075195,-0.98028564,-0.023742676,0.359375,-0.25,1.609375
563,-0.28637695,-0.98565674,-0.022766113,0.28125,-0.5625,0.671875
564,-0.28027344,-0.9841919,-0.007873535,-0.953125,-0.03125,0.359375
565,-0.2849121,-0.98443604,-0.02130127,-1.859375,-0.1875,0.453125
566,-0.2783203,-0.97540283,-0.007873535,-1.875,0.203125,0.234375
567,-0.27172852,-0.98223877,-0.015197754,-3.3125,1.46875,0.25
568,-0.28833008,-0.98150635,0.0033569336,-4.65625,0.03125,0.90625
569,-0.26953125,-0.9668579,-0.019348145,-3.65625,2.109375,0.421875
570,-0.2998047,-0.97369385,0.010925293,-2.828125,1.421875,0.65625
571,-0.2854004,-0.9729614,0.007507324,-1.734375,2.078125,2.078125
572,-0.27490234,-0.97076416,0.010192871,-1.375,2.578125,2.125
573,-0.26904297,-0.9763794,0.002380371,-0.6875,2.40625,1.46875
574,-0.27856445,-0.9710083,0.013366699,-0.84375,1.9375,2.09375
575,-0.26586914,-0.9795532,0.00579834,-2.203125,3.03125,0.265625
576,-0.25708008,-0.97613525,0.008972168,-3.203125,2.078125,-0.859375
577,-0.26708984,-0.98638916,0.007507324,-4.359375,2.875,-1.3125
578,-0.23730469,-0.9849243,0.02166748,-3.140625,0.875,-1.734375
579,-0.2705078,-0.9824829,0.008728027,-2.1875,0.921875,-0.484375
580,-0.2722168,-0.9690552,0.018737793,-1.59375,0.90625,-1.046875
581,-0.27124023,-0.9763794,0.0289917,-0.640625,1.359375,-0.84375
582,-0.27661133,-0.97540283,0.026794434,-0.546875,1.71875,-0.4375
583,-0.26782227,-0.97979736,0.026062012,0.0,1.609375,0.015625
584,-0.2685547,-0.96954346,0.018005371,0.640625,1.515625,0.28125
585,-0.27026367,-0.9812622,0.022399902,0.890625,0.59375,0.375
586,-0.26879883,-0.9871216,0.01751709,1.515625,0.328125,-0.03125
587,-0.27954102,-0.9661255,-0.0134887695,1.703125,-3.515625,0.96875
588,-0.30004883,-0.9902954,0.026550293,-2.109375,-2.5625,-1.203125
589,-0.38110352,-1.0278931,-0.12408447,4.734375,1.90625,0.40625
590,-0.009277344,-0.7866821,0.11810303,3.234375,6.59375,-1.828125
591,-0.4099121,-1.0979614,0.053649902,8.171875,-4.125,5.921875
592,-0.23950195,-0.99957275,0.027770996,0.375,9.625,2.125
593,-0.21875,-0.9307251,-0.041809082,2.75,4.0,2.8125
594,-0.23803711,-0.9368286,-0.022766113,0.09375,0.171875,-0.15625
595,-0.31860352,-1.0213013,0.0048217773,0.4375,-8.046875,-1.46875
596,-0.28320312,-1.0256958,0.005554199,0.375,-3.453125,-0.09375
597,-0.27075195,-0.9685669,-0.00982666,0.15625,-2.453125,-1.0
598,-0.2644043,-0.96881104,-0.023742676,0.296875,0.03125,-0.234375
599,-0.25708008,-0.98565674,-0.014709473,0.03125,0.453125,-0.296875
600,-0.2590332,-0.9812622,-0.016906738,-0.453125,0.828125,0.1875
601,-0.26489258,-0.98101807,-0.008117676,-0.71875,0.875,0.265625
602,-0.26123047,-0.97784424,-0.01373291,-1.03125,0.859375,0.109375
603,-0.26708984,-0.9846802,-0.012023926,-1.140625,0.671875,0.046875
604,-0.2607422,-0.96954346,-0.008361816,-1.34375,0.921875,0.3125
605,-0.26757812,-0.98565674,-0.011047363,-1.15625,0.6875,0.296875
606,-0.26782227,-0.9807739,-0.0044555664,-1.625,0.875,0.5
607,-0.2705078,-0.98321533,-6.1035156e-05,-1.96875,2.03125,0.5
608,-0.27905273,-0.9771118,0.010437012,-2.0625,1.671875,0.328125
609,-0.25976562,-0.9793091,-0.007873535,-1.65625,3.328125,0.1875
610,-0.2746582,-0.9854126,0.0067749023,-2.34375,2.96875,1.03125
611,-0.25,-0.97857666,0.005554199,-1.734375,4.84375,0.40625
612,-0.2705078,-0.98101807,0.01776123,-1.4375,3.6875,1.0625
613,-0.2607422,-0.9795532,0.010192871,-1.84375,3.359375,0.765625
614,-0.25341797,-0.98638916,0.011169434,-2.078125,3.0625,0.46875
615,-0.2614746,-0.9805298,0.015808105,-1.640625,2.5625,0.828125
616,-0.2536621,-0.9817505,0.017028809,-1.640625,2.34375,1.28125
617,-0.2529297,-0.97003174,0.015808105,-1.796875,2.671875,0.90625
618,-0.25976562,-0.98443604,0.0138549805,-1.640625,2.140625,1.1875
619,-0.25268555,-0.9805298,0.0211792,-0.921875,2.21875,0.921875
620,-0.24365234,-0.9751587,0.016052246,0.21875,2.453125,0.859375
621,-0.23876953,-0.97369385,0.029968262,2.21875,3.234375,1.671875
622,-0.25219727,-0.9788208,0.012878418,2.984375,1.015625,1.59375
623,-0.2541504,-0.96710205,-0.008361816,4.40625,3.875,1.8125
624,-0.26733398,-0.97906494,0.008239746,1.359375,0.984375,-1.203125
625,-0.31591797,-0.97735596,-0.108947754,3.0625,4.296875,-4.5
626,-0.09277344,-0.8616333,0.08758545,2.109375,2.015625,-2.328125
627,-0.37597656,-1.0969849,0.05316162,5.078125,-1.875,2.484375
628,-0.23242188,-1.0078735,0.0138549805,1.65625,3.078125,0.484375
629,-0.2211914,-0.92315674,-0.029846191,3.609375,-1.015625,0.59375
630,-0.22241211,-0.9451294,-0.0154418945,0.96875,-4.40625,0.328125
631,-0.3083496,-1.0427856,-0.011291504,0.125,-9.625,-0.546875
632,-0.2536621,-0.98809814,-0.019592285,-0.203125,-5.875,-1.484375
633,-0.24804688,-0.9685669,-0.027893066,0.046875,-3.09375,-1.078125
634,-0.25805664,-0.99176025,-0.020568848,-0.203125,-1.421875,-0.546875
635,-0.25732422,-0.9883423,-0.02130127,-0.640625,0.125,-0.59375
636,-0.2614746,-0.9807739,-0.0256958,-1.125,-0.046875,0.0625
637,-0.2578125,-0.98223877,-0.023986816,-1.0625,-0.15625,-0.1875
638,-0.25805664,-0.9800415,-0.021057129,-1.421875,1.171875,-0.28125
639,-0.25708008,-0.97857666,-0.0134887695,-1.53125,0.796875,-0.015625
640,-0.26611328,-0.9846802,-0.009094238,-2.25,1.125,0.40625
641,-0.26098633,-0.98101807,-0.010314941,-2.09375,1.8125,-0.078125
642,-0.2548828,-0.9783325,-0.016418457,-2.609375,1.390625,0.578125
643,-0.26660156,-0.98101807,-0.014465332,-2.796875,1.609375,0.234375
644,-0.25585938,-0.98272705,-0.0056762695,-2.671875,2.375,-0.109375
645,-0.25341797,-0.9727173,-0.0012817383,-2.21875,2.359375,0.125
646,-0.25610352,-0.9837036,-0.0051879883,-2.125,2.25,-0.109375
647,-0.2631836,-0.9783325,-0.00592041,-1.921875,2.265625,0.046875
648,-0.25976562,-0.9768677,0.0040893555,-1.8125,2.328125,-0.078125
649,-0.25732422,-0.97784424,0.0079956055,-1.90625,2.515625,0.1875
650,-0.2590332,-0.9812622,0.015075684,-1.3125,1.859375,0.1875
651,-0.24951172,-0.97662354,-0.0068969727,-2.015625,3.28125,-0.046875
652,-0.25927734,-0.97735596,0.014099121,-2.703125,1.984375,0.359375
653,-0.24438477,-0.9697876,0.012634277,-2.234375,2.71875,0.09375
654,-0.27441406,-0.9824829,0.014099121,-1.234375,0.96875,-0.328125
655,-0.2536621,-0.97662354,0.015075684,-0.640625,1.375,0.015625
656,-0.25634766,-0.9680786,-0.0025024414,0.78125,0.46875,0.546875
657,-0.2512207,-0.97784424,0.0060424805,3.890625,0.25,1.484375
658,-0.2548828,-0.987854,-0.013977051,2.890625,4.671875,1.859375
659,-0.20898438,-1.02594,-0.034240723,0.765625,14.6875,-3.453125
660,-0.3022461,-0.80303955,-0.029846191,3.890625,-5.4375,4.28125
661,-0.19726562,-0.94195557,0.04827881,2.09375,6.9375,-3.046875
662,-0.32714844,-1.1870728,0.061462402,7.90625,-3.453125,3.84375
663,-0.31079102,-0.9846802,0.009216309,4.75,4.28125,2.21875
664,-0.24731445,-0.90167236,-0.03375244,4.0625,-2.34375,2.296875
665,-0.18823242,-0.96295166,-0.0569458,6.015625,-5.796875,3.21875
666,-0.28222656,-1.0410767,-0.026428223,5.578125,-11.34375,2.28125
667,-0.25756836,-0.98809814,-0.04473877,0.953125,-3.8125,1.015625
668,-0.21264648,-0.9837036,-0.04522705,0.390625,-1.90625,-1.046875
669,-0.22314453,-0.9902954,-0.046936035,-0.59375,-0.90625,0.0
670,-0.25048828,-0.98809814,-0.03692627,-0.5625,-0.328125,-0.15625
671,-0.24975586,-0.9780884,-0.038391113,-0.328125,-0.265625,0.0
672,-0.24169922,-0.97613525,-0.058166504,-0.5,0.765625,-1.25
673,-0.24121094,-0.97052,-0.027404785,-1.84375,-0.078125,-0.125
674,-0.22802734,-0.97247314,-0.04864502,-0.984375,1.03125,-0.90625
675,-0.25634766,-0.97540283,-0.03692627,-0.84375,0.421875,-0.53125
676,-0.24389648,-0.9751587,-0.02520752,-1.34375,1.125,-1.140625
677,-0.2548828,-0.9817505,-0.046203613,-1.9375,1.140625,-0.890625
678,-0.24047852,-0.9849243,-0.029846191,-2.3125,1.203125,-0.671875
679,-0.25708008,-0.98101807,-0.035705566,-1.40625,0.4375,-0.40625
680,-0.2409668,-0.97442627,-0.03692627,-1.90625,1.640625,-0.578125
681,-0.25195312,-0.9817505,-0.029846191,-1.65625,1.046875,-0.0625
682,-0.2524414,-0.9873657,-0.02545166,-1.53125,1.1875,-0.28125
683,-0.2524414,-0.97784424,-0.027648926,-1.4375,1.1875,-0.46875
684,-0.2590332,-0.9800415,-0.022033691,-2.171875,2.359375,-0.34375
685,-0.2524414,-0.97857666,-0.02154541,-2.59375,2.625,-0.515625
686,-0.2512207,-0.975647,-0.016418457,-2.265625,3.078125,0.0
687,-0.25170898,-0.9837036,-0.014709473,-2.59375,2.953125,0.359375
688,-0.24707031,-0.96588135,-0.015197754,-1.640625,2.65625,-0.03125
689,-0.2553711,-0.98272705,-0.012268066,-1.609375,2.015625,1.078125
690,-0.25390625,-0.9846802,-0.007385254,-1.0,2.40625,0.765625
691,-0.24511719,-0.96832275,-0.019836426,-0.5625,2.65625,0.4375
692,-0.24951172,-0.9692993,-0.01373291,2.8125,-1.328125,-0.28125
693,-0.26904297,-0.9927368,0.002380371,1.3125,5.34375,-1.984375
694,-0.2770996,-0.9800415,-0.12677002,-3.515625,8.421875,-3.09375
695,-0.14624023,-0.8569946,0.062927246,2.828125,6.5,-1.390625
696,-0.2512207,-1.046936,-0.0049438477,6.21875,-5.703125,-1.15625
697,-0.3305664,-1.0715942,0.019714355,2.9375,0.28125,1.296875
698,-0.19702148,-0.9126587,-0.041809082,2.046875,0.125,-0.859375
699,-0.2199707,-0.91778564,-0.05230713,3.734375,-3.265625,-0.640625
700,-0.30859375,-1.0291138,-0.03277588,2.796875,-9.40625,-2.0
701,-0.28076172,-0.9849243,-0.035217285,0.5,-4.0625,-1.15625
702,-0.27270508,-0.9649048,-0.046691895,0.0,-2.46875,-1.25
703,-0.27734375,-0.9859009,-0.042541504,0.015625,-0.15625,-0.671875
704,-0.2746582,-0.986145,-0.055480957,0.234375,0.59375,-0.0625
705,-0.27661133,-0.9768677,-0.05206299,-0.625,0.734375,0.546875
706,-0.25708008,-0.98443604,-0.051574707,-1.09375,1.3125,0.53125
707,-0.26000977,-0.9780884,-0.043518066,-1.3125,1.234375,0.453125
708,-0.26513672,-0.9727173,-0.051330566,-1.828125,1.109375,0.578125
709,-0.26416016,-0.9783325,-0.046203613,-1.78125,1.546875,0.03125
710,-0.2631836,-0.9768677,-0.038635254,-1.71875,1.78125,0.21875
711,-0.26513672,-0.9644165,-0.042297363,-1.765625,1.546875,0.34375
712,-0.2722168,-0.972229,-0.025939941,-1.390625,1.25,0.09375
713,-0.25830078,-0.97369385,-0.046936035,-2.046875,2.8125,-0.46875
714,-0.27148438,-0.9824829,-0.018127441,-3.484375,1.90625,0.28125
715,-0.2705078,-0.96881104,-0.03741455,-3.25,2.46875,-0.53125
716,-0.28588867,-0.9741821,-0.019592285,-4.140625,3.03125,-0.109375
717,-0.26953125,-0.98883057,-0.006652832,-4.25,2.515625,-0.46875
718,-0.2541504,-0.9702759,-0.017150879,-2.640625,2.640625,0.109375
719,-0.27270508,-0.972229,-0.0134887695,-2.40625,1.453125,0.671875
720,-0.2697754,-0.9807739,0.0004272461,-2.046875,1.5,0.78125
721,-0.27563477,-0.991272,-0.003967285,-2.421875,0.984375,0.9375
722,-0.2705078,-0.9780884,0.0018920898,-1.984375,1.0,1.296875
723,-0.2783203,-0.9734497,0.0045776367,-1.984375,1.03125,1.703125
724,-0.26049805,-0.9758911,0.009460449,-1.25,1.578125,1.703125
725,-0.2705078,-0.9685669,0.0014038086,-0.140625,1.015625,2.453125
726,-0.25732422,-0.9680786,0.00018310547,1.40625,0.65625,3.140625
727,-0.24169922,-0.989563,-0.0022583008,1.734375,2.1875,3.71875
728,-0.24584961,-0.9673462,-0.01763916,3.15625,-0.171875,2.421875
729,-0.24145508,-0.9780884,-0.02520752,1.421875,1.78125,1.5625
730,-0.24926758,-0.98101807,-0.027648926,0.875,5.5,0.875
731,-0.24633789,-0.98321533,-0.015197754,-0.859375,3.0625,0.8125
732,-0.30859375,-0.99298096,-0.0022583008,16.65625,13.640625,2.59375
733,-0.11791992,-0.9824829,0.0016479492,13.140625,-2.84375,5.546875
734,-0.31201172,-1.0247192,-0.012268066,5.03125,2.59375,6.453125
735,-0.14624023,-0.94317627,-0.05718994,-3.140625,0.234375,-0.84375
736,-0.2487793,-0.96539307,-0.049621582,1.46875,-4.75,0.03125
737,-0.23535156,-0.9927368,-0.08843994,1.28125,-4.828125,-1.15625
738,-0.20922852,-0.975647,-0.06964111,-0.28125,-5.484375,-1.09375
739,-0.22631836,-0.9866333,-0.06451416,-0.359375,-6.296875,-0.171875
740,-0.23486328,-0.99786377,-0.062316895,-1.734375,-2.859375,-0.09375
741,-0.22338867,-0.97369385,-0.062805176,-1.53125,-0.96875,-0.828125
742,-0.2211914,-0.9907837,-0.059143066,-1.984375,-0.078125,-0.34375
743,-0.22729492,-0.9859009,-0.0635376,-2.234375,0.0,-0.625
744,-0.23583984,-0.97857666,-0.054016113,-2.296875,0.4375,-0.890625
745,-0.23510742,-0.9883423,-0.051818848,-3.21875,1.28125,-1.078125
746,-0.23388672,-0.98565674,-0.038635254,-3.765625,1.703125,-0.4375
747,-0.23876953,-0.97442627,-0.042297363,-4.21875,2.21875,-0.25
748,-0.23754883,-0.9841919,-0.03277588,-4.671875,2.84375,-0.84375
749,-0.23754883,-0.97857666,-0.038391113,-3.484375,2.734375,-0.5
750,-0.23608398,-0.9729614,-0.032287598,-3.828125,2.671875,-0.484375
751,-0.23730469,-0.9824829,-0.024963379,-2.90625,2.28125,-0.25
752,-0.24121094,-0.9837036,-0.023254395,-2.203125,3.03125,-0.703125
753,-0.23950195,-0.97906494,-0.015686035,-2.0625,2.671875,-0.28125
754,-0.23583984,-0.99346924,-0.0256958,-1.828125,3.015625,-0.296875
755,-0.23901367,-0.98150635,-0.014709473,-1.671875,2.8125,-0.4375
756,-0.23779297,-0.9697876,-0.02960205,-0.59375,3.625,0.15625
757,-0.24804688,-0.9807739,-0.008117676,-0.859375,2.328125,0.578125
758,-0.24560547,-0.9841919,-0.013244629,-0.140625,1.875,-0.109375
759,-0.23339844,-0.97491455,-0.015930176,-0.234375,2.34375,0.328125
