sample_no,accel_x,accel_y,accel_z,gyro_x,gyro_y,gyro_z
0,0.6201172,-0.041809082,0.84051514,-0.078125,2.484375,2.375
1,0.63427734,-0.04498291,0.8319702,-2.890625,-1.671875,1.5625
2,0.6032715,-0.026916504,0.8331909,-0.703125,0.0,0.84375
3,0.6020508,-0.024230957,0.78411865,0.171875,6.96875,1.078125
4,0.5800781,0.0211792,0.80462646,10.40625,22.03125,2.140625
5,0.66845703,-0.038879395,0.87420654,16.609375,28.5,2.265625
6,0.6855469,-0.19415283,0.9147339,1.234375,14.140625,3.96875
7,0.69677734,-0.113586426,0.6871948,-9.203125,-0.875,3.40625
8,0.6657715,-0.06060791,0.75286865,-5.453125,1.3125,0.46875
9,0.65185547,0.093688965,0.74261475,-0.453125,17.328125,9.03125
10,0.7849121,-0.06817627,0.763855,-9.109375,3.53125,3.703125
11,0.76538086,-0.10040283,0.7196655,-5.859375,3.640625,-0.828125
12,0.70947266,0.020202637,0.7350464,4.5625,10.375,1.234375
13,0.72021484,0.0036010742,0.7782593,-3.953125,5.859375,2.84375
14,0.8054199,-0.015686035,0.6820679,3.0625,13.046875,5.515625
15,0.7956543,-0.02130127,0.67303467,-0.296875,16.25,6.0
16,0.8417969,0.00018310547,0.6437378,-3.625,-4.28125,1.921875
17,0.5383301,0.04046631,0.8187866,-2.125,2.421875,5.078125
18,0.6933594,-0.11920166,0.9035034,-9.671875,-18.921875,-0.984375
19,0.74853516,-0.074279785,0.6832886,-21.921875,-43.28125,-5.484375
20,0.6057129,0.06317139,0.7194214,-15.484375,-0.109375,5.796875
21,0.61621094,0.062683105,0.7662964,7.171875,7.765625,4.5625
22,0.7011719,0.1005249,0.7172241,12.390625,10.96875,-4.546875
23,0.74780273,-0.054504395,0.78948975,19.578125,15.59375,0.234375
24,0.73657227,0.009216309,0.758728,7.09375,1.390625,-0.484375
25,0.90234375,-0.07574463,0.6947632,8.78125,26.609375,10.015625
26,0.79833984,-0.038391113,0.7704468,3.8125,22.28125,10.28125
27,0.8659668,0.055114746,0.60150146,-5.5625,-4.859375,8.21875
28,0.5710449,0.1149292,0.7921753,-16.515625,-0.171875,-1.640625
29,0.64160156,0.031921387,0.87786865,-3.71875,-5.046875,-5.03125
30,0.7338867,-0.11138916,0.84051514,-21.328125,-58.9375,-12.640625
31,0.4831543,0.045837402,0.6144409,-27.890625,-45.53125,-12.65625
32,0.60302734,0.13128662,0.8903198,25.3125,23.65625,20.328125
33,0.796875,0.004333496,0.7982788,18.9375,14.640625,2.46875
34,0.71069336,-0.14776611,0.7946167,23.515625,22.0,-4.5625
35,0.72314453,-0.15484619,0.7445679,8.734375,-0.890625,-5.765625
36,0.7285156,-0.07354736,0.82611084,4.46875,2.046875,-6.015625
37,0.76538086,-0.0032348633,0.7814331,-13.15625,0.578125,-2.75
38,0.6743164,0.010925293,0.74920654,-9.0,5.484375,-2.75
39,0.6328125,0.047546387,0.7267456,-6.875,-2.015625,-1.296875
40,0.65527344,0.039001465,0.664978,-3.3125,19.109375,2.796875
41,0.685791,0.058288574,0.7616577,16.125,33.21875,4.453125
42,0.86865234,-0.07550049,0.7284546,35.03125,38.203125,6.078125
43,0.8666992,-0.011047363,0.59661865,0.4375,20.15625,8.765625
44,0.7602539,-0.09210205,0.6298218,-1.875,3.453125,6.59375
45,0.87402344,0.038269043,0.5475464,-8.515625,-8.421875,10.875
46,0.8947754,0.12225342,0.6178589,-13.6875,-2.328125,10.40625
47,0.7531738,0.093688965,0.7164917,-18.09375,1.3125,1.953125
48,0.85180664,-0.074523926,1.0065308,-7.96875,-13.703125,-9.046875
49,0.64501953,-0.12213135,0.7316284,-19.234375,-70.671875,-17.234375
50,0.27783203,0.07928467,0.52386475,-15.859375,-45.875,-9.21875
51,0.89208984,0.14935303,0.76849365,7.796875,11.421875,21.15625
52,0.86572266,-0.003479004,0.8253784,10.625,17.265625,-0.4375
53,0.60498047,-0.062805176,0.793396,14.84375,9.140625,-1.46875
54,0.74902344,-0.03717041,0.75164795,3.53125,26.9375,-0.71875
55,0.68066406,0.031188965,0.696228,1.375,9.28125,0.59375
56,0.795166,0.031433105,0.7316284,1.453125,3.09375,0.953125
57,0.736084,0.054870605,0.72332764,0.0625,-8.296875,6.1875
58,0.80078125,0.07171631,0.715271,-1.25,5.390625,1.8125
59,0.861084,0.08416748,0.7172241,-12.34375,-12.328125,-2.65625
60,0.6113281,0.18939209,0.98358154,2.4375,2.484375,-8.625
61,0.62060547,0.04046631,0.90448,-8.4375,-19.171875,-11.9375
62,0.4885254,-0.11383057,0.5866089,-20.40625,-62.796875,-14.296875
63,0.46655273,-0.059631348,0.68304443,-10.859375,-15.84375,9.53125
64,0.77368164,0.0138549805,0.9249878,19.453125,6.3125,14.984375
65,0.5239258,0.0038452148,0.8451538,8.46875,5.328125,-3.390625
66,0.6972656,-0.08062744,0.93304443,7.578125,9.71875,3.484375
67,0.701416,-0.08062744,0.7765503,-5.109375,0.6875,-3.234375
68,0.62597656,0.049987793,0.7831421,1.03125,11.453125,-0.6875
69,0.74658203,0.030212402,0.8920288,11.234375,19.359375,2.1875
70,0.6401367,0.008972168,0.65130615,1.03125,9.25,3.9375
71,0.86279297,0.097351074,0.7640991,-18.140625,7.71875,-3.53125
72,0.69311523,0.11834717,0.9616089,-1.09375,-5.3125,-4.890625
73,0.52905273,0.019714355,0.8600464,-13.59375,-28.328125,-10.0
74,0.44458008,-0.043273926,0.6625366,-22.09375,-66.828125,-7.609375
75,0.4567871,-0.010314941,0.9171753,4.0,10.1875,8.28125
76,0.76586914,0.054870605,0.86151123,29.6875,25.734375,11.1875
77,0.5839844,-0.06451416,0.8932495,23.75,23.0625,-1.234375
78,0.6333008,-0.10748291,0.8654175,18.109375,12.296875,-3.203125
79,0.7468262,-0.08380127,0.80462646,8.3125,16.0,-2.484375
80,0.6813965,-0.07940674,0.81414795,-3.90625,6.4375,0.21875
81,0.66845703,-0.049865723,0.7953491,1.6875,-11.921875,-2.59375
82,0.59399414,0.018981934,0.75897217,1.296875,2.28125,-0.734375
83,0.6237793,-0.010559082,0.7807007,4.703125,12.5625,1.71875
84,0.7163086,-0.028625488,0.7406616,5.90625,23.03125,2.796875
85,0.7446289,-0.053527832,0.840271,5.78125,19.1875,3.09375
86,0.7192383,-0.09307861,0.7592163,2.609375,16.140625,6.25
87,0.734375,-0.043273926,0.75897217,-7.265625,7.0625,5.375
88,0.73095703,-0.018127441,0.696228,-8.34375,-0.296875,8.046875
89,0.70166016,0.027282715,0.67303467,-8.421875,1.9375,7.296875
90,0.80078125,-0.04498291,0.72698975,-5.640625,-6.828125,5.09375
91,0.8540039,0.13519287,0.8102417,-9.171875,-0.4375,4.671875
92,0.7375488,0.061706543,0.9581909,-4.171875,12.4375,0.6875
93,0.55859375,-0.11407471,0.88323975,-16.859375,-9.0625,-9.828125
94,0.51123047,-0.17315674,0.80633545,-21.6875,-44.71875,-13.671875
95,0.56762695,0.15032959,0.75701904,-10.734375,-23.9375,-4.3125
96,0.7607422,0.020446777,0.887146,11.65625,23.203125,10.296875
97,0.64501953,-0.10064697,0.6664429,4.21875,-7.75,1.265625
98,0.7763672,-0.030822754,0.7616577,4.9375,24.0625,-6.25
99,0.595459,0.10223389,0.7391968,5.5625,13.3125,0.90625
100,0.69799805,0.02508545,0.7567749,4.046875,20.59375,2.6875
101,0.8183594,-0.019836426,0.805603,0.03125,6.125,4.9375
102,0.7282715,0.03387451,0.72088623,1.671875,6.28125,5.234375
103,0.6828613,0.07171631,0.711853,-0.71875,3.875,2.53125
104,0.8547363,0.050231934,0.60858154,-11.28125,-1.34375,-0.65625
105,0.68188477,0.13421631,0.9664917,-9.171875,-4.234375,-8.390625
106,0.61743164,0.08782959,0.82928467,-11.203125,-5.953125,-3.125
107,0.53393555,-0.066711426,0.8954468,-16.734375,-18.625,-12.125
108,0.453125,-0.057922363,0.5675659,-20.015625,-49.875,-1.328125
109,0.5517578,0.0067749023,0.71014404,7.703125,0.515625,13.734375
110,1.0537109,0.06048584,0.9760132,14.71875,23.96875,12.703125
111,0.6516113,-0.038879395,0.8395386,12.859375,3.9375,-4.015625
112,0.7553711,-0.032287598,0.79022217,-1.171875,3.640625,0.3125
113,0.6711426,0.09442139,0.6659546,0.515625,12.515625,1.171875
114,0.69921875,0.036071777,0.7999878,5.234375,27.953125,2.109375
115,0.7973633,-0.0064086914,0.7213745,1.890625,7.90625,4.1875
116,0.7375488,0.07269287,0.7338257,3.140625,13.15625,1.8125
117,0.7089844,0.015319824,0.63861084,0.578125,0.796875,2.15625
118,0.93774414,0.046081543,0.7196655,-17.296875,-5.046875,-4.359375
119,0.7585449,0.11224365,0.9425659,-7.015625,0.140625,-6.328125
120,0.4885254,0.078552246,0.8427124,-8.46875,-14.09375,-7.34375
121,0.40185547,-0.004699707,0.668396,-17.5625,-42.40625,-12.34375
122,0.48486328,-0.00079345703,0.58221436,-5.515625,-15.3125,8.203125
123,1.0236816,-0.04058838,1.0079956,17.765625,10.5,24.5625
124,0.7832031,0.002380371,0.79486084,7.34375,-4.796875,-11.46875
125,0.6496582,0.07977295,0.8204956,-7.109375,16.484375,-3.765625
126,0.49438477,0.035095215,0.7055054,3.828125,7.0625,-0.671875
127,0.6706543,0.028747559,0.81951904,-1.375,9.78125,-0.984375
128,0.8527832,0.054626465,0.81829834,1.140625,12.21875,5.53125
129,0.671875,0.10321045,0.7609253,7.671875,15.90625,3.125
130,0.75146484,0.07220459,0.70111084,9.1875,19.84375,4.34375
131,0.82006836,0.062683105,0.73724365,-6.046875,4.734375,-0.140625
132,0.65527344,0.1227417,0.97528076,-6.46875,3.109375,-7.65625
133,0.6652832,0.0119018555,0.84051514,-8.859375,-28.90625,-6.125
134,0.4987793,-0.007385254,0.71698,-17.375,-54.78125,-9.890625
135,0.5617676,0.039733887,0.72528076,5.015625,-1.453125,9.234375
136,0.72387695,0.016540527,0.87176514,20.875,19.390625,11.46875
137,0.78759766,-0.03253174,0.81951904,18.109375,5.09375,-6.171875
138,0.67944336,0.031188965,0.8131714,9.75,17.03125,-0.203125
139,0.6230469,0.0138549805,0.7650757,5.84375,12.546875,1.796875
140,0.70947266,-0.08868408,0.7848511,5.09375,-6.40625,-2.171875
141,0.79467773,-0.00982666,0.8148804,-3.796875,-1.484375,-1.90625
142,0.61279297,0.038757324,0.77996826,4.5,8.828125,-0.875
143,0.58032227,0.03314209,0.7406616,2.34375,-7.921875,-1.125
144,0.7297363,0.031921387,0.76312256,1.96875,2.5625,1.890625
145,0.7609863,0.09539795,0.7028198,-1.734375,29.328125,13.09375
146,0.76000977,-0.0005493164,0.6925659,20.09375,33.78125,12.875
147,0.68725586,-0.08868408,0.76068115,23.375,19.46875,1.34375
148,0.7451172,-0.07183838,0.7821655,-9.25,-17.640625,3.828125
149,0.7751465,-0.021057129,0.6925659,1.984375,-1.734375,3.65625
150,0.6994629,0.05218506,0.7106323,-2.96875,-9.21875,-0.5
151,0.7685547,0.030456543,0.7523804,0.734375,-2.46875,1.546875
152,0.6882324,0.023376465,0.8078003,-0.734375,1.234375,-0.015625
153,0.7590332,0.053649902,0.59783936,-7.734375,-5.046875,2.59375
154,0.7609863,0.04534912,0.8685913,-11.84375,-11.40625,-7.578125
155,0.70703125,0.03753662,0.97650146,-1.78125,-6.34375,-7.71875
156,0.47436523,0.01751709,0.8361206,-13.0625,-14.71875,-20.578125
157,0.4802246,-0.23883057,0.58758545,-28.625,-55.28125,-13.578125
158,0.60302734,0.035095215,0.7872925,-2.875,-10.9375,16.0
159,0.6801758,-0.010803223,0.8920288,8.046875,4.734375,6.796875
160,0.64404297,0.07489014,0.8390503,8.90625,0.984375,0.546875
161,0.61279297,-0.032287598,0.8949585,-1.015625,10.515625,-2.484375
162,0.6218262,-0.018859863,0.7994995,2.0,8.859375,-3.09375
163,0.5949707,0.0045776367,0.8468628,2.1875,14.859375,0.5
164,0.70092773,0.0072631836,0.82733154,-1.859375,0.0625,4.21875
165,0.6669922,0.0368042,0.79437256,9.109375,15.171875,4.6875
166,0.6804199,0.13616943,0.74432373,6.140625,18.609375,5.53125
167,1.0437012,0.12542725,0.75775146,-3.953125,-6.234375,-4.0
168,0.60131836,-0.015930176,0.9581909,-7.921875,0.875,-11.09375
169,0.29296875,-0.1338501,0.93865967,-27.828125,-19.671875,-15.328125
170,0.38916016,0.08392334,0.6569214,-22.421875,-53.03125,-17.921875
171,0.6052246,0.14935303,0.8007202,-3.65625,15.703125,17.34375
172,0.6945801,-0.06793213,1.0194702,13.65625,1.65625,13.953125
173,0.8046875,-0.14459229,0.8810425,5.890625,4.84375,0.78125
174,0.5187988,0.027526855,0.887146,-1.53125,3.59375,-1.546875
175,0.5114746,0.04046631,0.7601929,-7.328125,0.71875,-0.0625
176,0.6791992,0.024597168,0.9113159,-1.75,8.3125,4.71875
177,0.69140625,0.008972168,0.8800659,0.578125,3.890625,3.03125
178,0.6230469,0.10101318,0.8324585,7.734375,22.078125,4.84375
179,0.57788086,0.08709717,0.80682373,3.078125,9.15625,0.578125
180,0.67407227,0.12615967,0.7875366,-2.34375,15.0,2.484375
181,0.7038574,0.0368042,0.7970581,-1.78125,15.421875,1.484375
182,0.7548828,0.10296631,1.0236206,-2.828125,-3.453125,-9.609375
183,0.5410156,-0.047180176,0.82733154,-8.8125,-16.03125,-5.5
184,0.46484375,-0.030334473,0.73895264,-14.640625,-37.171875,-4.46875
185,0.5695801,0.055603027,0.7626343,-3.140625,-6.28125,8.84375
186,0.6711426,0.00970459,0.93377686,8.0625,22.359375,11.40625
187,0.74194336,-0.074035645,0.9130249,13.4375,4.25,-3.546875
188,0.6635742,0.0770874,0.8590698,3.34375,13.375,-3.421875
189,0.5493164,0.08758545,0.7875366,14.125,28.71875,3.8125
190,0.6345215,-0.024230957,0.80999756,10.875,10.0625,2.203125
191,0.670166,-0.013244629,0.82806396,18.71875,14.328125,1.0
192,0.71972656,0.027526855,0.7953491,10.46875,11.9375,-1.15625
193,0.66259766,-0.014465332,0.7379761,0.515625,5.796875,0.875
194,0.75,-0.01739502,0.7267456,-0.125,6.875,1.640625
195,0.78149414,0.009460449,0.7128296,-6.140625,8.90625,2.328125
196,0.6928711,0.011657715,0.6432495,0.734375,13.9375,2.15625
197,0.74609375,0.02142334,0.6173706,13.5,28.515625,4.28125
198,0.8161621,0.008728027,0.72528076,4.390625,19.96875,6.890625
199,0.82958984,-0.06427002,0.730896,0.84375,-14.546875,5.46875
200,0.86157227,0.0028686523,0.70721436,-6.453125,11.546875,1.078125
201,0.69262695,0.05633545,0.65374756,0.40625,-3.078125,3.0625
202,0.7180176,0.04827881,0.6679077,2.375,5.59375,5.6875
203,0.9013672,-0.0015258789,0.7235718,-0.609375,-1.71875,5.796875
204,0.7282715,0.018249512,0.666687,-2.765625,1.96875,1.671875
205,0.7416992,0.05267334,0.64349365,-0.140625,0.640625,0.75
206,0.7636719,-0.039123535,0.7177124,1.125,5.78125,2.578125
207,0.81274414,0.0289917,0.6420288,-5.0,1.421875,1.0
208,0.87158203,0.0018920898,0.71209717,-3.453125,-19.46875,-6.96875
209,0.7512207,0.10369873,0.93914795,-2.109375,3.234375,-9.9375
210,0.61328125,0.0036010742,0.79974365,-12.640625,-12.0,-21.9375
211,0.5,-0.1350708,0.6911011,-21.453125,-27.265625,-22.15625
212,0.6171875,0.03387451,0.53826904,-15.015625,-15.234375,9.765625
213,0.79785156,-0.0413208,0.77020264,10.5625,23.515625,28.609375
214,0.8859863,0.09686279,0.80218506,-5.3125,-1.140625,1.96875
215,0.80908203,0.090026855,0.7457886,8.28125,15.71875,-6.828125
216,0.5671387,0.029968262,0.67523193,4.40625,5.578125,-1.375
217,0.72387695,0.015563965,0.70355225,1.953125,10.21875,5.65625
218,0.9016113,0.006286621,0.7548218,3.390625,0.875,6.609375
219,0.7800293,0.08343506,0.66033936,0.28125,-0.75,3.234375
220,1.0717773,0.014587402,0.899353,-5.484375,-3.921875,-1.1875
221,0.75,0.19915771,0.8703003,-4.21875,-3.03125,-8.75
222,0.5456543,0.117614746,0.7836304,-10.171875,-3.984375,-16.765625
223,0.44921875,-0.1404419,0.59173584,-24.53125,-37.78125,-2.296875
224,0.6291504,-0.13092041,0.6466675,-13.859375,-28.1875,20.109375
225,0.93237305,0.08465576,1.0424194,13.296875,13.296875,18.265625
226,0.6347656,0.02923584,0.7506714,11.671875,-11.390625,-13.140625
227,0.74609375,0.039489746,0.8278198,3.953125,6.4375,-6.765625
228,0.5432129,-0.016906738,0.76605225,2.578125,4.453125,-6.25
229,0.6452637,0.0211792,0.8239136,-2.6875,11.171875,1.484375
230,0.77734375,0.090270996,0.7831421,-1.5,1.546875,2.75
231,0.83496094,0.19525146,0.5639038,4.09375,31.71875,8.3125
232,0.5878906,0.15203857,0.9557495,-5.703125,3.984375,-5.609375
233,0.6245117,0.093444824,0.78118896,-3.09375,-10.53125,-2.546875
234,0.5895996,-0.06060791,0.8817749,-18.296875,-31.65625,-9.734375
235,0.4423828,0.023376465,0.4977417,-11.390625,-47.203125,3.234375
236,0.8640137,0.016052246,0.8746948,11.171875,21.171875,18.21875
237,0.6855469,0.043884277,0.8973999,5.9375,-6.03125,-0.6875
238,0.6933594,0.039978027,0.8305054,1.984375,3.890625,-4.3125
239,0.5776367,0.06561279,0.75408936,2.09375,8.671875,-2.0
240,0.65844727,0.06317139,0.8070679,0.65625,15.546875,4.28125
241,0.75683594,0.054138184,0.8915405,5.265625,10.359375,3.84375
242,0.7084961,0.05340576,0.73773193,1.328125,4.984375,0.875
243,0.69189453,0.10321045,0.8114624,-0.84375,10.671875,-3.015625
244,0.60961914,0.14056396,0.9437866,2.953125,5.65625,-2.625
245,0.5812988,0.0065307617,0.82611084,-1.9375,-6.671875,-0.015625
246,0.5983887,-0.038146973,0.8734741,-9.0,-28.75,-6.21875
247,0.5566406,0.02923584,0.71136475,4.828125,-24.984375,1.203125
248,0.65649414,-0.0005493164,0.7506714,11.03125,6.546875,8.203125
249,0.74365234,0.07318115,0.85369873,14.28125,19.265625,7.328125
250,0.7492676,-0.06427002,0.8168335,18.109375,13.5,-3.984375
251,0.6711426,0.008483887,0.7953491,0.484375,2.390625,-1.890625
252,0.6484375,0.043395996,0.77337646,6.015625,11.921875,1.25
253,0.68188477,0.024597168,0.8053589,19.15625,18.578125,4.90625
254,0.7385254,-0.011047363,0.8048706,15.796875,17.296875,6.515625
255,0.7397461,-0.05230713,0.80267334,8.09375,9.0,0.140625
256,0.6887207,-0.07745361,0.7640991,2.8125,6.96875,-1.25
257,0.6855469,-0.04840088,0.74627686,-2.65625,0.46875,-3.796875
258,0.701416,-0.05596924,0.74993896,-4.8125,-2.296875,-3.453125
259,0.7062988,-0.04498291,0.7538452,-8.40625,-8.03125,-3.875
260,0.70214844,-0.027160645,0.76556396,-7.34375,-4.046875,-1.640625
261,0.6826172,-0.028381348,0.7362671,-4.484375,0.171875,0.015625
262,0.67407227,-0.015197754,0.6532593,5.75,8.71875,0.015625
263,0.6694336,0.020202637,0.69696045,7.75,17.21875,1.53125
264,0.7390137,-0.041809082,0.8156128,5.53125,4.15625,5.421875
265,0.7558594,-0.12359619,0.81707764,3.375,-8.015625,4.234375
266,0.7770996,-0.07305908,0.74261475,-2.375,-3.375,-1.953125
267,0.6750488,0.042663574,0.7069702,-0.140625,3.84375,0.984375
268,0.70092773,-0.016174316,0.78118896,-2.453125,-4.03125,3.046875
269,0.73876953,0.0033569336,0.72576904,-3.359375,-1.6875,3.5625
270,0.71777344,-0.04815674,0.729187,-2.59375,-1.8125,0.421875
271,0.6809082,-0.03668213,0.7567749,-8.46875,-7.5625,-2.671875
272,0.6899414,-0.0029907227,0.7807007,-5.796875,-7.453125,-3.203125
273,0.6958008,0.0045776367,0.79486084,0.515625,4.34375,0.953125
274,0.6437988,-0.06939697,0.8139038,-0.25,5.4375,2.796875
275,0.69555664,-0.0032348633,0.7675171,-5.34375,0.109375,-0.96875
276,0.6801758,-0.038879395,0.74334717,-1.140625,-0.46875,0.25
277,0.7368164,-0.016174316,0.82025146,-2.90625,0.71875,1.359375
278,0.7897949,0.044128418,0.7609253,-13.4375,-12.8125,-4.953125
279,0.71875,0.11590576,1.1361694,0.328125,10.53125,-7.15625
280,0.529541,0.046813965,0.85931396,-9.46875,-8.59375,-8.828125
281,0.4375,-0.18878174,0.7496948,-26.609375,-28.21875,-6.359375
282,0.5349121,-0.024719238,0.67596436,-22.28125,-34.578125,2.6875
283,0.8503418,0.13275146,0.97283936,11.40625,8.828125,11.328125
284,0.6154785,-0.06964111,0.81903076,-5.203125,-3.890625,-4.234375
285,0.6147461,-0.013244629,0.86883545,4.90625,10.109375,-2.34375
286,0.6269531,0.028747559,0.8317261,-2.78125,5.734375,-1.84375
287,0.6230469,0.030212402,0.8427124,-1.25,4.453125,0.875
288,0.67700195,0.0602417,0.82611084,1.9375,-1.234375,2.078125
289,0.64990234,0.08050537,0.821228,3.953125,5.1875,0.15625
290,0.61083984,0.07904053,0.7929077,2.90625,9.5,2.1875
291,0.6513672,0.04827881,0.8661499,3.359375,12.265625,3.15625
292,0.71777344,0.031188965,0.7106323,5.796875,14.09375,2.390625
293,0.7077637,-0.0064086914,0.85369873,-5.6875,15.5625,-3.515625
294,0.70336914,0.10491943,0.9804077,4.40625,2.015625,-5.5625
295,0.5617676,-0.051574707,0.8161011,-8.171875,-20.34375,-8.734375
296,0.44750977,-0.050109863,0.67718506,-22.265625,-50.140625,-4.578125
297,0.58935547,0.066101074,0.82196045,-0.78125,5.375,16.78125
298,0.71777344,-0.003479004,0.9203491,7.234375,3.578125,5.875
299,0.67163086,-0.06549072,0.8739624,10.0625,7.0,-2.1875
300,0.6628418,-0.002746582,0.8344116,0.671875,3.5,-3.4375
301,0.71899414,0.09295654,0.80804443,10.734375,26.03125,-0.828125
302,0.6298828,-0.0335083,0.75994873,12.15625,15.390625,-0.453125
303,0.5625,0.11102295,0.7814331,3.75,11.125,4.53125
304,0.7067871,0.04168701,0.79193115,0.59375,14.234375,4.703125
305,0.6123047,0.06854248,0.8890991,-1.03125,5.1875,-2.734375
306,0.6442871,-0.043273926,0.81951904,-4.15625,-12.09375,-7.328125
307,0.6015625,-0.070617676,0.81829834,-25.765625,-38.90625,-10.734375
308,0.43286133,0.06536865,0.72039795,-10.890625,-34.890625,1.171875
309,0.6520996,0.024841309,0.8932495,10.25,23.46875,10.1875
310,0.69555664,-0.062316895,0.95770264,12.109375,5.359375,1.703125
311,0.65966797,-0.014221191,0.8234253,-0.796875,10.625,-0.53125
312,0.61694336,0.00091552734,0.75408936,0.671875,12.296875,1.9375
313,0.6357422,0.028503418,0.8226929,5.4375,14.03125,3.171875
314,0.7272949,0.017028809,0.87005615,4.09375,11.71875,6.296875
315,0.67211914,0.08685303,0.7687378,2.3125,12.890625,3.375
316,0.6477051,0.03363037,0.8234253,-1.3125,10.96875,1.5625
317,0.7663574,0.05316162,0.77874756,-11.25,5.265625,0.796875
318,0.8300781,0.13861084,0.7147827,-4.546875,-7.828125,-13.375
319,0.40649414,0.03704834,0.78045654,4.671875,-13.078125,-2.390625
320,0.54833984,-0.08892822,0.82244873,-19.71875,-38.25,-7.8125
321,0.6628418,0.02142334,0.85736084,-8.953125,-34.59375,0.03125
322,0.6335449,-0.011047363,0.77874756,5.921875,6.375,5.0625
323,0.54785156,-0.019592285,0.90423584,11.75,21.28125,4.0625
324,0.7380371,-0.0056762695,0.86932373,6.625,17.46875,3.15625
325,0.6660156,-0.034973145,0.8776245,5.0625,11.5625,-0.828125
326,0.58935547,-0.038879395,0.82073975,4.921875,-2.6875,-4.40625
327,0.6706543,0.047546387,0.82562256,10.609375,18.203125,0.03125
328,0.6862793,0.0060424805,0.81463623,8.5625,11.515625,2.21875
329,0.6101074,-0.049865723,0.8173218,-1.015625,0.84375,-0.328125
330,0.62841797,-0.0044555664,0.8353882,-1.015625,-3.234375,-0.890625
331,0.7150879,0.024841309,0.76971436,-5.015625,-0.421875,0.921875
332,0.6647949,0.010925293,0.79022217,-1.75,7.234375,0.6875
333,0.6611328,0.0211792,0.7850952,-2.15625,2.84375,2.6875
334,0.6870117,-0.03692627,0.7753296,-0.796875,4.046875,2.53125
335,0.6809082,-0.032287598,0.7496948,-2.515625,-0.03125,0.390625
336,0.6542969,-0.010070801,0.7770386,2.859375,1.640625,1.09375
337,0.69189453,0.008728027,0.78411865,2.078125,5.671875,2.453125
338,0.72509766,-0.008361816,0.7946167,0.640625,3.109375,0.15625
339,0.6738281,0.026306152,0.7560425,-0.625,2.640625,-0.09375
340,0.6262207,0.03265381,0.7128296,9.84375,12.71875,2.375
341,0.7199707,-0.004699707,0.6989136,15.15625,14.34375,5.6875
342,0.77978516,-0.0713501,0.8019409,5.953125,3.03125,4.03125
343,0.76220703,-0.015686035,0.8168335,3.765625,10.34375,1.921875
344,0.70166016,0.0006713867,0.7062378,3.75,5.0625,4.046875
345,0.6970215,0.024597168,0.7523804,1.65625,2.484375,4.046875
346,0.75268555,-0.066467285,0.7494507,-1.984375,-0.140625,3.765625
347,0.7614746,0.00579834,0.76068115,-0.671875,-0.078125,-0.03125
348,0.70751953,-0.003967285,0.7213745,-1.671875,0.875,0.03125
349,0.7145996,-0.020568848,0.72283936,-0.734375,0.203125,-0.328125
350,0.7248535,-0.039611816,0.75994873,-2.65625,-0.140625,-0.625
351,0.73876953,-0.03302002,0.7250366,-5.25,-0.71875,-0.515625
352,0.7426758,0.016052246,0.7875366,1.90625,3.390625,-1.765625
353,0.7753906,0.03363037,0.6791382,-2.109375,0.296875,-0.5625
354,0.6760254,0.016540527,0.7716675,-1.21875,10.515625,-0.53125
355,0.70703125,-0.0178833,0.7301636,-3.765625,-3.21875,1.203125
356,0.7385254,-0.05670166,0.574646,-4.625,-1.625,1.0
357,0.7927246,0.06488037,0.88031006,-2.796875,-4.375,-7.890625
358,0.6843262,0.054138184,0.86468506,-7.953125,-3.25,-8.03125
359,0.5722656,-0.07183838,0.7028198,-17.1875,-5.640625,-10.828125
360,0.60131836,-0.101623535,0.7506714,-7.765625,-10.6875,3.859375
361,0.7363281,-0.027160645,0.78582764,-17.28125,-15.9375,0.46875
362,0.75146484,-0.0068969727,0.7103882,-4.359375,-5.28125,3.265625
363,0.7663574,0.035827637,0.81951904,0.765625,-0.265625,-0.859375
364,0.63427734,0.061706543,0.72821045,8.890625,3.625,-2.359375
365,0.69384766,0.022644043,0.8041382,1.28125,3.875,1.0
366,0.7126465,0.0079956055,0.7897339,0.109375,-0.75,3.03125
367,0.7270508,0.07318115,0.77337646,3.671875,4.03125,2.5625
368,0.6911621,0.07244873,0.76776123,4.703125,6.796875,3.84375
369,0.68237305,0.036071777,0.74798584,0.421875,6.8125,2.9375
370,0.7302246,0.05633545,0.776062,2.3125,10.96875,5.40625
371,0.7416992,0.025817871,0.6708374,-10.125,6.03125,8.625
372,0.77734375,0.026550293,0.9105835,-2.515625,0.984375,-3.15625
373,0.6047363,0.10247803,0.80267334,0.4375,2.234375,-10.375
374,0.54052734,-0.010314941,0.7814331,-12.109375,-12.65625,-7.578125
375,0.4807129,-0.11578369,0.7128296,-18.40625,-27.984375,-6.421875
376,0.6455078,0.098083496,0.70062256,-10.5,-10.421875,11.40625
377,0.81347656,0.047058105,0.9171753,12.875,11.453125,7.703125
378,0.75097656,0.043884277,0.8197632,2.875,-8.21875,-1.828125
379,0.7175293,0.10101318,0.7470093,5.015625,17.828125,-3.890625
380,0.55737305,0.028259277,0.76678467,4.59375,8.40625,0.640625
381,0.79418945,0.042175293,0.74383545,4.15625,6.09375,7.640625
382,0.7578125,0.09320068,0.73553467,10.203125,9.609375,4.28125
383,0.67163086,0.023132324,0.7399292,2.578125,3.5,-1.78125
384,0.62646484,0.09564209,0.89593506,1.640625,9.734375,-1.859375
385,0.6262207,-0.09088135,0.8781128,-10.375,-11.15625,-8.765625
386,0.6027832,-0.070373535,0.7633667,-20.515625,-42.328125,-8.0
387,0.71313477,0.11395264,0.7020874,-3.796875,-8.484375,7.875
388,0.56689453,-0.0134887695,0.8251343,9.65625,16.4375,1.796875
389,0.638916,0.08758545,0.84173584,6.59375,-5.921875,0.96875
390,0.75146484,0.05316162,0.821228,4.890625,17.53125,2.59375
391,0.5817871,0.019470215,0.7831421,6.078125,18.0625,3.09375
392,0.65356445,0.017028809,0.8554077,18.4375,23.796875,7.84375
393,0.7260742,-0.06964111,0.76361084,11.890625,6.9375,2.875
394,0.72021484,0.014343262,0.75164795,-7.140625,-14.34375,2.25
395,0.7529297,0.08538818,0.6744995,1.8125,20.609375,-0.453125
396,0.6411133,0.11981201,0.7238159,-1.203125,8.03125,2.6875
397,0.77001953,0.10467529,0.74627686,-1.09375,14.46875,4.3125
398,0.75146484,-0.0134887695,0.74676514,-7.0,4.625,4.734375
399,0.798584,-0.023254395,0.78045654,-0.859375,-0.015625,-4.6875
400,0.68481445,0.073913574,0.776062,-5.546875,-0.3125,-2.796875
401,0.6298828,-0.061828613,0.82025146,-10.296875,-14.359375,-6.640625
402,0.66845703,-0.038635254,0.77020264,-25.609375,-54.140625,-10.28125
403,0.56152344,0.07757568,0.5951538,-2.875,-8.4375,1.046875
404,0.6972656,0.11102295,0.76898193,18.640625,30.109375,6.078125
405,0.7824707,0.08441162,0.8378296,23.375,18.515625,-2.234375
406,0.82910156,-0.043273926,0.8156128,12.09375,7.9375,-0.828125
407,0.67822266,-0.06109619,0.77630615,0.984375,10.046875,-1.328125
408,0.63964844,-0.039123535,0.77948,0.6875,6.796875,-3.0
409,0.7233887,0.023132324,0.7477417,-3.65625,-4.265625,-1.203125
410,0.67163086,0.032409668,0.74823,-0.34375,-0.984375,-0.40625
411,0.7062988,0.066833496,0.61273193,7.46875,22.796875,5.03125
412,0.7854004,0.13348389,0.6727905,8.390625,35.09375,8.859375
413,0.79907227,-0.022033691,0.7994995,36.859375,32.859375,11.5
414,0.8239746,-0.15777588,0.7262573,-7.75,0.875,7.375
415,0.94555664,0.031677246,0.5404663,-6.65625,-0.890625,4.34375
416,0.63061523,0.097839355,0.59368896,2.5,1.890625,4.71875
417,0.8327637,0.014343262,0.6835327,-1.234375,-6.015625,4.34375
418,0.9140625,0.0119018555,0.7301636,1.546875,4.65625,1.4375
419,0.7404785,0.03729248,0.60858154,-4.109375,-6.703125,-3.46875
420,0.8286133,0.08001709,0.72869873,0.53125,2.921875,-1.296875
421,0.72216797,-0.07110596,0.72698975,-14.09375,-16.15625,-5.1875
422,0.6274414,-0.0044555664,0.7201538,-0.203125,-4.5,-7.328125
423,0.71777344,-0.020812988,0.8265991,-9.125,-9.015625,-8.09375
424,0.68359375,-0.12774658,0.80877686,-19.796875,-31.234375,-10.546875
425,0.6335449,0.08929443,0.54193115,-13.5625,-37.15625,-3.671875
426,0.8000488,0.059265137,0.7374878,4.90625,21.171875,10.984375
427,0.73413086,0.003112793,0.75653076,1.515625,0.96875,-2.6875
428,0.7783203,0.074645996,0.73724365,5.5625,4.09375,-1.46875
429,0.68310547,0.05682373,0.7848511,9.875,10.296875,0.171875
430,0.67871094,-0.0256958,0.6950073,5.4375,0.0,2.21875
431,0.78271484,0.046325684,0.8102417,5.828125,3.515625,4.875
432,0.72265625,-0.02154541,0.7279663,-1.96875,2.8125,3.078125
433,0.70532227,0.051696777,0.7067261,-1.078125,5.53125,1.984375
434,0.7480469,0.008728027,0.7445679,-4.1875,-0.59375,0.328125
435,0.79248047,0.00091552734,0.65301514,-3.21875,-4.171875,-1.15625
436,0.8022461,0.03314209,0.82928467,-10.0,-6.296875,-9.40625
437,0.60180664,0.1071167,0.8734741,-0.1875,4.09375,-5.46875
438,0.609375,-0.1416626,0.84906006,-16.203125,-11.9375,-3.4375
439,0.579834,-0.07696533,0.7316284,-25.3125,-48.984375,-3.34375
440,0.46606445,0.058044434,0.6034546,4.328125,-1.046875,9.0625
441,0.84716797,0.022399902,0.8336792,3.421875,16.59375,5.828125
442,0.6940918,0.014099121,0.81121826,8.359375,14.046875,-4.3125
443,0.70336914,0.018249512,0.7872925,2.4375,-1.28125,-5.546875
444,0.70825195,0.058288574,0.7785034,0.921875,8.234375,1.984375
445,0.6923828,0.078063965,0.70306396,6.515625,9.71875,5.625
446,0.7878418,0.09490967,0.77264404,6.34375,16.53125,5.078125
447,0.6376953,0.07928467,0.81585693,0.46875,4.359375,3.703125
448,0.7480469,-0.02154541,0.67645264,2.703125,-0.515625,0.015625
449,0.7092285,-0.009094238,0.85443115,2.5625,6.8125,-1.78125
450,0.7097168,-0.035705566,0.6571655,-7.34375,-9.265625,-1.5
451,0.75341797,0.039245605,0.8654175,-4.6875,-1.3125,-5.828125
452,0.5944824,-0.003967285,0.79071045,-3.140625,-5.671875,-2.515625
453,0.6281738,-0.12384033,0.8366089,-19.375,-24.0,-5.109375
454,0.5905762,0.10784912,0.6137085,-14.296875,-45.125,-1.75
455,0.62939453,0.062194824,0.8317261,10.703125,16.96875,3.125
456,0.7026367,0.07684326,0.85369873,2.84375,7.609375,0.578125
457,0.68969727,-0.0015258789,0.8473511,8.4375,11.0625,0.6875
458,0.67944336,-0.0032348633,0.77337646,0.8125,1.03125,-0.953125
459,0.63842773,0.10736084,0.77923584,-3.546875,1.78125,2.25
460,0.70654297,0.059020996,0.78900146,3.765625,13.96875,3.296875
461,0.67871094,0.06707764,0.80926514,4.4375,8.125,2.78125
462,0.71533203,0.057556152,0.74871826,3.703125,12.046875,2.171875
463,0.6437988,-0.027893066,0.8324585,1.828125,5.4375,1.671875
464,0.71362305,0.02142334,0.69329834,-4.921875,-6.703125,-1.734375
465,0.68237305,-0.0029907227,0.82196045,0.09375,0.6875,-1.59375
466,0.6274414,0.059509277,0.77459717,-7.140625,-13.40625,-3.65625
467,0.6274414,-0.026184082,0.82562256,-8.578125,-20.8125,-5.28125
468,0.6557617,0.008239746,0.8185425,-6.515625,-20.5625,-6.515625
469,0.6135254,0.06536865,0.8649292,7.296875,1.46875,-0.9375
470,0.6225586,0.07928467,0.8095093,11.59375,9.046875,2.421875
471,0.6682129,-0.007385254,0.8295288,14.625,16.125,3.4375
472,0.6870117,-0.04425049,0.83514404,12.234375,14.203125,3.046875
473,0.7023926,-0.07110596,0.82318115,9.21875,4.078125,-0.859375
474,0.70092773,-0.009338379,0.74823,-0.375,-1.703125,-4.65625
475,0.65234375,0.019470215,0.77679443,5.46875,11.390625,-2.078125
476,0.6525879,-0.020568848,0.7819214,-3.1875,2.375,0.75
477,0.6958008,-0.051086426,0.8016968,-3.59375,-1.171875,0.453125
478,0.69189453,-0.007873535,0.8192749,-3.8125,-2.9375,-0.125
479,0.6621094,-0.002746582,0.7579956,-3.203125,3.59375,2.46875
480,0.7211914,0.007507324,0.7260132,7.40625,22.921875,8.953125
481,0.64453125,0.017028809,0.6293335,13.0625,15.25,4.296875
482,0.70996094,-0.01739502,0.78826904,7.46875,7.734375,5.296875
483,0.82250977,-0.055725098,0.77337646,-2.09375,-0.765625,4.203125
484,0.72558594,-0.07965088,0.6688843,-8.5,3.265625,1.578125
485,0.609375,0.034118652,0.72454834,-20.75,-24.515625,-6.421875
486,0.6374512,0.055603027,0.77679443,-7.625,2.65625,0.578125
487,0.7939453,0.11077881,0.79241943,-3.34375,-0.34375,-7.234375
488,0.8400879,0.07611084,0.8720093,-6.265625,6.625,-14.34375
489,0.56640625,0.06439209,1.0414429,-5.453125,6.1875,-8.90625
490,0.56591797,-0.06060791,0.7860718,-8.640625,-7.75,-5.671875
491,0.60668945,-0.24005127,0.70306396,-31.859375,-42.15625,-4.671875
492,0.6633301,0.0119018555,0.6708374,-11.171875,-13.375,5.953125
493,0.7861328,0.0016479492,0.8344116,10.5,17.21875,9.15625
494,0.7138672,0.066589355,0.732605,0.65625,-7.0625,-2.71875
495,0.7216797,0.03729248,0.80096436,11.828125,17.328125,-0.671875
496,0.6203613,0.05706787,0.80584717,5.078125,9.4375,2.6875
497,0.6870117,0.050720215,0.8383179,6.1875,14.359375,9.6875
498,0.7351074,0.06854248,0.75579834,7.265625,7.90625,8.203125
499,0.68725586,0.04852295,0.76068115,9.0625,14.78125,5.25
500,0.8664551,0.08856201,0.824646,2.921875,0.90625,-4.75
501,0.6496582,0.15618896,1.0722046,3.734375,13.015625,-4.9375
502,0.5102539,-0.16339111,0.715271,-17.8125,-17.25,-7.359375
503,0.55566406,-0.21954346,0.7272339,-30.03125,-61.453125,-4.203125
504,0.67407227,0.04534912,0.72650146,-8.203125,-20.140625,9.015625
505,0.6936035,0.16009521,0.9022827,6.5,12.578125,1.296875
506,0.70654297,0.05999756,0.82928467,4.046875,-2.65625,-3.796875
507,0.68359375,-0.03277588,0.8180542,2.390625,12.859375,-2.5625
508,0.6130371,0.015563965,0.8539429,4.328125,0.71875,0.4375
509,0.6970215,0.014099121,0.8331909,0.34375,-0.359375,3.15625
510,0.6003418,0.08392334,0.8493042,5.15625,0.890625,1.5
511,0.66308594,0.06121826,0.7506714,8.46875,11.78125,-0.46875
512,0.59228516,0.08416748,0.7875366,9.3125,22.453125,4.484375
513,0.6699219,-0.032287598,0.6535034,-13.28125,7.625,-1.578125
514,0.66552734,0.06707764,1.0599976,-8.84375,-1.9375,-12.9375
515,0.5410156,0.039978027,0.79193115,-12.40625,-8.875,-10.21875
516,0.4794922,-0.08331299,0.7211304,-33.640625,-29.171875,-7.1875
517,0.55615234,0.0004272461,0.8825073,0.4375,-28.875,5.1875
518,0.66259766,0.093444824,0.8991089,14.234375,-8.828125,4.796875
519,0.6501465,0.08734131,0.8932495,11.203125,7.484375,0.3125
520,0.58374023,0.0079956055,0.86395264,10.265625,8.015625,-1.25
521,0.58569336,-0.0049438477,0.8085327,9.953125,16.703125,1.28125
522,0.6179199,-0.047424316,0.88201904,12.5,15.734375,6.71875
523,0.7133789,-0.03253174,0.8776245,15.359375,8.96875,4.28125
524,0.6652832,0.011413574,0.8305054,11.890625,15.5,1.125
525,0.6130371,-0.012023926,0.77923584,11.90625,18.84375,1.5625
526,0.66503906,-0.07598877,0.7772827,4.34375,12.5,0.046875
527,0.74121094,-0.05987549,0.81365967,1.765625,4.953125,-2.609375
528,0.72094727,-0.047180176,0.78948975,-3.515625,1.421875,-2.84375
529,0.67211914,-0.028137207,0.7518921,-8.8125,0.546875,-0.21875
530,0.6503906,-0.018127441,0.7509155,-6.453125,1.9375,0.25
531,0.7062988,0.0014038086,0.7518921,-0.625,3.109375,1.1875
532,0.72558594,0.03314209,0.6251831,12.8125,23.203125,5.09375
533,0.767334,-0.024230957,0.7538452,15.234375,37.84375,4.71875
534,0.76904297,-0.1375122,0.7506714,18.640625,9.859375,6.15625
535,0.7416992,-0.05621338,0.63031006,-3.6875,-1.859375,4.96875
536,0.72558594,-0.05279541,0.7247925,2.53125,4.625,5.21875
537,0.8395996,-0.02520752,0.71868896,-8.921875,-4.84375,7.15625
538,0.78466797,-0.05255127,0.668396,-3.078125,0.265625,9.921875
539,0.70336914,-0.0020141602,0.66522217,-3.359375,-0.890625,4.421875
540,0.7463379,0.024353027,0.72943115,-5.875,-2.734375,8.15625
541,0.876709,0.07562256,0.61224365,-13.796875,-1.8125,-7.734375
542,0.56396484,-0.007873535,0.88446045,-5.609375,-2.0625,-9.53125
543,0.607666,-0.16851807,0.852478,-25.734375,-18.609375,-15.640625
544,0.6242676,-0.053527832,0.72869873,-28.421875,-49.90625,-12.9375
545,0.80981445,0.16986084,0.7025757,-1.75,7.140625,9.203125
546,0.7216797,-0.00592041,0.7260132,4.734375,20.59375,9.1875
547,0.7138672,-0.0012817383,0.7692261,10.3125,-0.28125,-2.671875
548,0.7644043,0.047302246,0.76068115,2.1875,18.6875,3.03125
549,0.6699219,-0.0044555664,0.70843506,3.5,9.546875,4.921875
550,0.83032227,0.030456543,0.7213745,5.796875,4.609375,5.15625
551,0.82373047,0.08026123,0.6564331,6.34375,7.21875,7.109375
552,0.703125,0.003112793,0.6144409,-4.375,-6.015625,-0.8125
553,0.8330078,0.152771,0.8961792,-7.25,-2.53125,-12.515625
554,0.4416504,-0.016662598,0.84954834,-1.890625,-10.703125,-5.1875
555,0.49609375,-0.14678955,0.7460327,-27.953125,-26.625,-12.59375
556,0.5209961,-0.026428223,0.65667725,-17.109375,-49.796875,-1.453125
557,0.8605957,0.12860107,0.76971436,4.59375,18.40625,15.8125
558,0.6616211,0.019714355,0.9059448,6.1875,-3.109375,-5.421875
559,0.67041016,0.015319824,0.80804443,9.3125,-1.46875,-7.4375
560,0.6804199,0.10321045,0.7496948,-1.0,11.140625,2.328125
561,0.6220703,0.010192871,0.8810425,12.640625,17.328125,2.375
562,0.74072266,-0.038146973,0.8822632,11.859375,-2.0,2.4375
563,0.640625,0.014099121,0.7963257,7.84375,-1.0625,-4.578125
564,0.54418945,0.038269043,0.7645874,4.890625,6.0625,-4.703125
565,0.6594238,-0.011291504,0.7970581,5.171875,6.484375,2.484375
566,0.7416992,-0.06060791,0.840271,1.59375,8.84375,-0.4375
567,0.6821289,-0.03765869,0.76068115,-2.6875,5.875,-3.75
568,0.6530762,-0.03765869,0.7514038,3.21875,7.984375,-1.59375
569,0.70043945,-0.023986816,0.7814331,0.859375,2.9375,1.234375
570,0.7338867,-0.028869629,0.7531128,-0.640625,3.71875,0.28125
571,0.7126465,-0.033996582,0.77996826,-1.0625,4.203125,-0.046875
572,0.7155762,-0.03375244,0.77923584,-2.703125,-0.734375,-1.0
573,0.68066406,-0.02178955,0.7536011,-7.8125,-1.578125,-0.296875
574,0.6813965,-0.016174316,0.77337646,-3.671875,-1.71875,-0.390625
575,0.6906738,-0.0032348633,0.7953491,-1.09375,-0.75,-0.546875
576,0.68652344,0.011169434,0.7352905,-2.15625,4.765625,0.4375
577,0.6484375,-0.0032348633,0.71502686,3.140625,9.171875,0.703125
578,0.6616211,-0.015686035,0.7103882,10.609375,17.28125,0.28125
579,0.72631836,-0.010314941,0.73602295,14.546875,18.09375,6.40625
580,0.765625,-0.13482666,0.7662964,4.0,8.234375,3.765625
581,0.85009766,-0.009338379,0.71795654,6.234375,12.09375,5.96875
582,0.6958008,0.009216309,0.7399292,7.9375,16.96875,10.5625
583,0.82006836,-0.028869629,0.67230225,-4.859375,-4.296875,6.59375
584,0.7792969,-0.030090332,0.67718506,3.046875,4.84375,3.09375
585,0.7253418,0.029724121,0.71917725,0.140625,-0.578125,1.84375
586,0.7363281,-0.0076293945,0.6305542,-0.171875,-2.546875,3.1875
587,0.8232422,-0.0068969727,0.65448,4.203125,-0.9375,0.8125
588,0.8010254,0.070007324,0.6881714,-6.21875,2.734375,-1.640625
589,0.67749023,-0.069885254,0.80145264,-6.21875,3.109375,-3.1875
590,0.7072754,-0.17144775,0.743103,-18.1875,-23.140625,-9.453125
591,0.68603516,-0.10089111,0.72821045,-16.203125,-37.375,-7.171875
592,0.6022949,0.1449585,0.7116089,-6.109375,-7.90625,-2.5625
593,0.7961426,0.0119018555,0.75579834,-0.859375,12.4375,3.546875
594,0.5800781,-0.00592041,0.7230835,4.078125,3.953125,-1.8125
595,0.78149414,0.02557373,0.75653076,2.5625,8.921875,1.1875
596,0.70703125,0.04168701,0.7765503,5.984375,14.234375,7.84375
597,0.6555176,-0.06939697,0.7255249,10.8125,16.78125,7.703125
598,0.763916,0.024353027,0.76556396,3.15625,10.375,6.640625
599,0.7890625,-0.04522705,0.69744873,-0.40625,4.765625,4.5
600,0.8041992,0.02923584,0.68670654,13.046875,8.40625,3.6875
601,0.8815918,0.06707764,0.6869507,-13.46875,-19.171875,0.0
602,0.5637207,0.09173584,0.88201904,-15.25,-1.453125,-11.5625
603,0.65185547,-0.03277588,0.8632202,-7.625,-7.984375,-5.484375
604,0.61621094,-0.14263916,0.82611084,-21.921875,-22.734375,-7.765625
605,0.5913086,0.043884277,0.50897217,-16.484375,-53.71875,-2.65625
606,0.75634766,0.17230225,0.76605225,3.71875,23.734375,11.65625
607,0.7055664,-0.0178833,0.8883667,-0.40625,9.421875,0.203125
608,0.7468262,-0.08013916,0.7904663,6.609375,4.390625,-2.1875
609,0.76660156,0.054382324,0.7472534,1.9375,6.046875,-1.265625
610,0.6530762,0.1083374,0.732605,8.921875,11.390625,3.765625
611,0.75,0.036071777,0.76849365,11.640625,10.953125,5.25
612,0.7072754,0.007751465,0.71429443,9.3125,5.453125,4.640625
613,0.8371582,0.124694824,0.63397217,9.890625,12.875,6.390625
614,0.6694336,0.051940918,0.9887085,-3.9375,2.1875,-2.203125
615,0.52905273,-0.12310791,0.77337646,-5.140625,-14.34375,-7.359375
616,0.6176758,-0.105041504,0.86273193,-15.328125,-38.03125,-8.296875
617,0.60668945,0.089538574,0.64178467,-15.59375,-49.234375,-3.5625
618,0.8276367,0.1239624,0.79852295,5.03125,20.328125,11.71875
619,0.57714844,-0.020324707,0.8649292,4.953125,16.0625,-3.25
620,0.6755371,-0.04522705,0.8187866,2.96875,1.4375,-0.546875
621,0.7229004,0.020202637,0.7350464,-2.453125,3.078125,0.328125
622,0.7163086,0.018737793,0.7145386,3.609375,11.0,-2.84375
623,0.6586914,0.0033569336,0.8908081,6.3125,4.78125,-4.09375
624,0.6689453,0.16497803,0.758728,0.28125,12.71875,5.734375
625,0.76220703,0.024353027,0.80145264,-2.0,8.59375,-1.703125
626,0.7702637,0.06512451,0.8029175,-9.53125,-3.03125,-5.65625
627,0.5292969,0.08392334,0.84783936,-1.90625,-6.71875,-6.28125
628,0.57470703,-0.07110596,0.7965698,-9.359375,-14.9375,-0.375
629,0.6591797,-0.046203613,0.90374756,-12.546875,-32.546875,-3.171875
630,0.6623535,0.030456543,0.73895264,1.1875,-10.328125,1.78125
631,0.59228516,0.070495605,0.7826538,10.8125,19.046875,4.40625
632,0.6203613,-0.00079345703,0.79608154,16.578125,19.5,-0.953125
633,0.8166504,-0.034729004,0.80511475,6.0,4.203125,-0.421875
634,0.7050781,-0.009338379,0.78167725,0.53125,3.609375,-0.6875
635,0.6496582,0.0038452148,0.774353,5.203125,3.921875,-4.515625
636,0.64941406,-0.023986816,0.8041382,9.765625,5.90625,-1.375
637,0.65600586,-0.010314941,0.7885132,9.828125,0.171875,-0.859375
638,0.6633301,-0.035705566,0.83636475,10.515625,7.765625,0.09375
639,0.72509766,-0.06719971,0.8317261,7.859375,8.875,1.0
640,0.67700195,-0.057678223,0.7831421,3.9375,-1.53125,-3.3125
641,0.7109375,-0.081848145,0.79315186,-0.015625,-2.0,-4.40625
642,0.65966797,-0.10626221,0.81463623,-4.34375,-1.375,-3.609375
643,0.642334,-0.057922363,0.7772827,-7.40625,-11.625,-2.9375
644,0.6633301,-0.049621582,0.7736206,-8.46875,-5.40625,-3.484375
645,0.66381836,-0.031799316,0.7909546,-4.5625,1.8125,0.96875
646,0.67749023,-0.015930176,0.7706909,4.484375,6.6875,1.53125
647,0.6586914,-0.043273926,0.7074585,14.3125,30.3125,4.453125
648,0.67626953,-0.0803833,0.81829834,11.71875,14.578125,5.03125
649,0.7463379,-0.09967041,0.73114014,-1.96875,-11.640625,4.875
650,0.7553711,-0.073791504,0.7736206,-15.359375,-10.625,-0.6875
651,0.6977539,0.003112793,0.74212646,6.90625,10.4375,7.90625
652,0.6894531,0.019470215,0.8463745,-3.484375,2.375,4.1875
653,0.6723633,-0.016174316,0.77508545,-1.65625,2.609375,3.53125
654,0.6755371,-0.011779785,0.70233154,-2.390625,3.828125,-1.03125
655,0.70336914,0.030700684,0.9213257,-12.109375,2.25,-7.421875
656,0.60180664,-0.053527832,0.8773804,-9.8125,-5.421875,-2.109375
657,0.6164551,-0.15020752,0.8654175,-20.609375,-19.796875,-8.875
658,0.5805664,-0.011779785,0.6954956,-21.6875,-35.703125,-7.078125
659,0.75341797,0.059020996,0.79193115,3.65625,9.640625,6.46875
660,0.6184082,-0.038391113,0.8043823,0.625,5.28125,2.28125
661,0.7351074,-0.054748535,0.83148193,8.65625,2.921875,0.875
662,0.7414551,0.038024902,0.8119507,0.453125,7.0625,0.28125
663,0.6345215,0.030700684,0.7526245,7.125,13.671875,5.53125
664,0.7421875,0.034362793,0.762146,3.53125,11.671875,8.375
665,0.76171875,0.039978027,0.9081421,8.828125,14.859375,8.453125
666,0.71362305,-0.0115356445,0.5067749,-5.484375,-12.421875,-3.484375
667,0.68066406,0.13763428,0.98309326,-0.140625,3.34375,-6.90625
668,0.51831055,0.02947998,0.90911865,-3.171875,-4.421875,-1.875
669,0.48291016,-0.14898682,0.85272217,-13.328125,-13.546875,-12.484375
670,0.58740234,-0.089904785,0.58270264,-17.578125,-49.390625,1.109375
671,0.6623535,-0.09698486,0.8463745,-4.890625,5.6875,12.296875
672,0.68847656,-0.058898926,0.86932373,1.15625,-5.0,-5.453125
673,0.65649414,0.07562256,0.836853,1.90625,2.609375,-5.109375
674,0.5900879,0.05291748,0.8485718,-2.59375,7.578125,-0.796875
675,0.5925293,-0.034973145,0.8356323,-2.890625,0.71875,-0.171875
676,0.6604004,0.0033569336,0.85687256,1.28125,0.03125,1.796875
677,0.6345215,0.041931152,0.86151123,2.5625,0.875,1.4375
678,0.5786133,0.03338623,0.8739624,5.671875,10.296875,0.3125
679,0.5966797,0.014099121,0.85687256,1.328125,3.0625,0.265625
680,0.61572266,-0.013977051,0.8446655,3.59375,5.859375,-2.03125
681,0.61499023,-0.011779785,0.8468628,7.515625,9.40625,-1.34375
682,0.6574707,-0.02911377,0.79119873,8.4375,3.875,-1.234375
683,0.66845703,-0.022033691,0.8102417,1.984375,6.421875,1.984375
684,0.6652832,-0.0413208,0.8331909,4.046875,9.171875,-0.0625
685,0.64331055,-0.024963379,0.7662964,2.015625,2.796875,-0.625
686,0.69677734,-0.020812988,0.79437256,3.9375,1.875,0.25
687,0.6672363,-0.0012817383,0.78045654,3.03125,7.875,0.921875
688,0.6455078,-0.02178955,0.7538452,8.984375,11.875,1.609375
689,0.6723633,-0.038146973,0.79559326,9.265625,11.328125,3.71875
690,0.70581055,-0.08404541,0.7977905,7.578125,8.390625,3.828125
691,0.70825195,-0.07574463,0.79803467,2.125,2.625,-0.109375
692,0.70703125,-0.07208252,0.76483154,-0.0625,-1.390625,-1.015625
693,0.7026367,-0.04815674,0.746521,-3.84375,1.578125,-0.671875
694,0.6977539,-0.035705566,0.74871826,-2.71875,5.953125,0.78125
695,0.6994629,-0.04156494,0.7682495,2.46875,9.46875,1.515625
696,0.7207031,-0.058166504,0.75286865,1.640625,0.875,0.96875
697,0.7114258,-0.05645752,0.7562866,0.28125,-0.078125,1.875
698,0.7038574,-0.059631348,0.75579834,-0.21875,-1.53125,2.125
699,0.7404785,-0.047424316,0.75946045,-0.4375,1.34375,2.90625
700,0.6994629,-0.0491333,0.7460327,-0.84375,2.953125,2.78125
701,0.7104492,-0.026428223,0.74798584,-1.234375,2.203125,3.21875
702,0.74243164,-0.037902832,0.7496948,-1.734375,5.984375,4.046875
703,0.73046875,-0.023498535,0.7255249,-4.5,2.6875,5.96875
704,0.7770996,0.019958496,0.6244507,-6.71875,9.515625,6.234375
705,0.8083496,-0.03277588,0.6325073,-16.875,5.03125,2.921875
706,0.6254883,0.17156982,0.91619873,-6.21875,3.046875,-5.375
707,0.7739258,0.06512451,0.8300171,-7.09375,-3.390625,-2.515625
708,0.62353516,-0.10821533,0.8366089,-11.671875,-16.21875,-6.109375
709,0.6291504,-0.074523926,0.6989136,-19.0625,-38.859375,-5.828125
710,0.6262207,0.028259277,0.732605,-4.734375,-6.734375,-1.1875
711,0.7163086,0.034362793,0.8295288,-1.59375,-0.421875,-2.78125
712,0.7001953,-0.008850098,0.81951904,5.34375,-2.859375,-5.484375
713,0.68188477,0.0040893555,0.807312,3.609375,-3.828125,-4.4375
714,0.654541,0.047302246,0.80804443,4.921875,3.375,0.9375
715,0.671875,0.0072631836,0.77996826,9.40625,13.4375,2.96875
716,0.7001953,-0.0029907227,0.78460693,10.890625,10.359375,2.515625
717,0.66064453,-0.043762207,0.7843628,6.75,2.09375,-1.109375
718,0.6706543,-0.04425049,0.7826538,4.0,1.625,-3.015625
719,0.7109375,-0.038635254,0.79486084,5.546875,8.0,-2.609375
720,0.6923828,-0.055236816,0.795105,2.8125,6.125,-0.71875
721,0.70654297,-0.053527832,0.78900146,-0.28125,-7.359375,-1.578125
722,0.70654297,-0.043029785,0.76898193,-4.34375,-1.984375,-2.078125
723,0.673584,-0.0413208,0.77996826,-2.53125,4.203125,0.34375
724,0.68725586,-0.043029785,0.7616577,0.625,7.640625,1.1875
725,0.6828613,-0.024230957,0.71673584,12.828125,19.0625,1.765625
726,0.72924805,-0.047912598,0.791687,9.828125,24.65625,3.40625
727,0.7236328,-0.027893066,0.64178467,2.171875,-2.1875,7.203125
728,0.7578125,-0.013244629,0.6622925,-0.734375,10.625,7.71875
729,0.7944336,0.0038452148,0.7909546,3.3125,-0.21875,10.71875
730,0.6923828,0.0036010742,0.75531006,-5.109375,-7.6875,5.859375
731,0.84375,0.03778076,0.8082886,6.046875,-1.8125,1.125
732,0.6970215,0.029724121,0.5831909,-1.640625,-3.40625,-5.453125
733,0.7932129,0.02947998,0.8019409,2.625,7.75,-8.921875
734,0.6645508,-0.26641846,0.7484741,-22.59375,-8.46875,-1.484375
735,0.6188965,-0.19439697,0.8031616,-15.140625,-22.875,0.359375
736,0.6203613,0.06365967,0.65911865,-25.9375,-58.390625,-9.15625
737,0.9638672,0.086120605,0.83709717,5.765625,6.578125,3.515625
738,0.59472656,-0.07281494,0.8109741,-0.78125,8.0,-3.703125
739,0.70410156,-0.04449463,0.791687,7.546875,7.09375,-2.5
740,0.623291,0.047790527,0.79974365,1.828125,5.625,3.359375
741,0.6777344,0.028503418,0.8043823,8.15625,8.15625,6.234375
742,0.6621094,-0.0005493164,0.7196655,5.8125,20.65625,9.890625
743,0.78125,0.06097412,0.74676514,6.75,13.125,15.5
744,0.8811035,0.07757568,0.869812,-11.921875,-7.1875,-0.75
745,0.4296875,-0.015197754,0.83270264,-4.09375,-2.25,-8.765625
746,0.6640625,-0.14703369,0.7975464,-12.375,-20.453125,-14.0625
747,0.7141113,-0.07891846,0.72772217,-28.71875,-54.953125,-5.453125
748,0.69799805,0.09515381,0.72869873,5.34375,6.90625,11.5625
749,0.5493164,0.019714355,0.85687256,-0.875,-5.0,-0.84375
750,0.78564453,0.032165527,0.8493042,12.421875,1.171875,-1.765625
751,0.6315918,0.018005371,0.84588623,3.453125,11.765625,-3.578125
752,0.5957031,-0.0012817383,0.8126831,5.4375,7.796875,0.90625
753,0.717041,-0.019836426,0.87298584,19.890625,32.09375,6.609375
754,0.6726074,-0.07305908,0.79608154,0.90625,0.296875,-5.59375
755,0.6257324,0.007019043,0.7062378,1.390625,-4.515625,-8.8125
756,0.5957031,0.1630249,0.951355,2.1875,-1.546875,-19.40625
757,0.6364746,-0.11871338,0.8353882,-3.75,-5.375,-5.546875
758,0.5734863,-0.25738525,0.7665405,-28.40625,-30.953125,3.421875
759,0.42333984,0.00579834,0.68743896,-12.6875,-25.65625,7.5
