sample_no,accel_x,accel_y,accel_z,gyro_x,gyro_y,gyro_z
0,0.38452148,-0.18096924,-0.8904419,0.5,0.21875,0.171875
1,0.3894043,-0.17437744,-0.9109497,0.15625,-0.859375,0.25
2,0.39990234,-0.17266846,-0.88848877,-1.921875,0.421875,-0.53125
3,0.3918457,-0.1843872,-0.8804321,-1.1875,1.671875,-0.40625
4,0.38549805,-0.18634033,-0.87823486,-1.171875,0.6875,0.203125
5,0.3840332,-0.18927002,-0.87994385,-2.1875,0.296875,0.359375
6,0.38427734,-0.18170166,-0.90216064,-1.953125,1.25,0.265625
7,0.38061523,-0.18560791,-0.8897095,0.828125,0.140625,0.4375
8,0.38793945,-0.19000244,-0.91363525,1.8125,-0.109375,0.765625
9,0.38208008,-0.18511963,-0.92071533,0.59375,-0.28125,0.015625
10,0.3696289,-0.18634033,-0.86431885,2.8125,-4.734375,1.1875
11,0.39013672,-0.17877197,-0.8855591,2.53125,-2.984375,1.109375
12,0.39990234,-0.18267822,-0.9038696,2.359375,-2.59375,0.875
13,0.40893555,-0.17877197,-0.93414307,4.328125,-3.390625,1.0
14,0.41210938,-0.16607666,-0.8945923,0.40625,-4.671875,-0.28125
15,0.40698242,-0.16925049,-0.8562622,-0.375,-2.0625,-0.515625
16,0.40893555,-0.16412354,-0.87457275,-0.5,0.03125,-0.671875
17,0.40795898,-0.175354,-0.8760376,-0.765625,-1.15625,-0.765625
18,0.4140625,-0.18121338,-0.89971924,-0.578125,-1.21875,-0.703125
19,0.4255371,-0.1831665,-0.95513916,-5.0625,-6.296875,-2.828125
20,0.41552734,-0.19049072,-0.7761841,-1.828125,-4.15625,-2.6875
21,0.40454102,-0.18341064,-0.79278564,2.984375,10.859375,-1.125
22,0.40454102,-0.18634033,-0.8999634,2.03125,11.1875,-1.140625
23,0.3947754,-0.19268799,-0.9163208,2.46875,6.234375,-0.5625
24,0.38305664,-0.18487549,-0.8977661,3.53125,5.453125,-0.015625
25,0.37475586,-0.17877197,-0.9451294,2.5,1.390625,0.390625
26,0.3803711,-0.18121338,-0.9109497,1.078125,-0.4375,0.3125
27,0.37719727,-0.17559814,-0.8826294,2.78125,-1.78125,0.859375
28,0.40795898,-0.17608643,-0.9561157,1.953125,-2.265625,0.578125
29,0.3972168,-0.16705322,-0.9451294,-6.6875,-3.984375,-1.53125
30,0.39404297,-0.1987915,-0.9246216,-11.84375,-8.109375,-2.484375
31,0.36694336,-0.19390869,-0.6897583,-4.609375,-5.546875,-6.4375
32,0.39013672,-0.22125244,-0.8098755,2.5,17.40625,-2.171875
33,0.3762207,-0.20172119,-0.9155884,1.796875,11.140625,-1.59375
34,0.36816406,-0.2156372,-0.90753174,4.140625,4.4375,0.203125
35,0.36914062,-0.20050049,-0.9282837,6.453125,4.1875,1.171875
36,0.36010742,-0.1885376,-0.9260864,4.828125,1.0625,1.234375
37,0.359375,-0.18658447,-0.92681885,2.296875,-0.140625,0.453125
38,0.34814453,-0.18341064,-0.8921509,1.0,-0.578125,0.359375
39,0.36376953,-0.18536377,-0.9053345,0.84375,-0.859375,0.046875
40,0.3671875,-0.18682861,-0.9036255,0.609375,-0.703125,-0.140625
41,0.36669922,-0.1843872,-0.8987427,0.203125,-0.0625,-0.125
42,0.36376953,-0.18023682,-0.8928833,-0.015625,0.609375,-0.109375
43,0.35668945,-0.18267822,-0.90338135,-0.09375,0.40625,-0.03125
44,0.36914062,-0.18511963,-0.90093994,-0.328125,0.59375,-0.15625
45,0.36450195,-0.18243408,-0.8855591,-0.5,0.84375,0.09375
46,0.36254883,-0.19049072,-0.8999634,-0.78125,1.15625,0.3125
47,0.3671875,-0.18560791,-0.89678955,-1.328125,0.84375,0.203125
48,0.35888672,-0.19146729,-0.8960571,-2.109375,0.0625,0.359375
49,0.3569336,-0.1921997,-0.90631104,-1.9375,-0.78125,0.359375
50,0.3642578,-0.19805908,-0.9026489,-1.484375,-0.921875,0.34375
51,0.36450195,-0.19586182,-0.9104614,-0.28125,-1.171875,0.359375
52,0.36669922,-0.19342041,-0.90338135,0.703125,-1.640625,0.5
53,0.37280273,-0.19927979,-0.9116821,1.640625,-3.953125,0.890625
54,0.37573242,-0.18365479,-0.89190674,5.203125,-4.90625,1.875
55,0.39941406,-0.18951416,-0.92144775,5.609375,-1.9375,1.234375
56,0.38452148,-0.17120361,-0.92144775,4.90625,-4.015625,0.8125
57,0.39013672,-0.16119385,-0.8821411,1.328125,-6.609375,-0.09375
58,0.39575195,-0.1651001,-0.8545532,-0.21875,-3.828125,-0.328125
59,0.39038086,-0.16339111,-0.86260986,-0.953125,-1.75,-0.3125
60,0.4038086,-0.17877197,-0.89263916,-1.734375,-1.40625,-0.640625
61,0.40966797,-0.1843872,-0.90875244,-3.25,-1.75,-0.828125
62,0.43066406,-0.18048096,-0.93292236,-9.453125,-4.9375,-2.1875
63,0.42797852,-0.19708252,-0.80914307,-6.9375,-2.28125,-2.65625
64,0.3852539,-0.19976807,-0.77471924,-0.03125,7.125,-1.109375
65,0.3942871,-0.20098877,-0.8674927,3.703125,13.9375,-0.40625
66,0.38012695,-0.20245361,-0.91412354,5.375,8.296875,0.359375
67,0.375,-0.19342041,-0.9102173,4.828125,4.03125,0.875
68,0.37939453,-0.19732666,-0.95440674,3.5625,1.90625,0.71875
69,0.37451172,-0.18096924,-0.9116821,1.96875,-0.921875,0.40625
70,0.37451172,-0.17584229,-0.8982544,2.734375,-1.34375,0.734375
71,0.37670898,-0.18414307,-0.9060669,2.5625,-1.9375,0.625
72,0.39648438,-0.18218994,-0.9475708,1.875,-0.234375,0.296875
73,0.3942871,-0.17803955,-0.9404907,-5.234375,-0.359375,-1.65625
74,0.38305664,-0.1831665,-0.90802,-13.21875,-6.171875,-2.296875
75,0.38867188,-0.17633057,-0.79693604,-8.140625,-3.328125,-3.0625
76,0.36791992,-0.21734619,-0.8118286,-2.484375,5.921875,-2.75
77,0.37304688,-0.23175049,-0.8760376,0.0625,10.078125,-1.75
78,0.35864258,-0.2234497,-0.88360596,3.734375,5.40625,0.0
79,0.3684082,-0.21490479,-0.88482666,7.671875,1.921875,1.265625
80,0.35839844,-0.19073486,-0.92926025,8.78125,0.25,1.53125
81,0.3696289,-0.18927002,-0.9212036,6.46875,-2.4375,0.9375
82,0.37402344,-0.1873169,-0.91656494,2.9375,-1.8125,0.359375
83,0.37768555,-0.17071533,-0.91656494,1.90625,-1.765625,0.34375
84,0.38256836,-0.17926025,-0.9151001,-0.90625,-1.109375,-0.5625
85,0.3779297,-0.17755127,-0.9348755,-5.046875,-2.484375,-1.03125
86,0.37451172,-0.1951294,-0.8587036,-6.03125,-1.21875,-1.515625
87,0.35253906,-0.20074463,-0.866272,-5.90625,-0.9375,-1.8125
88,0.3647461,-0.21734619,-0.87164307,-2.578125,5.6875,-2.109375
89,0.34814453,-0.19586182,-0.8616333,-0.234375,3.59375,-0.859375
90,0.35131836,-0.2053833,-0.85406494,3.40625,2.265625,0.546875
91,0.35766602,-0.21051025,-0.9234009,5.046875,-0.015625,1.359375
92,0.37280273,-0.20635986,-0.94195557,4.921875,-2.53125,1.734375
93,0.3762207,-0.20123291,-0.9192505,2.921875,-0.828125,0.703125
94,0.36669922,-0.18756104,-0.88946533,2.0625,1.109375,0.28125
95,0.36376953,-0.18292236,-0.89385986,2.375,1.6875,0.109375
96,0.35546875,-0.18341064,-0.88848877,2.015625,1.734375,0.09375
97,0.36376953,-0.18878174,-0.9060669,1.25,2.0,-0.015625
98,0.35253906,-0.18804932,-0.8987427,0.375,1.234375,-0.015625
99,0.3544922,-0.18536377,-0.9077759,0.40625,0.859375,-0.015625
100,0.3557129,-0.18243408,-0.9055786,0.46875,0.3125,0.078125
101,0.35351562,-0.18902588,-0.8994751,0.703125,0.359375,0.25
102,0.3540039,-0.1831665,-0.90460205,0.390625,0.3125,0.296875
103,0.35375977,-0.18243408,-0.9038696,0.140625,0.484375,0.171875
104,0.35083008,-0.18389893,-0.9060669,-0.25,0.421875,0.203125
105,0.3569336,-0.18658447,-0.9038696,-0.90625,-0.40625,0.203125
106,0.35668945,-0.18463135,-0.9067993,-0.875,-0.5625,0.34375
107,0.35180664,-0.1897583,-0.91363525,-0.234375,-0.75,0.46875
108,0.36010742,-0.18243408,-0.9048462,0.34375,-0.75,0.40625
109,0.35791016,-0.18756104,-0.9043579,0.640625,-0.875,0.390625
110,0.35327148,-0.1819458,-0.8989868,0.8125,-0.46875,0.375
111,0.36401367,-0.18536377,-0.90411377,0.3125,-0.34375,0.109375
112,0.3647461,-0.18609619,-0.8987427,0.390625,0.078125,-0.046875
113,0.36572266,-0.18463135,-0.8911743,1.484375,-1.140625,0.4375
114,0.36547852,-0.17462158,-0.8948364,2.125,-1.25,0.921875
115,0.3659668,-0.17901611,-0.91412354,1.140625,-0.640625,0.828125
116,0.36547852,-0.17608643,-0.8970337,1.609375,-1.140625,0.703125
117,0.3708496,-0.17584229,-0.91607666,1.4375,-1.703125,0.8125
118,0.36621094,-0.16851807,-0.92803955,1.40625,-4.734375,1.1875
119,0.38330078,-0.17340088,-0.89141846,0.53125,-6.25,0.9375
120,0.40014648,-0.17974854,-0.928772,1.203125,-1.046875,-0.03125
121,0.3947754,-0.17999268,-0.91900635,2.28125,-3.484375,0.28125
122,0.39672852,-0.16241455,-0.8867798,1.4375,-7.5625,0.484375
123,0.3984375,-0.16241455,-0.84552,-1.21875,-5.90625,-0.5625
124,0.39990234,-0.16998291,-0.8430786,-1.15625,-1.96875,-0.453125
125,0.40600586,-0.17437744,-0.8609009,0.03125,-0.46875,-0.125
126,0.41918945,-0.17877197,-0.91534424,-0.828125,0.359375,-0.53125
127,0.41381836,-0.18121338,-0.8982544,-1.046875,-0.46875,-0.46875
128,0.41870117,-0.17218018,-0.8731079,-0.703125,0.453125,-0.46875
129,0.4194336,-0.17926025,-1.0003052,-2.90625,-1.5625,-0.953125
130,0.41259766,-0.17755127,-0.8335571,-4.703125,-5.21875,-2.359375
131,0.41088867,-0.1795044,-0.75982666,0.59375,6.0625,-1.15625
132,0.4050293,-0.19610596,-0.9024048,2.375,12.0625,-1.078125
133,0.4008789,-0.1987915,-0.9180298,2.59375,4.890625,-0.296875
134,0.3876953,-0.19049072,-0.9077759,2.828125,1.890625,0.375
135,0.38916016,-0.18927002,-0.90289307,4.203125,-0.25,1.3125
136,0.39916992,-0.17022705,-0.9158325,2.5625,-0.609375,0.84375
137,0.3955078,-0.17095947,-0.88287354,0.859375,-0.734375,0.34375
138,0.39819336,-0.17608643,-0.9036255,0.5,-0.703125,0.125
139,0.39990234,-0.1675415,-0.9092407,0.03125,-1.5,-0.015625
140,0.40234375,-0.17877197,-0.91363525,-1.5,-0.9375,-0.515625
141,0.40161133,-0.18170166,-0.9194946,-6.4375,0.140625,-1.734375
142,0.4128418,-0.19659424,-1.062561,-9.59375,-8.53125,-0.984375
143,0.4243164,-0.18218994,-0.8286743,-14.703125,-17.515625,-3.296875
144,0.40551758,-0.2000122,-0.5425415,-3.9375,-2.828125,-1.984375
145,0.40698242,-0.21173096,-0.8088989,5.828125,23.78125,-1.359375
146,0.39453125,-0.21832275,-0.94659424,7.6875,10.3125,-0.421875
147,0.39892578,-0.21783447,-0.91851807,6.328125,3.5625,0.71875
148,0.39794922,-0.21270752,-0.927063,5.703125,4.8125,0.953125
149,0.38549805,-0.19537354,-0.9121704,4.234375,3.546875,0.859375
150,0.37426758,-0.18780518,-0.89068604,3.03125,2.640625,0.59375
151,0.37548828,-0.18536377,-0.8858032,1.65625,2.421875,0.296875
152,0.3713379,-0.18243408,-0.90826416,0.59375,2.671875,-0.15625
153,0.37304688,-0.18609619,-0.90753174,0.046875,1.671875,-0.1875
154,0.3713379,-0.18902588,-0.9036255,-0.125,1.140625,-0.234375
155,0.36694336,-0.18634033,-0.894104,0.703125,0.8125,0.21875
156,0.36376953,-0.18780518,-0.8928833,1.1875,0.171875,0.4375
157,0.3701172,-0.1795044,-0.8970337,0.453125,-0.03125,0.5625
158,0.36645508,-0.17828369,-0.9024048,-0.46875,0.546875,0.3125
159,0.37109375,-0.17852783,-0.89263916,-0.234375,0.5,0.296875
160,0.3696289,-0.18682861,-0.894104,-0.140625,0.125,0.40625
161,0.37182617,-0.18414307,-0.9053345,0.25,0.0,0.328125
162,0.36889648,-0.1831665,-0.90997314,0.578125,-0.234375,0.125
163,0.37060547,-0.18389893,-0.91534424,1.171875,-0.890625,0.296875
164,0.36694336,-0.18707275,-0.9011841,0.953125,-2.53125,0.21875
165,0.37182617,-0.17755127,-0.89556885,3.421875,-3.8125,1.03125
166,0.37670898,-0.17047119,-0.8765259,2.984375,-4.09375,1.0
167,0.3815918,-0.17095947,-0.894104,1.265625,-2.828125,0.453125
168,0.3918457,-0.17681885,-0.8970337,2.1875,-2.09375,0.53125
169,0.39038086,-0.17095947,-0.8826294,1.15625,-2.65625,0.34375
170,0.38916016,-0.16778564,-0.8792114,0.640625,-2.078125,0.171875
171,0.40014648,-0.16827393,-0.892395,0.203125,-1.046875,-0.0625
172,0.4008789,-0.17095947,-0.8994751,-0.234375,-1.546875,-0.15625
173,0.4020996,-0.17510986,-0.8760376,-0.28125,-1.875,-0.09375
174,0.40576172,-0.17242432,-0.90631104,1.015625,-0.21875,0.0
175,0.41015625,-0.16607666,-0.9014282,-0.953125,-1.671875,-0.4375
176,0.40551758,-0.17218018,-0.89727783,-1.765625,-2.1875,-0.921875
177,0.41796875,-0.17877197,-0.9570923,-5.171875,-5.8125,-1.4375
178,0.40283203,-0.18780518,-0.7984009,-6.546875,-6.8125,-2.5
179,0.40014648,-0.17877197,-0.77471924,0.015625,3.953125,-0.859375
180,0.40454102,-0.1975708,-0.87701416,3.21875,12.234375,-0.703125
181,0.3947754,-0.19073486,-0.90582275,4.34375,6.671875,0.125
182,0.3876953,-0.18365479,-0.90753174,3.984375,3.0625,0.5625
183,0.39086914,-0.18341064,-0.909729,3.109375,2.0,0.5625
184,0.38549805,-0.17144775,-0.9038696,1.78125,0.453125,0.5
185,0.38354492,-0.18170166,-0.8862915,1.734375,0.21875,0.375
186,0.3881836,-0.17437744,-0.9031372,2.234375,-0.3125,0.453125
187,0.39111328,-0.17144775,-0.9151001,1.125,-0.9375,0.109375
188,0.39501953,-0.17218018,-0.9463501,-3.546875,-0.375,-0.953125
189,0.40283203,-0.190979,-0.9212036,-12.90625,0.90625,-3.4375
190,0.36083984,-0.19415283,-0.7593384,-10.390625,-1.28125,-3.5
191,0.35864258,-0.21514893,-0.8296509,-0.203125,8.8125,-2.0625
192,0.37524414,-0.21929932,-0.9109497,6.609375,6.609375,0.125
193,0.36108398,-0.20855713,-0.8960571,5.59375,1.046875,0.90625
194,0.36865234,-0.18902588,-0.91412354,5.875,1.03125,1.515625
195,0.36914062,-0.1885376,-0.9248657,2.4375,0.3125,0.65625
196,0.37109375,-0.18560791,-0.9024048,0.578125,0.484375,0.03125
197,0.36572266,-0.18634033,-0.8965454,0.484375,1.6875,-0.125
198,0.36572266,-0.19586182,-0.90045166,0.625,2.5625,-0.21875
199,0.35913086,-0.1897583,-0.9038696,0.84375,1.515625,-0.140625
200,0.35961914,-0.18658447,-0.9031372,0.59375,0.40625,-0.046875
201,0.3544922,-0.19244385,-0.9031372,0.5,0.21875,0.15625
202,0.3605957,-0.19073486,-0.8945923,0.671875,-0.296875,0.203125
203,0.35888672,-0.18536377,-0.8928833,0.421875,0.078125,0.140625
204,0.36132812,-0.1831665,-0.89556885,0.6875,0.359375,0.21875
205,0.36206055,-0.18560791,-0.8948364,0.5625,0.484375,0.265625
206,0.3581543,-0.18634033,-0.911438,0.109375,1.078125,0.109375
207,0.35913086,-0.17608643,-0.90826416,-0.28125,0.65625,-0.015625
208,0.35424805,-0.1873169,-0.9065552,-0.921875,0.15625,-0.078125
209,0.3564453,-0.19171143,-0.90997314,-0.671875,0.4375,-0.25
210,0.35498047,-0.19488525,-0.90216064,0.140625,0.078125,0.046875
211,0.35913086,-0.19049072,-0.9053345,0.140625,-0.109375,0.015625
212,0.3540039,-0.19586182,-0.8904419,0.15625,-0.21875,0.140625
213,0.35668945,-0.19024658,-0.90338135,0.171875,0.125,0.046875
214,0.36206055,-0.18780518,-0.9043579,0.921875,-0.453125,0.34375
215,0.359375,-0.18829346,-0.9209595,1.671875,-1.984375,0.609375
216,0.35766602,-0.18389893,-0.92559814,3.828125,-5.609375,1.359375
217,0.38549805,-0.18096924,-0.9036255,3.109375,-5.375,1.015625
218,0.38012695,-0.17730713,-0.91290283,2.140625,-4.8125,0.21875
219,0.39526367,-0.17193604,-0.90093994,0.015625,-8.984375,0.296875
220,0.38964844,-0.16217041,-0.81915283,-1.0625,-6.78125,-0.015625
221,0.39916992,-0.17388916,-0.85821533,-1.15625,-1.296875,-0.34375
222,0.39379883,-0.1831665,-0.86798096,-0.90625,-2.28125,-0.28125
223,0.4086914,-0.19195557,-0.9014282,-0.484375,-1.09375,-0.109375
224,0.40014648,-0.18121338,-0.8921509,-0.234375,-0.34375,-0.015625
225,0.4050293,-0.18218994,-0.8706665,0.53125,-1.03125,0.078125
226,0.41503906,-0.17779541,-0.8833618,0.875,0.6875,0.078125
227,0.4128418,-0.17877197,-0.8779907,-0.171875,-0.28125,-0.296875
228,0.4152832,-0.1795044,-0.892395,-1.5,-1.28125,-0.703125
229,0.42822266,-0.19268799,-1.1106567,-5.25,-6.109375,-1.75
230,0.43847656,-0.19952393,-0.8545532,-16.015625,-21.015625,-5.59375
231,0.39135742,-0.2588501,-0.6470337,0.421875,-1.609375,-1.78125
232,0.42504883,-0.21221924,-0.85357666,5.390625,23.96875,-1.328125
233,0.4182129,-0.23028564,-0.9692993,6.234375,11.015625,0.109375
234,0.40771484,-0.20709229,-0.892395,5.15625,3.90625,0.546875
235,0.39648438,-0.1963501,-0.8948364,4.78125,3.734375,1.046875
236,0.40063477,-0.18511963,-0.9031372,3.390625,1.359375,0.828125
237,0.39819336,-0.18463135,-0.8987427,1.484375,0.359375,0.203125
238,0.40014648,-0.18756104,-0.9036255,-1.125,0.765625,-0.234375
239,0.39819336,-0.18267822,-0.9089966,-5.109375,-2.359375,-0.828125
240,0.42260742,-0.21734619,-1.0501099,-6.609375,-5.140625,-1.015625
241,0.4350586,-0.18560791,-0.7268677,-18.203125,-24.296875,-3.890625
242,0.31713867,-0.3484497,-0.6807251,1.59375,-4.0625,-7.359375
243,0.40234375,-0.20684814,-0.8008423,9.515625,26.234375,-0.21875
244,0.37451172,-0.2197876,-0.9607544,7.453125,15.4375,0.28125
245,0.38720703,-0.22393799,-0.9446411,6.65625,5.53125,0.8125
246,0.38061523,-0.20367432,-0.92144775,7.71875,3.375,1.484375
247,0.3798828,-0.18511963,-0.9121704,4.90625,2.359375,1.0625
248,0.37109375,-0.17486572,-0.895813,3.265625,1.71875,0.5625
249,0.37158203,-0.18487549,-0.89849854,1.484375,0.28125,0.21875
250,0.3774414,-0.17779541,-0.92266846,0.40625,-0.734375,0.125
251,0.38476562,-0.1951294,-0.95196533,-0.03125,-0.71875,-0.140625
252,0.38085938,-0.17803955,-0.90704346,-5.484375,-4.65625,-0.921875
253,0.3984375,-0.19927979,-0.91729736,-8.21875,0.171875,-1.328125
254,0.36254883,-0.18609619,-0.8023071,-5.8125,-3.109375,-1.140625
255,0.36450195,-0.20635986,-0.82476807,1.53125,6.65625,-0.375
256,0.3642578,-0.2029419,-0.87091064,2.453125,3.828125,0.015625
257,0.37329102,-0.21026611,-0.9146118,4.578125,1.859375,0.671875
258,0.36987305,-0.20587158,-0.94244385,6.953125,0.078125,1.203125
259,0.37548828,-0.18511963,-0.9116821,3.671875,-1.09375,0.625
260,0.37036133,-0.18780518,-0.90411377,1.984375,-0.453125,0.328125
261,0.37231445,-0.1843872,-0.894104,1.203125,0.296875,0.0
262,0.3737793,-0.18536377,-0.88531494,1.5,1.203125,-0.0625
263,0.36767578,-0.18536377,-0.8977661,2.09375,1.953125,0.15625
264,0.36547852,-0.17803955,-0.90216064,2.203125,2.21875,0.203125
265,0.36572266,-0.18341064,-0.90631104,1.59375,1.984375,0.1875
266,0.36132812,-0.16949463,-0.9077759,1.28125,1.484375,0.078125
267,0.35766602,-0.17022705,-0.9019165,1.03125,0.9375,0.0625
268,0.35424805,-0.175354,-0.8987427,0.90625,0.78125,-0.03125
269,0.36132812,-0.16778564,-0.9055786,0.515625,0.734375,0.015625
270,0.35205078,-0.16998291,-0.9026489,0.21875,0.4375,-0.15625
271,0.35668945,-0.17218018,-0.92266846,-0.265625,1.53125,-0.046875
272,0.35253906,-0.17462158,-0.9014282,0.734375,0.328125,-0.171875
273,0.3557129,-0.16949463,-0.9116821,0.078125,0.265625,-0.140625
274,0.35864258,-0.17144775,-0.90411377,0.171875,-0.3125,0.15625
275,0.3540039,-0.175354,-0.9031372,0.046875,0.15625,0.265625
276,0.3581543,-0.17633057,-0.90582275,0.265625,0.21875,0.34375
277,0.359375,-0.17437744,-0.9060669,0.125,0.578125,0.203125
278,0.35620117,-0.17071533,-0.91290283,0.15625,0.546875,0.234375
279,0.3540039,-0.16778564,-0.9092407,1.0,-0.4375,0.453125
280,0.35375977,-0.16973877,-0.91973877,1.5,-0.640625,0.125
281,0.3544922,-0.16998291,-0.8911743,2.34375,-3.234375,0.65625
282,0.3635254,-0.16778564,-0.91070557,0.703125,-2.40625,-0.015625
283,0.37475586,-0.16436768,-0.91412354,-0.15625,-2.5,-0.40625
284,0.3659668,-0.16265869,-0.8772583,-3.0625,-4.1875,-0.875
285,0.3791504,-0.17706299,-0.9229126,-3.890625,-0.796875,-1.3125
286,0.37548828,-0.18756104,-0.90167236,-5.09375,-3.75,-1.515625
287,0.37597656,-0.1897583,-0.85894775,-3.4375,-3.53125,-1.078125
288,0.37182617,-0.20172119,-0.89141846,-1.9375,1.734375,-1.015625
289,0.37890625,-0.19488525,-0.87164307,-0.9375,-2.09375,-0.609375
290,0.37963867,-0.1921997,-0.9187622,-0.53125,-1.890625,-0.59375
291,0.41967773,-0.18951416,-0.87506104,-10.140625,-15.71875,-2.484375
292,0.39013672,-0.22198486,-0.6824341,-1.484375,-6.375,-3.171875
293,0.39453125,-0.21759033,-0.82281494,9.796875,22.203125,-0.640625
294,0.37573242,-0.19903564,-0.9360962,6.8125,14.109375,-0.203125
295,0.37548828,-0.2131958,-0.95025635,3.890625,0.859375,0.484375
296,0.36328125,-0.20123291,-0.9192505,5.1875,0.09375,1.1875
297,0.37304688,-0.18585205,-0.9192505,4.546875,-0.21875,1.3125
298,0.36499023,-0.17218018,-0.89556885,3.0625,0.078125,0.9375
299,0.36108398,-0.16949463,-0.8916626,2.703125,0.6875,0.734375
300,0.3774414,-0.17340088,-0.940979,1.796875,0.34375,0.234375
301,0.37597656,-0.16680908,-0.97198486,-1.234375,-1.375,-0.5625
302,0.35791016,-0.175354,-0.87579346,-9.3125,-8.453125,-1.59375
303,0.40112305,-0.19561768,-0.89434814,-11.296875,-4.984375,-2.125
304,0.36254883,-0.19464111,-0.7503052,-4.453125,-4.734375,-1.234375
305,0.37841797,-0.21661377,-0.8369751,2.8125,10.140625,-0.703125
306,0.36499023,-0.20050049,-0.909729,3.5,7.46875,-0.09375
307,0.375,-0.206604,-0.9155884,4.4375,3.296875,0.8125
308,0.36376953,-0.18951416,-0.9338989,6.453125,2.875,0.921875
309,0.36279297,-0.18292236,-0.9194946,3.6875,1.015625,0.453125
310,0.3581543,-0.17779541,-0.9109497,2.046875,0.5,0.40625
311,0.35546875,-0.18243408,-0.90338135,1.484375,0.59375,0.25
312,0.35961914,-0.17462158,-0.89678955,1.21875,0.84375,0.265625
313,0.35595703,-0.18023682,-0.89727783,1.140625,0.9375,0.15625
314,0.35864258,-0.1807251,-0.9085083,1.265625,1.5,0.203125
315,0.35546875,-0.1716919,-0.8999634,1.078125,1.015625,0.109375
316,0.35839844,-0.17071533,-0.89630127,1.375,0.984375,0.21875
317,0.35302734,-0.16949463,-0.91241455,1.4375,0.625,0.25
318,0.35546875,-0.17608643,-0.9138794,1.359375,-0.078125,0.390625
319,0.34960938,-0.16949463,-0.911438,1.765625,-0.984375,0.421875
320,0.3540039,-0.16485596,-0.8987427,1.859375,-1.328125,0.609375
321,0.35498047,-0.16925049,-0.91412354,1.25,-2.125,0.484375
322,0.3581543,-0.15802002,-0.9024048,0.703125,-2.296875,0.421875
323,0.35961914,-0.16143799,-0.9026489,-0.328125,-2.03125,0.125
324,0.36523438,-0.16900635,-0.9072876,-0.171875,-1.25,-0.09375
325,0.36914062,-0.1675415,-0.8960571,0.125,-1.171875,0.046875
326,0.37451172,-0.1663208,-0.89801025,0.765625,-0.5625,0.21875
327,0.37475586,-0.16021729,-0.89630127,1.015625,-0.546875,0.296875
328,0.36669922,-0.16973877,-0.9060669,0.6875,0.234375,-0.09375
329,0.37426758,-0.16656494,-0.9055786,0.84375,0.6875,-0.015625
330,0.3701172,-0.16290283,-0.90216064,1.390625,0.4375,0.109375
331,0.37890625,-0.16119385,-0.9241333,0.8125,0.296875,0.109375
332,0.37158203,-0.15753174,-0.9019165,0.125,-0.390625,0.0625
333,0.3696289,-0.1585083,-0.89971924,-0.109375,-0.453125,0.125
334,0.3737793,-0.159729,-0.8936157,0.546875,-1.125,0.015625
335,0.37475586,-0.16143799,-0.8989868,0.375,-0.484375,-0.140625
336,0.36987305,-0.16021729,-0.8960571,0.390625,-0.171875,-0.078125
337,0.3762207,-0.16119385,-0.89727783,0.546875,-0.28125,0.046875
338,0.37304688,-0.15631104,-0.90289307,0.375,-0.796875,-0.09375
339,0.3725586,-0.15704346,-0.9085083,0.59375,-1.359375,0.078125
340,0.38916016,-0.16168213,-0.9500122,1.328125,-1.765625,-0.125
341,0.38476562,-0.16168213,-0.9168091,-5.859375,-10.0,-1.28125
342,0.38989258,-0.17584229,-0.83795166,-4.25,-7.265625,-0.921875
343,0.40014648,-0.1638794,-0.90582275,-3.1875,-2.25,-0.390625
344,0.39819336,-0.16802979,-0.9031372,-5.0,-2.6875,-0.765625
345,0.39038086,-0.18609619,-0.83795166,-5.03125,-1.296875,-1.375
346,0.39404297,-0.1975708,-0.83380127,-0.484375,5.25,-1.109375
347,0.39282227,-0.18487549,-0.85357666,3.375,8.640625,-0.171875
348,0.3798828,-0.1819458,-0.8670044,4.546875,6.96875,0.078125
349,0.37719727,-0.18292236,-0.90948486,5.0625,8.046875,0.234375
350,0.3708496,-0.17340088,-0.93634033,3.375,4.421875,0.453125
351,0.3671875,-0.17437744,-0.9104614,2.109375,2.4375,0.328125
352,0.36157227,-0.16436768,-0.9048462,2.0625,1.734375,0.40625
353,0.36572266,-0.16558838,-0.91119385,1.53125,0.921875,0.34375
354,0.36523438,-0.16705322,-0.9146118,0.578125,0.0625,0.203125
355,0.3623047,-0.16973877,-0.90289307,0.03125,-0.3125,0.125
356,0.36523438,-0.16314697,-0.9043579,-0.046875,-0.75,0.0625
357,0.35668945,-0.16729736,-0.88653564,0.046875,-0.203125,-0.015625
358,0.3635254,-0.1663208,-0.8936157,-0.265625,0.75,-0.015625
359,0.36401367,-0.16851807,-0.9006958,-0.46875,1.671875,0.0625
360,0.35986328,-0.17388916,-0.90948486,-0.203125,1.578125,0.125
361,0.36083984,-0.17095947,-0.9194946,-0.09375,1.015625,0.21875
362,0.3605957,-0.16949463,-0.90826416,0.375,0.09375,0.28125
363,0.36499023,-0.16973877,-0.9055786,0.5625,-0.3125,0.140625
364,0.35864258,-0.17144775,-0.9168091,1.0,-0.78125,0.234375
365,0.36816406,-0.16851807,-0.90753174,1.484375,-1.90625,0.34375
366,0.36499023,-0.16192627,-0.8916626,2.40625,-3.171875,0.59375
367,0.36889648,-0.16070557,-0.9006958,1.859375,-2.203125,0.46875
368,0.3803711,-0.15826416,-0.9175415,3.34375,-1.984375,0.640625
369,0.38012695,-0.14727783,-0.9006958,2.078125,-2.59375,0.109375
370,0.3803711,-0.15142822,-0.90875244,1.078125,-2.625,-0.078125
371,0.3791504,-0.15264893,-0.88726807,-0.53125,-2.25,-0.375
372,0.3881836,-0.15020752,-0.92144775,-1.09375,-2.828125,-0.328125
373,0.38500977,-0.15631104,-0.8882446,-1.515625,-3.296875,-0.71875
374,0.3930664,-0.15899658,-0.89849854,-2.140625,-5.09375,-0.90625
375,0.41064453,-0.16558838,-0.90093994,-3.875,-6.125,-1.3125
376,0.41601562,-0.16949463,-0.8262329,-6.296875,-7.21875,-2.03125
377,0.40161133,-0.16534424,-0.8074341,-2.9375,-0.296875,-1.546875
378,0.40405273,-0.18414307,-0.83428955,1.203125,9.125,-0.984375
379,0.39526367,-0.1741333,-0.897522,1.921875,8.125,-0.328125
380,0.40014648,-0.18145752,-0.92315674,1.96875,5.359375,-0.140625
381,0.3815918,-0.18145752,-0.8999634,3.046875,4.46875,0.5625
382,0.37695312,-0.1675415,-0.913147,3.1875,2.765625,0.59375
383,0.38134766,-0.16217041,-0.9085083,2.265625,0.734375,0.640625
384,0.37182617,-0.16290283,-0.90093994,1.90625,-0.578125,0.578125
385,0.3840332,-0.1638794,-0.9121704,0.671875,-1.03125,0.203125
386,0.38256836,-0.16168213,-0.9446411,-1.34375,-2.609375,-0.28125
387,0.38134766,-0.1572876,-0.91973877,-6.0625,-2.609375,-1.125
388,0.390625,-0.17877197,-0.8406372,-10.171875,-6.546875,-2.03125
389,0.36401367,-0.17340088,-0.76934814,-4.125,-0.78125,-1.25
390,0.37817383,-0.20074463,-0.8518677,1.921875,7.859375,-0.6875
391,0.3713379,-0.18414307,-0.89190674,3.953125,7.359375,0.0
392,0.3774414,-0.19488525,-0.9060669,4.03125,4.546875,0.375
393,0.36523438,-0.17510986,-0.9187622,4.359375,3.9375,0.625
394,0.36376953,-0.17633057,-0.92266846,2.625,1.765625,0.4375
395,0.36132812,-0.17340088,-0.91607666,1.71875,-0.15625,0.3125
396,0.36157227,-0.1729126,-0.90826416,0.40625,-0.109375,-0.046875
397,0.35766602,-0.17730713,-0.90045166,0.09375,0.0,-0.078125
398,0.3696289,-0.17584229,-0.9065552,0.421875,0.03125,0.03125
399,0.36376953,-0.17510986,-0.894104,1.078125,0.015625,0.453125
400,0.36938477,-0.17047119,-0.90338135,0.953125,-0.5,0.40625
401,0.3618164,-0.16241455,-0.9011841,0.921875,-1.0,0.46875
402,0.3708496,-0.17047119,-0.9036255,-0.03125,-1.109375,0.46875
403,0.3708496,-0.17462158,-0.90045166,0.0,-0.328125,0.53125
404,0.3671875,-0.17193604,-0.89678955,-0.28125,-0.015625,0.578125
405,0.36865234,-0.17144775,-0.90093994,-0.15625,0.828125,0.46875
406,0.3659668,-0.16973877,-0.90411377,-0.046875,0.328125,0.234375
407,0.36987305,-0.17047119,-0.909729,-1.0625,0.5625,-0.0625
408,0.36865234,-0.17510986,-0.90948486,-0.578125,-0.15625,-0.046875
409,0.3701172,-0.1675415,-0.9043579,0.5625,-1.21875,0.359375
410,0.37231445,-0.17974854,-0.88360596,0.8125,-2.109375,0.828125
411,0.3791504,-0.175354,-0.90875244,1.203125,-0.65625,0.765625
412,0.37109375,-0.16973877,-0.89068604,2.859375,-0.1875,0.734375
413,0.37402344,-0.16290283,-0.9031372,2.921875,0.21875,0.71875
414,0.36865234,-0.1638794,-0.90093994,1.578125,0.421875,0.34375
415,0.37426758,-0.15997314,-0.9038696,1.171875,-0.390625,0.4375
416,0.3791504,-0.16143799,-0.9199829,0.796875,-3.625,0.578125
417,0.37670898,-0.15802002,-0.87506104,-0.203125,-7.453125,1.0625
418,0.40527344,-0.1663208,-0.913147,0.53125,-1.515625,-0.078125
419,0.40307617,-0.16534424,-0.9151001,2.3125,-1.125,-0.28125
420,0.39819336,-0.15338135,-0.8809204,1.5625,-2.25,-0.484375
421,0.38427734,-0.15533447,-0.8440552,1.0625,-0.296875,-0.578125
422,0.39501953,-0.16314697,-0.895813,0.859375,0.828125,-0.1875
423,0.3942871,-0.1572876,-0.9168091,0.453125,-2.78125,0.125
424,0.40356445,-0.15753174,-0.9199829,-1.09375,-5.9375,-0.171875
425,0.41430664,-0.15899658,-0.87994385,-3.3125,-7.4375,-0.6875
426,0.41625977,-0.16265869,-0.847229,-2.796875,-6.59375,-0.625
427,0.42822266,-0.17144775,-0.86065674,-3.21875,-3.734375,-1.234375
428,0.4309082,-0.17022705,-0.8850708,-3.0625,-5.09375,-1.484375
429,0.44482422,-0.18829346,-0.9109497,-3.640625,-4.390625,-1.3125
430,0.49023438,-0.1807251,-0.85162354,-18.3125,-24.125,-5.53125
431,0.43603516,-0.20465088,-0.63531494,-4.96875,-14.203125,-5.109375
432,0.4506836,-0.20391846,-0.64556885,11.234375,28.875,-2.578125
433,0.43725586,-0.20196533,-1.0388794,10.125,26.796875,-0.421875
434,0.40942383,-0.21124268,-0.958313,7.59375,6.609375,1.484375
435,0.4189453,-0.18804932,-0.91290283,5.03125,2.25,1.9375
436,0.39916992,-0.16680908,-0.88604736,3.859375,1.09375,1.453125
437,0.4091797,-0.16265869,-0.89923096,1.21875,0.4375,0.5
438,0.40356445,-0.1651001,-0.92755127,-2.890625,-2.046875,-0.796875
439,0.41601562,-0.1765747,-0.9846802,-8.09375,-6.875,-1.65625
440,0.43139648,-0.17633057,-0.93585205,-25.859375,-32.984375,-4.875
441,0.47973633,-0.15582275,-0.6589966,-4.65625,-22.375,-12.15625
442,0.41455078,-0.3098755,-0.7979126,5.390625,12.65625,-9.3125
443,0.46044922,-0.22271729,-0.92974854,3.171875,9.53125,-8.375
444,0.41845703,-0.27008057,-0.7966919,7.28125,0.828125,-4.140625
445,0.4272461,-0.22784424,-0.9385376,2.0625,1.765625,-2.3125
446,0.4724121,-0.18341064,-0.8538208,0.8125,-6.34375,-5.25
447,0.50219727,-0.16729736,-0.847229,2.65625,-6.921875,-3.453125
448,0.45458984,-0.2559204,-0.80059814,-3.5625,-11.03125,-4.40625
449,0.52197266,-0.20123291,-0.87872314,-3.671875,-14.09375,1.046875
450,0.48754883,-0.26641846,-0.7451782,-5.890625,-10.484375,4.671875
451,0.390625,-0.2600708,-0.6304321,6.28125,6.859375,4.84375
452,0.4272461,-0.22125244,-0.72906494,23.203125,39.40625,9.3125
453,0.3996582,-0.18243408,-1.031311,22.03125,25.828125,7.15625
454,0.40771484,-0.16412354,-0.9456177,12.921875,10.21875,5.0625
455,0.38305664,-0.13946533,-0.9246216,9.0,8.140625,2.65625
456,0.37036133,-0.13531494,-0.91241455,6.046875,7.015625,2.0625
457,0.3642578,-0.13116455,-0.9338989,3.171875,4.25,0.828125
458,0.36523438,-0.13702393,-0.92193604,0.40625,1.09375,0.03125
459,0.36694336,-0.13409424,-0.909729,-0.640625,0.6875,-0.296875
460,0.36108398,-0.12994385,-0.894104,-0.5625,2.453125,-0.25
461,0.35864258,-0.1404419,-0.9048462,0.6875,2.734375,0.28125
462,0.35424805,-0.13580322,-0.92388916,1.921875,2.828125,0.84375
463,0.35229492,-0.13409424,-0.92022705,2.875,2.171875,0.953125
464,0.34643555,-0.128479,-0.9282837,3.390625,2.59375,1.0
465,0.34423828,-0.1194458,-0.91778564,2.03125,-0.40625,0.625
466,0.34936523,-0.12213135,-0.925354,1.015625,-0.03125,0.265625
467,0.35058594,-0.11798096,-0.9024048,0.953125,-0.796875,0.328125
468,0.35229492,-0.11895752,-0.9192505,0.828125,-0.015625,0.453125
469,0.3466797,-0.120910645,-0.9143677,0.5625,-0.46875,0.53125
470,0.3552246,-0.113342285,-0.91485596,0.625,0.125,0.6875
471,0.35375977,-0.12042236,-0.9199829,-0.546875,0.15625,0.671875
472,0.35351562,-0.11651611,-0.9258423,-0.859375,0.171875,0.546875
473,0.35253906,-0.120666504,-0.9212036,-0.375,0.890625,0.640625
474,0.35180664,-0.11920166,-0.92388916,0.109375,0.15625,0.390625
475,0.34985352,-0.120910645,-0.91778564,0.6875,0.265625,0.171875
476,0.34838867,-0.11431885,-0.92633057,2.109375,0.03125,0.3125
477,0.3540039,-0.11895752,-0.9163208,1.9375,-2.21875,0.109375
478,0.36108398,-0.1104126,-0.90338135,1.265625,-3.25,0.171875
479,0.36157227,-0.11480713,-0.9258423,0.484375,-2.78125,-0.109375
480,0.36328125,-0.1182251,-0.9234009,0.40625,-1.3125,-0.109375
481,0.37402344,-0.11383057,-0.9414673,-0.265625,-1.015625,-0.75
482,0.37182617,-0.12213135,-0.88848877,-1.890625,-2.234375,-1.171875
483,0.37231445,-0.117492676,-0.923645,-1.4375,-1.078125,-1.03125
484,0.36669922,-0.1260376,-0.9175415,-1.9375,-5.03125,-1.046875
485,0.3815918,-0.12554932,-0.93927,-2.40625,-5.515625,-1.15625
486,0.37890625,-0.12188721,-0.88409424,-1.328125,0.46875,-0.859375
487,0.38134766,-0.13409424,-0.82818604,0.09375,4.546875,-0.375
488,0.37304688,-0.1296997,-0.9104614,0.921875,7.90625,0.0
489,0.3623047,-0.13555908,-0.91412354,0.796875,4.71875,0.421875
490,0.3557129,-0.11798096,-0.9397583,0.53125,-1.09375,-0.03125
491,0.37402344,-0.11895752,-0.94122314,-0.765625,0.0,-0.5625
492,0.3630371,-0.12945557,-0.91656494,-3.90625,-0.078125,-1.40625
493,0.36279297,-0.1375122,-0.8809204,-5.1875,-2.0,-1.75
494,0.3527832,-0.14361572,-0.87457275,-0.3125,0.90625,-0.359375
495,0.34985352,-0.14361572,-0.9187622,1.203125,3.3125,-0.171875
496,0.35473633,-0.13555908,-0.91485596,1.421875,2.0625,0.3125
497,0.34887695,-0.13726807,-0.9143677,2.046875,2.671875,0.21875
498,0.34375,-0.12872314,-0.9158325,2.140625,2.46875,0.296875
499,0.34545898,-0.12506104,-0.93341064,1.859375,1.0625,0.390625
500,0.3461914,-0.13287354,-0.92388916,0.984375,-0.09375,0.203125
501,0.35473633,-0.13092041,-0.9146118,1.125,-0.453125,0.09375
502,0.3515625,-0.124572754,-0.9089966,1.359375,-1.140625,0.546875
503,0.3486328,-0.11553955,-0.93170166,1.28125,-0.609375,0.65625
504,0.35375977,-0.124572754,-0.9126587,0.875,-0.328125,0.5
505,0.34716797,-0.12335205,-0.91607666,0.515625,0.53125,0.5625
506,0.35009766,-0.12188721,-0.9199829,-0.09375,0.6875,0.234375
507,0.34057617,-0.12701416,-0.9199829,0.046875,1.046875,0.421875
508,0.3479004,-0.1272583,-0.92071533,-0.109375,0.671875,0.3125
509,0.34985352,-0.12579346,-0.9155884,0.0625,-0.71875,0.359375
510,0.34985352,-0.12261963,-0.9248657,-0.109375,-0.671875,0.15625
511,0.3544922,-0.124572754,-0.9265747,0.4375,-0.125,0.0
512,0.35253906,-0.12506104,-0.92852783,0.265625,-1.484375,0.03125
513,0.34814453,-0.12213135,-0.9126587,1.625,-1.65625,0.078125
514,0.3569336,-0.12384033,-0.9065552,0.65625,-2.109375,-0.3125
515,0.3630371,-0.12506104,-0.9500122,0.9375,-1.421875,-0.890625
516,0.36450195,-0.11993408,-0.928772,0.578125,-3.96875,-0.984375
517,0.3659668,-0.117248535,-0.8657837,-2.484375,-7.578125,-1.1875
518,0.3815918,-0.13067627,-0.9043579,-1.84375,-1.28125,-0.9375
519,0.37451172,-0.12652588,-0.9085083,-3.25,-5.09375,-1.109375
520,0.38720703,-0.1453247,-0.91778564,-4.328125,-5.0,-1.6875
521,0.39135742,-0.14508057,-0.8831177,-3.296875,-4.21875,-1.09375
522,0.3930664,-0.14141846,-0.86260986,-1.765625,0.578125,-0.765625
523,0.390625,-0.14630127,-0.88848877,-2.046875,1.078125,-0.6875
524,0.39746094,-0.1482544,-0.86846924,1.546875,7.140625,-0.53125
525,0.3786621,-0.15045166,-0.8389282,4.03125,12.609375,0.03125
526,0.35913086,-0.13555908,-0.92681885,5.234375,12.25,1.0
527,0.3569336,-0.13848877,-0.9663696,3.453125,5.109375,0.59375
528,0.34545898,-0.1375122,-0.9356079,2.046875,1.140625,0.4375
529,0.34521484,-0.12994385,-0.9246216,2.671875,0.015625,0.671875
530,0.34423828,-0.12286377,-0.89849854,3.078125,-2.578125,1.0
531,0.35107422,-0.12017822,-0.960022,3.453125,-2.84375,0.953125
532,0.36914062,-0.11383057,-0.95880127,-0.359375,-2.921875,-0.421875
533,0.3605957,-0.120666504,-0.93414307,-7.375,-4.625,-2.03125
534,0.36889648,-0.14312744,-1.000061,-10.703125,-8.0625,-1.875
535,0.38085938,-0.13360596,-0.7686157,-6.09375,-4.109375,-1.046875
536,0.36914062,-0.15899658,-0.7835083,2.921875,11.390625,-1.46875
537,0.35766602,-0.15704346,-0.9500122,2.5625,12.21875,-0.078125
538,0.3486328,-0.16119385,-0.9324341,2.703125,5.09375,0.609375
539,0.34692383,-0.14581299,-0.9199829,5.703125,2.484375,1.265625
540,0.3400879,-0.128479,-0.93707275,5.78125,0.0625,1.0
541,0.34326172,-0.12823486,-0.940979,4.390625,-1.828125,0.796875
542,0.35986328,-0.12432861,-0.97369385,1.34375,-2.421875,0.328125
543,0.3618164,-0.120910645,-1.0357056,-5.15625,-2.703125,-1.765625
544,0.359375,-0.14605713,-0.8074341,-7.828125,-6.0625,-2.171875
545,0.3400879,-0.14581299,-0.8255005,-1.1875,2.46875,-0.625
546,0.3527832,-0.15167236,-0.90216064,3.453125,6.796875,0.796875
547,0.3515625,-0.14459229,-0.94488525,2.796875,3.6875,0.53125
548,0.35180664,-0.14727783,-0.93218994,2.484375,1.140625,0.375
549,0.3479004,-0.13238525,-0.9143677,2.984375,0.53125,0.375
550,0.33618164,-0.12652588,-0.9168091,2.6875,-0.0625,0.484375
551,0.34814453,-0.13604736,-0.92681885,2.265625,0.828125,0.328125
552,0.34375,-0.12432861,-0.923645,1.75,0.140625,0.3125
553,0.3479004,-0.12799072,-0.9116821,1.515625,0.6875,0.203125
554,0.34570312,-0.12628174,-0.9331665,1.046875,1.375,0.078125
555,0.3413086,-0.10992432,-0.90997314,1.234375,0.5625,0.4375
556,0.3383789,-0.12286377,-0.9187622,0.125,0.515625,0.171875
557,0.34399414,-0.12432861,-0.92755127,0.296875,0.6875,0.25
558,0.33544922,-0.12188721,-0.92388916,0.578125,0.5625,0.328125
559,0.34399414,-0.12628174,-0.9221802,0.390625,0.21875,0.21875
560,0.34277344,-0.12628174,-0.9204712,0.515625,-0.09375,0.28125
561,0.34423828,-0.120910645,-0.9338989,0.5625,0.109375,0.1875
562,0.33935547,-0.12530518,-0.9546509,1.71875,-0.0625,0.140625
563,0.34350586,-0.11871338,-0.92388916,1.90625,-2.953125,0.109375
564,0.3503418,-0.117492676,-0.94122314,0.0,-3.328125,-0.484375
565,0.34838867,-0.11407471,-0.911438,-1.78125,-4.34375,-0.984375
566,0.35595703,-0.12432861,-0.9390259,-3.0625,-4.203125,-0.984375
567,0.36914062,-0.11773682,-0.92437744,-5.140625,-7.734375,-1.453125
568,0.38061523,-0.13970947,-0.87701416,-6.625,-7.921875,-1.875
569,0.3876953,-0.1651001,-0.88653564,-5.375,-2.0,-1.0625
570,0.3642578,-0.16363525,-0.8206177,-1.390625,1.390625,-0.4375
571,0.36645508,-0.15460205,-0.84381104,5.890625,13.515625,0.734375
572,0.35986328,-0.14215088,-0.9168091,7.140625,12.734375,1.265625
573,0.34521484,-0.12701416,-0.9536743,5.234375,6.5625,0.8125
574,0.33789062,-0.13018799,-0.9651489,2.4375,0.90625,0.140625
575,0.34448242,-0.124572754,-0.9417114,2.46875,-1.109375,0.265625
576,0.34033203,-0.13165283,-0.93536377,2.25,-1.578125,0.40625
577,0.35253906,-0.121398926,-0.9404907,0.96875,-3.015625,0.296875
578,0.35620117,-0.12261963,-0.99224854,-2.765625,-2.265625,-1.046875
579,0.36132812,-0.14141846,-0.92193604,-9.328125,-8.046875,-2.09375
580,0.3647461,-0.14117432,-0.80303955,-6.40625,-6.3125,-1.125
581,0.34960938,-0.13775635,-0.80963135,1.796875,5.890625,-0.265625
582,0.36083984,-0.15802002,-0.9619751,2.34375,8.234375,0.015625
583,0.34375,-0.15362549,-0.91778564,0.65625,1.578125,0.53125
584,0.34594727,-0.15338135,-0.9199829,3.375,1.171875,1.015625
585,0.34716797,-0.13677979,-0.9175415,4.125,0.515625,0.640625
586,0.34716797,-0.13360596,-0.91070557,3.5,1.578125,0.5625
587,0.3491211,-0.13653564,-0.95880127,2.203125,1.4375,0.375
588,0.34277344,-0.120910645,-0.92388916,1.0,0.0625,0.28125
589,0.3474121,-0.13092041,-0.9121704,0.453125,-0.265625,0.046875
590,0.35009766,-0.13336182,-0.9138794,0.671875,0.09375,0.25
591,0.34887695,-0.12750244,-0.92193604,0.796875,0.15625,0.65625
592,0.34887695,-0.12701416,-0.91485596,0.875,0.96875,0.640625
593,0.34399414,-0.13092041,-0.9155884,1.03125,0.265625,0.8125
594,0.34375,-0.12213135,-0.93536377,1.328125,-0.6875,0.84375
595,0.34155273,-0.120666504,-0.909729,0.953125,-1.109375,0.671875
596,0.3486328,-0.12261963,-0.91412354,1.71875,-0.546875,0.671875
597,0.3491211,-0.11627197,-0.9312134,2.5,-1.03125,0.875
598,0.3544922,-0.116760254,-0.9092407,2.28125,-1.203125,0.671875
599,0.3503418,-0.1038208,-0.92803955,1.0,-0.46875,0.65625
600,0.35717773,-0.11212158,-0.927063,0.140625,-1.0,0.265625
601,0.34985352,-0.11114502,-0.92193604,-0.375,-3.796875,0.125
602,0.35620117,-0.11016846,-0.88604736,1.015625,-4.34375,0.390625
603,0.3701172,-0.11602783,-0.90411377,-0.078125,-2.609375,0.125
604,0.36572266,-0.117492676,-0.9348755,0.234375,-2.75,-0.21875
605,0.38232422,-0.12017822,-0.92266846,0.40625,-4.453125,-0.375
606,0.37817383,-0.10723877,-0.9011841,-1.203125,-4.46875,-0.90625
607,0.38330078,-0.11871338,-0.9072876,-1.734375,-2.09375,-1.0625
608,0.38378906,-0.12774658,-0.90802,-1.25,-3.78125,-0.59375
609,0.39794922,-0.12261963,-0.9199829,-1.703125,-4.21875,-0.484375
610,0.3918457,-0.128479,-0.8987427,-3.140625,-7.515625,-0.9375
611,0.41088867,-0.124572754,-0.8711548,-3.890625,-9.25,-1.078125
612,0.43530273,-0.13775635,-0.9841919,-8.9375,-11.90625,-1.59375
613,0.4350586,-0.16168213,-0.75201416,-5.0,-9.78125,-1.046875
614,0.41918945,-0.1494751,-0.7390747,3.21875,14.328125,-1.0
615,0.40600586,-0.15533447,-0.9138794,6.546875,23.84375,0.53125
616,0.3803711,-0.13531494,-0.90216064,6.140625,16.1875,1.640625
617,0.37158203,-0.14190674,-0.95977783,3.828125,11.015625,1.15625
618,0.37280273,-0.13555908,-0.9534302,2.421875,3.890625,0.890625
619,0.3630371,-0.12310791,-0.9319458,1.734375,1.78125,0.546875
620,0.35229492,-0.124572754,-0.9089966,0.859375,0.203125,0.671875
621,0.35375977,-0.13482666,-0.9116821,0.40625,-0.171875,0.53125
622,0.3659668,-0.1272583,-0.92144775,0.265625,0.390625,0.359375
623,0.35595703,-0.12750244,-0.9031372,1.078125,0.1875,0.421875
624,0.3552246,-0.12799072,-0.9158325,1.765625,0.546875,0.65625
625,0.35791016,-0.120666504,-0.9180298,1.734375,0.28125,0.5625
626,0.3569336,-0.11553955,-0.9260864,0.78125,0.4375,0.171875
627,0.34960938,-0.11993408,-0.92437744,0.265625,-0.609375,-0.0625
628,0.35742188,-0.11431885,-0.89678955,0.4375,-1.65625,0.078125
629,0.36206055,-0.116760254,-0.9182739,0.5625,-0.5625,-0.125
630,0.3684082,-0.11602783,-0.93048096,0.765625,-1.453125,-0.453125
631,0.37304688,-0.12042236,-0.92315674,-0.375,-4.203125,-0.9375
632,0.37548828,-0.11993408,-0.91241455,-2.046875,-5.953125,-1.3125
633,0.37841797,-0.12554932,-0.90631104,-3.265625,-7.109375,-1.296875
634,0.38330078,-0.13238525,-0.8911743,-3.84375,-6.875,-1.328125
635,0.40234375,-0.13702393,-0.92510986,-3.59375,-4.265625,-1.203125
636,0.3996582,-0.14337158,-0.88848877,-4.40625,-9.328125,-0.84375
637,0.41333008,-0.14654541,-0.8545532,-2.984375,-4.734375,-0.53125
638,0.41674805,-0.1560669,-0.940979,-3.921875,-4.640625,-1.140625
639,0.45141602,-0.17706299,-0.7996216,-11.53125,-21.53125,-2.25
640,0.41015625,-0.17437744,-0.68292236,-2.65625,-1.421875,-1.890625
641,0.42382812,-0.17974854,-0.7774048,12.4375,31.796875,-0.75
642,0.39331055,-0.16070557,-0.99346924,7.5625,26.03125,0.9375
643,0.3684082,-0.16339111,-0.9729614,7.796875,11.109375,1.46875
644,0.37353516,-0.1338501,-0.9534302,5.90625,0.84375,1.578125
645,0.36865234,-0.13092041,-0.90631104,3.796875,-1.09375,1.125
646,0.36645508,-0.12213135,-0.90093994,2.671875,0.296875,0.625
647,0.3684082,-0.12213135,-0.9331665,0.8125,-0.375,0.1875
648,0.37402344,-0.12774658,-0.9458618,-0.8125,-2.703125,-0.359375
649,0.38745117,-0.11968994,-0.99005127,-5.515625,-4.390625,-1.71875
650,0.3798828,-0.15777588,-1.0803833,-14.625,-14.734375,-1.9375
651,0.41674805,-0.1572876,-0.69122314,-11.40625,-20.25,-0.5
652,0.3894043,-0.1651001,-0.6565552,6.3125,19.296875,-2.109375
653,0.36914062,-0.16729736,-0.97198486,8.921875,32.0,-0.390625
654,0.36108398,-0.1729126,-0.9963989,4.90625,7.671875,0.90625
655,0.36010742,-0.16656494,-0.9434204,6.4375,1.984375,1.328125
656,0.3503418,-0.13580322,-0.92266846,5.484375,1.421875,1.0
657,0.34155273,-0.12823486,-0.91973877,3.46875,1.28125,0.5625
658,0.34765625,-0.13140869,-0.9260864,1.6875,0.59375,0.1875
659,0.34985352,-0.13360596,-0.92315674,0.53125,-0.734375,0.015625
660,0.34594727,-0.1350708,-0.9143677,0.296875,-1.09375,0.0
661,0.35009766,-0.13140869,-0.91534424,0.453125,-0.546875,-0.015625
662,0.35229492,-0.13897705,-0.8970337,1.0625,-0.421875,0.40625
663,0.3552246,-0.13653564,-0.9121704,1.78125,-0.1875,0.484375
664,0.35717773,-0.12872314,-0.93048096,1.21875,0.109375,0.609375
665,0.34960938,-0.12677002,-0.913147,0.453125,-1.265625,0.328125
666,0.35913086,-0.124816895,-0.9282837,-0.375,-1.21875,0.234375
667,0.35717773,-0.13140869,-0.9092407,-0.875,-1.671875,-0.03125
668,0.36010742,-0.13800049,-0.909729,-0.171875,-0.8125,-0.0625
669,0.34814453,-0.11993408,-0.9326782,2.5625,-1.9375,0.203125
670,0.35766602,-0.1182251,-0.9216919,1.796875,-3.125,0.328125
671,0.36523438,-0.11920166,-0.9104614,0.375,-3.25,0.0
672,0.3671875,-0.11920166,-0.9077759,0.390625,-2.234375,-0.125
673,0.37329102,-0.12213135,-0.92926025,-0.53125,-1.9375,-0.5
674,0.3791504,-0.11968994,-0.93218994,-1.515625,-3.359375,-1.125
675,0.37573242,-0.13214111,-0.91192627,-2.328125,-5.71875,-1.21875
676,0.38793945,-0.12164307,-0.96466064,-4.0625,-6.75,-1.640625
677,0.3876953,-0.14093018,-0.8296509,-3.75,-6.453125,-1.4375
678,0.3786621,-0.14117432,-0.802063,1.0625,6.328125,-0.53125
679,0.39233398,-0.14093018,-0.9170532,3.4375,13.078125,0.3125
680,0.36865234,-0.13702393,-0.927063,1.796875,7.734375,0.359375
681,0.36499023,-0.13116455,-0.9312134,1.546875,4.3125,0.390625
682,0.35913086,-0.13458252,-0.92681885,1.875,2.46875,0.359375
683,0.35766602,-0.12677002,-0.9312134,1.328125,0.875,0.296875
684,0.3605957,-0.12677002,-0.9182739,0.734375,-0.1875,0.0625
685,0.35986328,-0.13433838,-0.9102173,1.109375,-0.1875,0.203125
686,0.36572266,-0.12994385,-0.94000244,1.171875,-1.046875,-0.03125
687,0.35791016,-0.12701416,-0.9026489,0.59375,-2.640625,0.21875
688,0.35791016,-0.12432861,-0.90093994,-1.75,-0.625,-0.796875
689,0.36254883,-0.12994385,-0.88653564,-1.9375,1.46875,-0.78125
690,0.3527832,-0.13653564,-0.9155884,-0.0625,2.78125,-0.578125
691,0.35791016,-0.13458252,-0.9092407,0.765625,2.953125,-0.15625
692,0.3474121,-0.1350708,-0.91290283,1.515625,2.3125,0.125
693,0.3486328,-0.13214111,-0.9199829,1.359375,1.328125,0.203125
694,0.35107422,-0.13311768,-0.9258423,0.9375,0.03125,0.25
695,0.3474121,-0.12872314,-0.9246216,0.53125,-0.578125,0.171875
696,0.35375977,-0.13067627,-0.9138794,0.390625,-0.84375,0.140625
697,0.3552246,-0.12945557,-0.9163208,0.625,-0.921875,0.40625
698,0.35961914,-0.12628174,-0.91900635,0.171875,-0.546875,0.171875
699,0.35595703,-0.13311768,-0.9121704,0.25,-0.34375,0.265625
700,0.36083984,-0.13043213,-0.9133911,0.578125,0.84375,0.359375
701,0.3552246,-0.121398926,-0.91363525,0.765625,0.46875,0.453125
702,0.35424805,-0.13165283,-0.9194946,0.46875,1.140625,0.3125
703,0.35058594,-0.1272583,-0.90631104,0.359375,1.453125,0.296875
704,0.34985352,-0.12896729,-0.91851807,0.046875,0.984375,0.203125
705,0.35205078,-0.13043213,-0.9326782,1.421875,0.484375,0.09375
706,0.35375977,-0.11871338,-0.9295044,1.140625,-0.953125,-0.140625
707,0.3557129,-0.12652588,-0.9221802,0.703125,-3.5,0.171875
708,0.35620117,-0.12823486,-0.90948486,0.453125,-2.34375,-0.515625
709,0.36572266,-0.12506104,-0.9434204,-0.484375,-3.671875,-0.84375
710,0.37426758,-0.120666504,-0.94244385,-1.3125,-4.859375,-1.1875
711,0.3701172,-0.121154785,-0.9404907,-3.234375,-8.375,-1.453125
712,0.38916016,-0.124572754,-0.8977661,-2.625,-5.5,-1.25
713,0.37475586,-0.14312744,-0.8496704,-0.015625,3.40625,-0.6875
714,0.38134766,-0.15362549,-0.91900635,2.234375,9.171875,-0.25
715,0.36816406,-0.13580322,-0.92022705,2.53125,7.40625,0.53125
716,0.36547852,-0.13653564,-0.9209595,1.15625,1.625,0.4375
717,0.36157227,-0.13116455,-0.9048462,2.0,2.84375,0.40625
718,0.36010742,-0.12701416,-0.9324341,1.75,1.921875,0.3125
719,0.3623047,-0.1272583,-0.9492798,-0.140625,-2.046875,-0.046875
720,0.37280273,-0.13140869,-0.9866333,-1.53125,-2.5625,-0.90625
721,0.37402344,-0.1375122,-0.9780884,-10.578125,-15.0625,-2.0625
722,0.3786621,-0.15264893,-0.85284424,-16.015625,-23.0625,0.0625
723,0.36572266,-0.14678955,-0.6651001,-0.671875,-3.3125,-0.15625
724,0.39672852,-0.16070557,-0.8562622,8.15625,23.140625,0.0625
725,0.38623047,-0.15802002,-0.9541626,3.484375,10.0625,0.03125
726,0.3725586,-0.16070557,-0.8867798,3.8125,5.15625,0.296875
727,0.35595703,-0.14215088,-0.89556885,6.328125,9.6875,0.1875
728,0.3486328,-0.13946533,-0.96539307,4.984375,5.34375,0.40625
729,0.35107422,-0.13433838,-0.94488525,2.421875,0.984375,0.46875
730,0.35180664,-0.13189697,-0.9241333,1.078125,-0.21875,0.21875
731,0.34399414,-0.13653564,-0.9194946,0.4375,-0.625,0.296875
732,0.34814453,-0.13458252,-0.9146118,0.203125,-0.65625,0.234375
733,0.35180664,-0.13140869,-0.91485596,1.171875,-0.46875,0.546875
734,0.34936523,-0.12408447,-0.9014282,1.328125,-0.15625,0.734375
735,0.35424805,-0.12506104,-0.91607666,0.34375,1.234375,0.359375
736,0.34814453,-0.12872314,-0.9209595,0.640625,1.46875,0.375
737,0.3413086,-0.13360596,-0.9224243,0.59375,0.796875,0.3125
738,0.34594727,-0.124572754,-0.91778564,0.0625,0.3125,0.1875
739,0.35253906,-0.12945557,-0.925354,0.53125,-0.265625,0.25
740,0.35107422,-0.12652588,-0.928772,0.3125,-0.59375,0.078125
741,0.35009766,-0.12554932,-0.93829346,0.765625,-1.34375,-0.046875
742,0.34814453,-0.124816895,-0.90997314,1.265625,-3.6875,-0.03125
743,0.3544922,-0.12261963,-0.92388916,-0.109375,-3.96875,-0.5625
744,0.36621094,-0.120910645,-0.9668579,-3.953125,-5.953125,-1.4375
745,0.37426758,-0.14190674,-0.9126587,-9.078125,-9.984375,-2.0
746,0.3642578,-0.14385986,-0.8208618,-6.265625,-1.84375,-2.015625
747,0.36743164,-0.14971924,-0.86138916,-0.171875,7.375,-1.015625
748,0.36743164,-0.15362549,-0.8989868,2.265625,7.0625,-0.296875
749,0.36523438,-0.1531372,-0.958313,3.546875,3.0625,0.75
750,0.35327148,-0.14141846,-0.87945557,3.5625,-1.234375,0.625
751,0.3618164,-0.12921143,-0.9368286,5.59375,1.515625,0.90625
752,0.36889648,-0.1362915,-0.9570923,0.390625,-1.390625,-0.171875
753,0.37719727,-0.14093018,-1.0046997,-6.25,-8.5625,-1.65625
754,0.3828125,-0.15948486,-0.9048462,-10.96875,-14.234375,-1.328125
755,0.38793945,-0.16217041,-0.8081665,-8.890625,-13.203125,0.453125
756,0.4074707,-0.17047119,-0.80303955,-3.328125,-3.609375,0.5
757,0.38427734,-0.16412354,-0.82647705,0.609375,7.21875,-0.609375
758,0.3942871,-0.17315674,-0.892395,5.609375,15.671875,-0.140625
759,0.36914062,-0.15899658,-0.8911743,5.125,12.28125,-0.515625
