sample_no,accel_x,accel_y,accel_z,gyro_x,gyro_y,gyro_z
0,0.64086914,0.2850952,0.50286865,8.90625,7.140625,-1.59375
1,0.87158203,0.28851318,0.41107178,19.640625,8.0625,-2.28125
2,0.9729004,0.2609253,0.41375732,18.046875,-0.765625,-5.65625
3,0.920166,0.24359131,0.369812,0.9375,-16.03125,-7.671875
4,0.8562012,0.23822021,0.3973999,-1.9375,-15.390625,-4.875
5,0.88916016,0.2633667,0.4401245,-1.875,-14.890625,-5.75
6,0.9453125,0.26434326,0.46575928,-9.921875,-10.03125,-2.765625
7,0.8601074,0.24334717,0.4520874,-7.09375,-9.03125,-1.3125
8,0.88012695,0.28485107,0.43841553,-2.859375,0.578125,0.734375
9,0.89208984,0.25897217,0.43475342,-0.53125,4.546875,1.5625
10,0.9094238,0.1798706,0.37615967,-6.734375,32.328125,9.09375
11,0.9987793,0.46453857,0.41278076,0.203125,15.296875,3.671875
12,0.73583984,0.19696045,0.50213623,11.671875,8.53125,0.984375
13,0.86279297,0.29632568,0.40130615,19.546875,3.03125,-2.53125
14,0.9482422,0.23040771,0.402771,6.9375,-9.375,-3.890625
15,0.86157227,0.21478271,0.42791748,-5.34375,-19.859375,-4.234375
16,0.875,0.2880249,0.42962646,0.234375,-5.828125,-2.53125
17,0.91308594,0.24407959,0.47454834,-0.09375,-5.140625,-2.140625
18,0.9025879,0.2477417,0.44769287,-3.015625,-6.859375,-2.5
19,0.8339844,0.26239014,0.43719482,-0.546875,-4.53125,-0.84375
20,0.91186523,0.27825928,0.44866943,2.625,5.296875,1.203125
21,0.8811035,0.27288818,0.4545288,4.015625,8.296875,1.765625
22,0.93969727,0.21087646,0.41033936,-0.640625,23.21875,6.859375
23,0.91845703,0.29656982,0.4833374,-23.15625,-12.6875,6.5625
24,0.8215332,0.3451538,0.44989014,-4.984375,-0.140625,-2.6875
25,0.8198242,0.27801514,0.43670654,10.3125,6.5,-1.625
26,0.92749023,0.30340576,0.4406128,12.46875,-2.40625,-4.359375
27,0.8820801,0.22943115,0.4262085,-2.046875,-23.640625,-7.28125
28,0.8508301,0.25946045,0.44232178,-4.015625,-17.328125,-2.703125
29,0.89208984,0.25872803,0.49578857,-0.390625,-8.0,-3.28125
30,0.8322754,0.246521,0.48553467,-3.53125,-4.90625,-0.78125
31,0.8503418,0.276062,0.44451904,-0.453125,2.90625,-0.765625
32,0.8432617,0.2645874,0.47894287,4.96875,9.4375,2.625
33,0.86987305,0.24334717,0.55755615,-1.578125,29.109375,5.8125
34,1.0712891,0.41986084,0.40716553,-9.859375,15.6875,-1.484375
35,0.61865234,0.22943115,0.5101929,8.59375,8.40625,0.484375
36,0.88671875,0.23699951,0.4628296,9.515625,-3.34375,-3.234375
37,0.95288086,0.25653076,0.480896,0.0625,-19.609375,-5.953125
38,0.86083984,0.2723999,0.38641357,-10.9375,-16.328125,-3.515625
39,0.8835449,0.28851318,0.45281982,-3.84375,-13.296875,-3.453125
40,0.86157227,0.2518921,0.43328857,-1.40625,-6.84375,-1.1875
41,0.9055176,0.27703857,0.42816162,2.390625,3.34375,-0.28125
42,0.8564453,0.2753296,0.47088623,6.828125,7.15625,1.78125
43,0.907959,0.2855835,0.50115967,11.75,24.953125,4.359375
44,1.1066895,0.22723389,0.00091552734,-17.5,23.96875,14.34375
45,0.59887695,0.31463623,0.5211792,12.46875,13.390625,1.109375
46,0.8564453,0.22918701,0.4364624,13.390625,4.0,-2.890625
47,1.0175781,0.25628662,0.41741943,4.65625,-7.640625,-7.484375
48,0.8713379,0.22137451,0.4154663,-6.953125,-24.203125,-6.5625
49,0.8664551,0.21844482,0.40789795,-3.96875,-19.265625,-2.109375
50,0.8791504,0.23529053,0.46722412,-3.78125,-18.734375,-1.9375
51,0.82299805,0.27850342,0.45404053,1.375,-9.15625,-2.703125
52,0.892334,0.26409912,0.4989624,9.125,0.6875,-0.484375
53,0.8798828,0.27801514,0.5001831,3.546875,-0.609375,-0.75
54,0.8659668,0.24261475,0.5126343,-0.453125,-0.125,-0.8125
55,0.8569336,0.2489624,0.4779663,2.125,5.40625,1.203125
56,0.86157227,0.25335693,0.47528076,4.6875,10.96875,2.96875
57,0.8918457,0.2189331,0.48968506,-0.609375,21.375,5.421875
58,1.1894531,0.31365967,0.2958374,-29.203125,27.90625,11.34375
59,0.5751953,0.25238037,0.5092163,1.09375,10.5625,1.171875
60,1.0126953,0.32806396,0.42938232,8.03125,3.84375,-1.578125
61,0.9326172,0.27093506,0.42913818,6.90625,-6.21875,-5.109375
62,0.876709,0.21136475,0.42547607,6.625,-19.734375,-5.578125
63,0.84643555,0.2140503,0.4274292,2.828125,-18.453125,-2.90625
64,0.88623047,0.23309326,0.47039795,-5.890625,-21.5625,-5.65625
65,0.8745117,0.25482178,0.49261475,-11.03125,-18.1875,-5.984375
66,0.8388672,0.26116943,0.50457764,-2.0625,-3.75,-0.859375
67,0.84765625,0.25994873,0.4923706,3.109375,3.890625,1.265625
68,0.859375,0.24920654,0.49261475,5.484375,8.515625,2.953125
69,0.84106445,0.23431396,0.5101929,10.140625,13.515625,3.796875
70,0.9589844,0.25164795,0.44451904,-3.0625,19.5625,8.046875
71,1.1052246,0.36346436,0.3619995,-24.375,22.1875,6.9375
72,0.6035156,0.22210693,0.496521,-4.5,0.21875,1.6875
73,0.9802246,0.3085327,0.44110107,6.34375,4.203125,-1.203125
74,0.9104004,0.2711792,0.45037842,5.203125,-4.34375,-4.015625
75,0.8186035,0.21551514,0.43572998,3.921875,-20.5625,-4.640625
76,0.87353516,0.2675171,0.43597412,0.3125,-12.546875,-1.65625
77,0.90844727,0.2748413,0.47625732,1.171875,-2.0625,-1.0625
78,0.83569336,0.25604248,0.45355225,1.75,4.28125,0.90625
79,0.89086914,0.26287842,0.46185303,3.671875,8.859375,1.96875
80,0.8991699,0.24212646,0.42913818,-9.53125,20.84375,7.671875
81,0.97265625,0.43060303,0.4232788,-2.921875,22.796875,-1.234375
82,0.704834,0.2267456,0.4274292,5.609375,12.453125,1.515625
83,0.9433594,0.2579956,0.47332764,5.546875,-5.40625,-5.6875
84,0.8977051,0.2609253,0.4154663,-1.015625,-23.140625,-7.40625
85,0.83984375,0.26116943,0.38128662,-5.265625,-23.984375,-2.625
86,0.8684082,0.2333374,0.447937,3.015625,-14.984375,-1.484375
87,0.8696289,0.28240967,0.44378662,1.765625,-6.375,-1.484375
88,0.87841797,0.26312256,0.4804077,1.875,1.78125,0.25
89,0.9069824,0.29412842,0.46307373,3.75,10.75,1.75
90,0.8527832,0.2453003,0.45111084,4.40625,12.15625,3.859375
91,1.1152344,0.31048584,0.23895264,-10.75,33.40625,11.0
92,0.6779785,0.2584839,0.48651123,10.046875,19.1875,2.6875
93,0.9772949,0.276062,0.41229248,6.078125,2.5625,-0.40625
94,0.8911133,0.2682495,0.41448975,1.53125,-8.609375,-4.671875
95,0.91503906,0.21234131,0.41400146,-4.65625,-26.609375,-7.59375
96,0.8166504,0.25653076,0.3973999,3.3125,-19.84375,-4.71875
97,0.8769531,0.24749756,0.4911499,3.546875,-12.21875,-3.15625
98,0.8881836,0.27166748,0.4850464,3.03125,-13.78125,-3.859375
99,0.888916,0.24334717,0.4520874,-1.40625,-4.90625,-2.5
100,0.86328125,0.23919678,0.44818115,-1.546875,-1.375,-2.234375
101,0.8676758,0.24017334,0.47821045,-0.609375,-0.65625,-1.0
102,0.8952637,0.25823975,0.479187,2.09375,6.984375,1.234375
103,0.86376953,0.24041748,0.46380615,4.359375,9.90625,2.0625
104,0.8557129,0.21356201,0.46551514,5.359375,23.640625,6.65625
105,1.217041,0.3690796,0.28094482,-33.375,21.75,14.265625
106,0.5966797,0.23358154,0.51483154,-1.421875,8.3125,2.359375
107,1.0256348,0.31781006,0.41888428,5.78125,2.375,-0.796875
108,0.9169922,0.24041748,0.42059326,7.203125,-7.5,-5.203125
109,0.8249512,0.21600342,0.39105225,1.765625,-24.53125,-6.640625
110,0.8815918,0.2501831,0.4154663,-1.046875,-16.75,-1.875
111,0.9001465,0.2682495,0.46551514,3.875,-5.765625,-2.21875
112,0.8762207,0.260437,0.45355225,1.265625,-3.59375,0.140625
113,0.87939453,0.25115967,0.46722412,1.609375,4.484375,1.25
114,0.8820801,0.26190186,0.46673584,1.21875,1.703125,0.734375
115,0.8820801,0.25897217,0.44158936,4.4375,6.921875,2.21875
116,0.85498047,0.23504639,0.49432373,2.734375,16.453125,5.140625
117,1.3037109,0.47894287,0.10760498,-37.09375,14.546875,12.9375
118,0.46948242,0.18597412,0.57611084,13.984375,8.640625,-0.15625
119,1.010498,0.26556396,0.42596436,15.6875,-3.578125,-2.09375
120,0.9433594,0.25286865,0.42279053,9.484375,-11.3125,-6.34375
121,0.81396484,0.20672607,0.3991089,-9.828125,-29.546875,-6.328125
122,0.8757324,0.27264404,0.4491577,-3.4375,-15.328125,-3.21875
123,0.88061523,0.27850342,0.46697998,-0.390625,-8.203125,-0.546875
124,0.86157227,0.26776123,0.46722412,-1.25,-8.4375,-2.21875
125,0.85058594,0.2243042,0.4772339,-9.453125,-12.65625,-0.328125
126,0.845459,0.17547607,0.5626831,-7.625,11.484375,3.859375
127,1.2199707,0.45111084,0.24139404,-15.390625,18.765625,4.71875
128,0.51782227,0.27947998,0.55633545,1.3125,3.296875,-2.078125
129,0.97021484,0.32562256,0.4923706,14.484375,5.140625,-0.46875
130,0.9038086,0.27850342,0.45916748,12.09375,-5.8125,-3.671875
131,0.8076172,0.18695068,0.44036865,-2.140625,-25.8125,-5.984375
132,0.86743164,0.2658081,0.49383545,-4.875,-14.859375,-2.578125
133,0.8625488,0.25286865,0.52752686,-3.796875,-9.265625,-4.0
134,0.83081055,0.26287842,0.5084839,0.484375,-5.453125,-1.0
135,0.85791016,0.26727295,0.49871826,5.96875,3.78125,-1.1875
136,0.84936523,0.26019287,0.49871826,4.875,1.859375,-0.171875
137,0.8520508,0.24163818,0.52459717,1.234375,-1.390625,-0.3125
138,0.8425293,0.2616577,0.49993896,0.296875,6.4375,0.546875
139,0.8574219,0.2694702,0.4796753,2.234375,8.359375,0.78125
140,0.84106445,0.24456787,0.53240967,3.046875,9.203125,1.921875
141,0.9602051,0.24163818,0.4640503,-8.484375,29.96875,8.640625
142,1.0041504,0.3102417,0.2711792,-34.0625,12.71875,13.59375
143,0.6188965,0.3300171,0.49969482,6.09375,8.421875,-1.21875
144,0.9316406,0.31219482,0.40740967,11.03125,8.9375,1.078125
145,0.9260254,0.28289795,0.4413452,13.4375,0.65625,-3.53125
146,0.8730469,0.21966553,0.3986206,2.265625,-21.953125,-8.0
147,0.8310547,0.25213623,0.4159546,-1.5,-14.671875,-2.15625
148,0.90283203,0.2694702,0.47332764,2.546875,-5.546875,-1.703125
149,0.86499023,0.27288818,0.46966553,0.625,-3.03125,-0.578125
150,0.85717773,0.2670288,0.46307373,1.46875,1.1875,0.765625
151,0.88500977,0.27435303,0.4718628,3.90625,6.40625,1.265625
152,0.89282227,0.27044678,0.4508667,3.375,14.34375,3.65625
153,0.9313965,0.24041748,0.3842163,-13.375,12.390625,6.390625
154,1.0202637,0.42474365,0.35028076,-8.46875,4.484375,-0.59375
155,0.6870117,0.20257568,0.50042725,2.65625,2.984375,-0.765625
156,0.9355469,0.29486084,0.42840576,10.125,0.96875,-3.203125
157,0.9123535,0.27191162,0.4623413,4.984375,-14.90625,-6.625
158,0.8017578,0.21331787,0.42889404,-0.375,-21.09375,-4.5
159,0.80566406,0.2921753,0.45477295,4.671875,-8.390625,-0.8125
160,0.907959,0.2765503,0.4298706,10.546875,-3.296875,-3.203125
161,0.9003906,0.23382568,0.5062866,6.25,2.671875,0.0
162,0.86865234,0.24163818,0.46429443,2.203125,-1.34375,-1.484375
163,0.88964844,0.23651123,0.46307373,0.40625,-6.234375,-1.625
164,0.9020996,0.23919678,0.48260498,2.078125,6.5,0.46875
165,0.91967773,0.24725342,0.47235107,-3.78125,10.234375,3.5625
166,0.85913086,0.2518921,0.40618896,-8.609375,13.578125,3.890625
167,0.89404297,0.2218628,0.45941162,-21.671875,16.59375,10.953125
168,0.9362793,0.44281006,0.3595581,1.890625,7.359375,-3.359375
169,0.7285156,0.20794678,0.49871826,4.0625,3.984375,0.453125
170,0.96728516,0.2753296,0.4118042,9.703125,-3.890625,-3.90625
171,0.8901367,0.2814331,0.4208374,3.75,-16.90625,-7.171875
172,0.7993164,0.20477295,0.41644287,0.953125,-19.375,-4.890625
173,0.8918457,0.28631592,0.42694092,0.5,-11.578125,-3.046875
174,0.89160156,0.26531982,0.4804077,-1.078125,-1.59375,-0.84375
175,0.83447266,0.25457764,0.4562378,1.578125,0.453125,-0.625
176,0.8720703,0.2387085,0.48358154,3.375,1.796875,0.328125
177,0.91796875,0.25408936,0.5116577,5.890625,11.890625,1.796875
178,0.8413086,0.24798584,0.42010498,-4.234375,9.59375,2.15625
179,0.8642578,0.2543335,0.46258545,3.109375,12.328125,3.046875
180,1.0383301,0.14471436,0.23309326,-46.453125,19.171875,15.5
181,0.7573242,0.3842163,0.47039795,4.96875,2.0,-3.25
182,0.8820801,0.2374878,0.4940796,5.734375,8.125,1.125
183,0.90478516,0.28485107,0.401062,13.140625,0.34375,-3.765625
184,0.8901367,0.2477417,0.40594482,3.390625,-19.46875,-5.984375
185,0.8132324,0.2345581,0.42352295,2.03125,-27.265625,-5.953125
186,0.87109375,0.28045654,0.4315796,1.625,-15.15625,-3.6875
187,0.91625977,0.27996826,0.479187,6.375,-0.796875,-1.875
188,0.88134766,0.24066162,0.4725952,-1.125,-3.125,-1.234375
189,0.8720703,0.25823975,0.4887085,0.828125,-0.40625,-1.03125
190,0.90771484,0.24090576,0.44573975,-2.96875,7.734375,2.0625
191,0.8654785,0.25897217,0.44451904,2.703125,7.75,0.140625
192,0.8815918,0.26531982,0.4393921,1.375,1.796875,0.453125
193,0.861084,0.23016357,0.4694214,-3.140625,9.078125,2.21875
194,1.0454102,0.34100342,0.22406006,-22.09375,14.375,6.09375
195,0.7126465,0.33929443,0.53460693,-4.078125,2.8125,2.984375
196,0.9296875,0.262146,0.47528076,10.65625,4.859375,0.25
197,0.88256836,0.28729248,0.4262085,8.328125,-6.75,-3.65625
198,0.88256836,0.26019287,0.4052124,-8.0625,-29.3125,-2.234375
199,0.7976074,0.24285889,0.4237671,-5.203125,-29.375,-2.71875
200,0.88549805,0.30096436,0.47210693,1.59375,-3.5625,0.078125
201,0.89868164,0.2736206,0.45916748,-0.1875,4.21875,0.078125
202,0.84643555,0.26409912,0.47454834,2.21875,5.171875,0.9375
203,0.888916,0.27850342,0.4640503,6.265625,14.453125,1.484375
204,1.0290527,0.1630249,0.37591553,-18.90625,33.390625,10.765625
205,0.8395996,0.40472412,0.6466675,22.25,15.578125,-1.53125
206,0.6984863,0.22625732,0.43914795,12.5625,12.078125,-0.109375
207,0.9445801,0.30511475,0.49847412,8.828125,-8.5625,-5.84375
208,0.8815918,0.25238037,0.46136475,-0.234375,-28.40625,-7.421875
209,0.85375977,0.26678467,0.41204834,-8.203125,-28.734375,-2.953125
210,0.8276367,0.25604248,0.4850464,-0.171875,-12.140625,-1.171875
211,0.8095703,0.24066162,0.4887085,2.375,-1.625,-0.765625
212,0.8937988,0.2892456,0.50164795,0.90625,5.421875,0.21875
213,0.8520508,0.2682495,0.480896,0.59375,3.515625,-0.53125
214,0.87646484,0.2850952,0.4647827,3.09375,1.921875,0.4375
215,0.8754883,0.25628662,0.45941162,5.8125,10.15625,0.96875
216,0.86499023,0.26239014,0.4640503,3.671875,10.109375,0.234375
217,0.88134766,0.2765503,0.4472046,-0.875,7.125,0.125
218,0.8613281,0.2543335,0.46966553,2.421875,12.40625,1.5625
219,1.1506348,0.22210693,0.21478271,-31.484375,19.96875,10.75
220,0.68774414,0.3554077,0.55584717,5.484375,7.25,1.8125
221,0.8503418,0.28997803,0.4393921,9.765625,1.9375,-0.21875
222,0.8942871,0.28533936,0.41741943,9.953125,-3.453125,-2.796875
223,0.8820801,0.2374878,0.4459839,0.34375,-22.4375,-3.734375
224,0.8273926,0.24481201,0.4364624,-2.6875,-20.515625,-3.703125
225,0.8718262,0.28851318,0.45477295,-3.921875,-5.4375,-1.25
226,0.88549805,0.27630615,0.49383545,-3.234375,-2.78125,-0.90625
227,0.86743164,0.2958374,0.4616089,-0.140625,2.90625,-0.15625
228,0.8791504,0.27752686,0.46136475,7.015625,10.65625,0.203125
229,0.88305664,0.25408936,0.47479248,8.234375,27.484375,3.84375
230,1.0932617,0.32513428,0.21014404,-26.15625,9.53125,6.453125
231,0.7050781,0.309021,0.5072632,4.984375,2.25,0.171875
232,0.88256836,0.2999878,0.40618896,9.078125,0.53125,-1.5
233,0.9370117,0.2662964,0.4508667,4.078125,-11.625,-4.234375
234,0.82177734,0.24993896,0.41864014,-5.609375,-24.96875,-3.21875
235,0.8666992,0.2855835,0.43621826,0.875,-5.671875,-0.796875
236,0.8840332,0.26385498,0.46746826,-0.09375,1.28125,-0.1875
237,0.8757324,0.28582764,0.45404053,2.0625,6.3125,0.53125
238,0.920166,0.28045654,0.447937,3.484375,20.578125,2.828125
239,1.0224609,0.28656006,0.24041748,-20.015625,10.265625,6.671875
240,0.7128906,0.29901123,0.51971436,2.484375,3.859375,0.09375
241,0.9038086,0.3143921,0.40911865,9.828125,-0.5,-1.265625
242,0.93774414,0.27215576,0.42523193,3.625,-11.40625,-3.5625
243,0.8676758,0.23822021,0.42303467,-5.0625,-26.59375,-3.765625
244,0.8496094,0.29119873,0.42401123,0.015625,-8.6875,-1.8125
245,0.8757324,0.27069092,0.4713745,1.046875,-3.21875,-1.484375
246,0.8737793,0.28778076,0.4647827,-0.609375,-4.96875,-1.71875
247,0.8876953,0.28094482,0.4467163,3.21875,0.75,-1.421875
248,0.86328125,0.2645874,0.45135498,6.78125,2.421875,-0.25
249,0.8947754,0.2592163,0.4616089,2.625,1.796875,-0.21875
250,0.861084,0.2579956,0.43304443,2.390625,5.953125,0.5625
251,0.88061523,0.262146,0.4623413,3.296875,5.03125,-0.171875
252,0.8666992,0.26776123,0.43255615,2.9375,5.28125,0.140625
253,0.8859863,0.25579834,0.46063232,3.71875,5.15625,1.203125
254,0.8886719,0.26531982,0.4315796,3.21875,16.234375,2.484375
255,1.0766602,0.24969482,0.28167725,-29.875,13.859375,10.65625
256,0.8129883,0.307312,0.4105835,-13.03125,0.265625,-0.53125
257,0.86694336,0.30413818,0.41522217,-1.078125,-0.921875,-2.3125
258,0.89282227,0.28338623,0.4088745,8.296875,-0.671875,-3.03125
259,0.89331055,0.23724365,0.43914795,3.46875,-18.5625,-3.9375
260,0.8366699,0.26312256,0.39764404,-1.09375,-20.0,-4.359375
261,0.88500977,0.27215576,0.4232788,0.265625,-4.296875,-0.28125
262,0.873291,0.29144287,0.44500732,-1.21875,0.328125,0.359375
263,0.8730469,0.30145264,0.45819092,2.828125,4.0,1.671875
264,0.8811035,0.27142334,0.45257568,4.90625,6.796875,1.796875
265,0.88964844,0.26141357,0.44866943,8.296875,7.921875,2.671875
266,0.91430664,0.2736206,0.4274292,-0.8125,10.921875,2.671875
267,1.1069336,0.29852295,0.18353271,-25.15625,-8.015625,6.015625
268,0.53222656,0.32196045,0.53778076,5.34375,9.1875,-2.46875
269,0.9145508,0.30316162,0.4159546,12.5625,5.90625,0.421875
270,0.9326172,0.2789917,0.432312,11.109375,-2.71875,-2.484375
271,0.87280273,0.21600342,0.47088623,2.25,-23.9375,-6.703125
272,0.8359375,0.26141357,0.42767334,-7.875,-29.46875,-3.0625
273,0.87768555,0.27581787,0.45257568,-5.3125,-24.53125,-4.140625
274,0.82543945,0.2855835,0.48138428,4.9375,-6.671875,-3.71875
275,0.8598633,0.29608154,0.4869995,4.015625,-1.9375,-2.359375
276,0.8713379,0.2687378,0.49700928,4.515625,0.609375,-1.578125
277,0.8574219,0.2789917,0.50775146,-0.328125,-3.0625,-1.359375
278,0.8208008,0.24041748,0.5175171,1.15625,-2.453125,-0.453125
279,0.84887695,0.26898193,0.5006714,3.9375,6.953125,0.65625
280,0.8535156,0.24676514,0.5026245,6.125,15.34375,3.234375
281,0.88134766,0.22259521,0.43475342,-0.671875,35.171875,6.75
282,0.97216797,0.41571045,0.36395264,-14.890625,15.203125,3.125
283,0.69873047,0.20233154,0.52142334,3.34375,5.921875,1.96875
284,0.9916992,0.29486084,0.41571045,8.234375,2.90625,-0.96875
285,0.87475586,0.28094482,0.432312,4.734375,-5.96875,-3.421875
286,0.8444824,0.19891357,0.4159546,1.796875,-21.9375,-4.875
287,0.8547363,0.2687378,0.4467163,-0.59375,-18.9375,-3.34375
288,0.8952637,0.31121826,0.48016357,-0.484375,-7.203125,-2.59375
289,0.8718262,0.2662964,0.48846436,-0.375,0.6875,1.953125
290,0.8195801,0.24578857,0.47625732,2.4375,5.328125,2.109375
291,0.87353516,0.23553467,0.48016357,5.84375,9.4375,3.359375
292,0.8623047,0.24481201,0.47772217,5.515625,11.5625,2.703125
293,0.8779297,0.28363037,0.45062256,6.046875,20.59375,4.484375
294,1.1489258,0.26898193,0.13226318,-36.46875,6.515625,9.421875
295,0.5576172,0.33026123,0.5018921,5.484375,15.03125,1.15625
296,1.0168457,0.28753662,0.40545654,8.59375,4.953125,2.15625
297,0.89208984,0.25994873,0.432312,8.015625,-1.203125,-2.671875
298,0.9189453,0.22113037,0.42401123,0.75,-21.359375,-4.125
299,0.81640625,0.2592163,0.40618896,-1.578125,-23.1875,-4.796875
300,0.90649414,0.307312,0.4142456,0.203125,-4.484375,-1.46875
301,0.8979492,0.276062,0.44207764,2.28125,3.6875,-0.140625
302,0.8703613,0.28216553,0.4430542,3.515625,8.90625,1.734375
303,0.89990234,0.26531982,0.45794678,3.515625,24.265625,3.859375
304,1.1496582,0.44232178,0.11126709,-36.5,0.4375,3.640625
305,0.6533203,0.2616577,0.5438843,-1.546875,8.171875,1.71875
306,0.9387207,0.2994995,0.4286499,11.53125,1.015625,-1.140625
307,0.9433594,0.28875732,0.39569092,3.84375,-7.25,-3.734375
308,0.81811523,0.18939209,0.47357178,3.578125,-23.171875,-5.734375
309,0.85180664,0.2633667,0.38885498,-4.125,-27.703125,-2.328125
310,0.91748047,0.31951904,0.40960693,6.078125,1.96875,-2.125
311,0.859375,0.25091553,0.45135498,8.28125,4.171875,0.453125
312,0.9291992,0.28118896,0.43988037,5.078125,0.78125,-1.546875
313,0.89624023,0.24969482,0.43719482,1.171875,-0.3125,-1.046875
314,0.85668945,0.24212646,0.4562378,-2.40625,-1.65625,0.765625
315,0.9008789,0.25604248,0.46673584,-0.984375,1.0625,-0.015625
316,0.8647461,0.25653076,0.4557495,-0.578125,3.6875,0.796875
317,0.89208984,0.26507568,0.43743896,-0.015625,6.15625,0.953125
318,0.8588867,0.2616577,0.44744873,4.609375,10.03125,1.625
319,0.9614258,0.17401123,0.47113037,-20.03125,23.390625,8.03125
320,0.9387207,0.4310913,0.3324585,1.203125,7.0625,-2.046875
321,0.7270508,0.230896,0.5421753,0.984375,1.75,0.125
322,0.94018555,0.2929077,0.36712646,10.421875,2.078125,-1.828125
323,0.9304199,0.26239014,0.40570068,3.265625,-8.75,-3.34375
324,0.8251953,0.23114014,0.42279053,1.296875,-25.703125,-6.28125
325,0.8847656,0.29559326,0.38446045,-5.03125,-21.53125,-4.375
326,0.91918945,0.2855835,0.45819092,-2.46875,-4.171875,-1.484375
327,0.8791504,0.29974365,0.42889404,-2.078125,-1.515625,-1.25
328,0.87280273,0.26727295,0.4454956,2.5625,2.375,0.46875
329,0.86743164,0.26654053,0.46624756,6.453125,6.625,1.71875
330,0.8977051,0.24798584,0.4623413,7.46875,10.734375,4.140625
331,0.89282227,0.2736206,0.45037842,4.375,-5.375,2.4375
332,1.0007324,0.2772827,0.29241943,-17.90625,8.6875,3.71875
333,0.8051758,0.37322998,0.432312,-4.484375,15.9375,2.875
334,0.873291,0.28363037,0.46990967,5.84375,4.5,-0.4375
335,0.9025879,0.2675171,0.42279053,2.8125,-6.34375,-2.484375
336,0.9321289,0.2140503,0.44378662,-4.953125,-25.96875,-5.015625
337,0.7915039,0.28411865,0.40667725,-3.46875,-22.5625,-4.015625
338,0.88427734,0.27850342,0.46453857,2.5625,-2.890625,-0.703125
339,0.8779297,0.3053589,0.45355225,-1.34375,-1.109375,0.21875
340,0.88793945,0.29315186,0.46014404,0.921875,0.75,-0.453125
341,0.8486328,0.2662964,0.4598999,1.78125,2.1875,-0.3125
342,0.8852539,0.26776123,0.47381592,2.578125,4.34375,0.46875
343,0.8598633,0.27191162,0.48797607,5.8125,14.6875,2.25
344,0.92333984,0.27288818,0.5067749,-0.046875,28.21875,7.234375
345,0.8564453,0.27825928,0.42108154,6.84375,23.453125,3.125
346,0.80688477,0.24920654,0.42889404,1.1875,1.84375,-1.546875
347,0.90527344,0.26971436,0.41912842,4.296875,-3.078125,-5.109375
348,0.9050293,0.24871826,0.40985107,-1.3125,-12.859375,-5.546875
349,0.8574219,0.26409912,0.4015503,-2.90625,-25.984375,-5.125
350,0.86694336,0.2880249,0.39886475,-2.828125,-18.609375,-2.4375
351,0.8618164,0.27093506,0.4550171,10.265625,0.359375,-0.484375
352,0.8979492,0.2897339,0.4804077,8.203125,-0.359375,-0.296875
353,0.904541,0.25750732,0.4953003,5.796875,-4.234375,-1.78125
354,0.85375977,0.24945068,0.46844482,1.765625,-6.03125,-0.96875
355,0.85595703,0.24456787,0.4767456,2.5625,1.390625,0.296875
356,0.88134766,0.25457764,0.46453857,3.46875,15.25,3.15625
357,0.89331055,0.25360107,0.494812,6.75,18.5,5.828125
358,0.9421387,0.25628662,0.23773193,3.046875,30.140625,10.421875
359,0.96313477,0.3649292,0.41082764,-6.140625,11.046875,8.84375
360,0.7883301,0.18719482,0.47161865,-6.484375,1.671875,1.828125
361,0.8925781,0.2958374,0.44256592,0.765625,-2.0,-5.96875
362,0.94750977,0.2765503,0.40985107,1.4375,-9.390625,-5.546875
363,0.8833008,0.26190186,0.43988037,-4.03125,-24.265625,-5.75
364,0.82421875,0.24334717,0.41644287,7.390625,-6.796875,-1.5
365,0.87060547,0.27044678,0.4520874,2.3125,-2.84375,-1.0
366,0.88842773,0.2579956,0.43011475,-3.40625,-0.90625,-0.3125
367,0.87646484,0.27703857,0.449646,-0.03125,1.171875,0.359375
368,0.88500977,0.25872803,0.4520874,3.40625,2.328125,-0.171875
369,0.8845215,0.2838745,0.43988037,11.921875,15.421875,2.421875
370,0.8864746,0.24725342,0.41644287,5.640625,13.515625,3.84375
371,0.99243164,0.23626709,0.38372803,-25.265625,-3.203125,8.65625
372,0.79248047,0.28900146,0.43475342,-5.8125,3.671875,-0.765625
373,0.8366699,0.27947998,0.44256592,2.375,0.4375,-3.140625
374,0.8918457,0.27020264,0.40570068,1.984375,-9.421875,-4.765625
375,0.8864746,0.27996826,0.4430542,-3.921875,-22.0625,-3.9375
376,0.8828125,0.25457764,0.39007568,-2.953125,-14.296875,-1.46875
377,0.8640137,0.29364014,0.47698975,-5.53125,-12.265625,-1.984375
378,0.8442383,0.27996826,0.46966553,-1.59375,-2.046875,-0.171875
379,0.9082031,0.2843628,0.46307373,1.171875,1.75,0.078125
380,0.8688965,0.27972412,0.4508667,5.03125,10.078125,0.84375
381,0.9692383,0.33953857,0.5072632,7.03125,38.671875,12.078125
382,1.0559082,0.3048706,0.17791748,6.34375,40.703125,7.890625
383,0.74438477,0.2699585,0.45306396,11.109375,0.125,-6.671875
384,0.7524414,0.18377686,0.38641357,1.390625,-7.546875,-10.078125
385,1.0041504,0.29632568,0.43499756,-4.5625,-27.8125,-11.46875
386,0.82666016,0.17889404,0.4569702,-7.3125,-26.703125,-4.546875
387,0.8847656,0.293396,0.45892334,-2.3125,-19.265625,-2.875
388,0.85498047,0.25238037,0.4833374,0.6875,-6.4375,-1.0
389,0.87231445,0.2579956,0.45941162,-2.1875,0.15625,-0.890625
390,0.84765625,0.25823975,0.46429443,2.46875,3.15625,0.375
391,0.88500977,0.25579834,0.43988037,6.90625,2.796875,0.4375
392,0.88378906,0.25286865,0.44036865,5.53125,2.765625,0.3125
393,0.8869629,0.24945068,0.4537964,2.65625,3.78125,0.640625
394,0.8930664,0.26776123,0.46185303,0.515625,6.59375,0.0625
395,0.88793945,0.26190186,0.45159912,3.9375,9.59375,0.734375
396,0.9001465,0.24334717,0.42791748,1.03125,4.625,1.25
397,0.90112305,0.24945068,0.39886475,1.390625,3.015625,1.78125
398,0.875,0.2645874,0.4081421,-2.15625,12.171875,4.390625
399,1.0200195,0.2164917,0.39837646,-32.8125,1.265625,11.09375
400,0.82006836,0.34368896,0.465271,-5.28125,6.59375,0.84375
401,0.84375,0.30975342,0.41497803,8.796875,0.46875,-3.1875
402,0.9133301,0.2694702,0.44329834,10.0625,-4.25,-3.515625
403,0.9304199,0.23504639,0.49090576,4.578125,-9.984375,-5.5625
404,0.88549805,0.3307495,0.36273193,2.71875,-3.734375,-2.25
405,0.7988281,0.19158936,0.322937,8.578125,-19.671875,-4.25
406,0.91503906,0.2489624,0.48309326,-0.4375,-15.65625,-4.53125
407,0.8029785,0.23699951,0.46820068,-10.421875,-10.78125,-1.875
408,0.91308594,0.2555542,0.5231323,-3.859375,2.28125,-0.328125
409,0.86499023,0.24725342,0.48309326,9.890625,16.40625,1.65625
410,0.88671875,0.22845459,0.43695068,5.53125,11.625,2.796875
411,0.8659668,0.26507568,0.42132568,3.296875,19.21875,5.1875
412,1.0820312,0.23773193,0.1864624,-35.0625,13.828125,9.640625
413,0.72680664,0.34979248,0.4882202,-0.03125,5.625,-0.546875
414,0.86572266,0.26971436,0.4467163,12.25,2.203125,-0.78125
415,0.9838867,0.27557373,0.4220581,2.640625,-6.390625,-4.40625
416,0.83374023,0.18450928,0.4442749,1.0625,-13.53125,-3.609375
417,0.857666,0.28656006,0.38690186,-6.5,-13.875,-0.546875
418,0.8598633,0.23773193,0.42791748,-0.375,-4.875,0.359375
419,0.890625,0.31536865,0.42767334,-0.28125,2.53125,1.453125
420,0.90063477,0.28240967,0.43841553,2.796875,11.921875,2.0
421,0.9116211,0.25701904,0.41278076,2.09375,32.53125,9.953125
422,0.9758301,0.3624878,0.44476318,-1.59375,18.34375,4.0625
423,0.75512695,0.20428467,0.44378662,11.484375,4.984375,-3.359375
424,0.9765625,0.30633545,0.3768921,0.75,-12.75,-4.46875
425,0.90112305,0.21624756,0.43133545,-3.1875,-18.765625,-4.375
426,0.8366699,0.26385498,0.3673706,-3.4375,-23.71875,-3.40625
427,0.876709,0.2555542,0.43743896,-0.25,-13.15625,-2.9375
428,0.8762207,0.3024292,0.4257202,1.015625,-4.546875,-1.796875
429,0.8823242,0.27288818,0.46307373,3.1875,-0.09375,-0.125
430,0.88623047,0.27288818,0.46185303,6.953125,2.53125,-1.75
431,0.88427734,0.23944092,0.4389038,6.734375,2.796875,-0.375
432,0.8864746,0.24798584,0.4472046,5.9375,3.9375,-0.703125
433,0.89624023,0.24749756,0.44110107,-0.8125,4.140625,-0.1875
434,0.8725586,0.26287842,0.4352417,6.1875,9.46875,1.03125
435,0.9111328,0.2633667,0.4142456,0.984375,3.703125,1.0625
436,0.87768555,0.25604248,0.4376831,3.421875,13.53125,3.46875
437,1.1306152,0.30413818,0.14666748,-53.75,-0.21875,9.75
438,0.79956055,0.31463623,0.5050659,-16.9375,1.4375,-0.421875
439,0.89282227,0.30145264,0.39154053,4.296875,0.640625,-0.28125
440,0.9116211,0.28631592,0.42523193,8.9375,-2.0625,-2.484375
441,0.86865234,0.23309326,0.3920288,5.28125,-13.328125,-2.828125
442,0.86035156,0.25335693,0.39593506,-2.484375,-15.53125,-2.578125
443,0.89697266,0.28826904,0.4376831,-4.453125,-8.25,-1.5
444,0.87524414,0.2994995,0.434021,1.953125,1.671875,-0.609375
445,0.8930664,0.27752686,0.4244995,4.171875,4.140625,0.734375
446,0.89575195,0.27386475,0.4039917,3.765625,10.515625,2.5625
447,0.9091797,0.2592163,0.3805542,1.375,9.8125,3.484375
448,1.144043,0.29608154,0.19891357,-24.28125,26.0,11.765625
449,0.76660156,0.26019287,0.5597534,7.25,6.203125,5.28125
450,0.7597656,0.2538452,0.36444092,14.9375,-1.0625,-2.375
451,1.0163574,0.36590576,0.3678589,5.421875,-9.359375,-3.734375
452,0.9135742,0.21234131,0.4389038,0.265625,-14.6875,-3.921875
453,0.8664551,0.3222046,0.4154663,-8.390625,-12.5,-2.859375
454,0.86694336,0.28900146,0.36297607,-5.390625,-4.109375,1.515625
455,0.88134766,0.27191162,0.37420654,1.296875,0.65625,0.046875
456,0.85839844,0.29071045,0.3847046,1.5625,5.171875,0.15625
457,0.88671875,0.28460693,0.4039917,3.796875,9.40625,0.40625
458,0.9448242,0.30633545,0.40716553,-0.828125,20.75,4.296875
459,1.0166016,0.34954834,0.39105225,-6.109375,-1.125,1.703125
460,0.71875,0.23260498,0.4850464,2.53125,-0.4375,-4.984375
461,0.91918945,0.34222412,0.35858154,10.03125,-4.828125,-1.5
462,0.92944336,0.24090576,0.43719482,-0.265625,-18.125,-4.75
463,0.85839844,0.28607178,0.3793335,-1.296875,-20.28125,-5.671875
464,0.92163086,0.3036499,0.369812,3.109375,-5.421875,-0.84375
465,0.8359375,0.2423706,0.44989014,8.28125,0.21875,-1.546875
466,0.8708496,0.2838745,0.43182373,1.828125,-0.671875,-2.453125
467,0.8894043,0.27020264,0.43621826,2.6875,3.921875,-1.703125
468,0.8967285,0.26116943,0.4574585,4.21875,1.78125,-0.015625
469,0.9038086,0.26287842,0.4328003,3.546875,3.453125,-0.328125
470,0.88671875,0.25482178,0.4179077,3.140625,0.828125,-0.171875
471,0.89746094,0.29364014,0.4003296,1.5625,5.6875,-0.375
472,0.8876953,0.27801514,0.41229248,2.078125,7.9375,0.6875
473,0.8864746,0.26019287,0.41693115,0.9375,6.46875,1.765625
474,1.0234375,0.2296753,0.30755615,-13.328125,14.984375,4.921875
475,0.93115234,0.38885498,0.4262085,-28.078125,-29.515625,-1.5625
476,0.6166992,0.3324585,0.6137085,-2.359375,0.0625,-4.453125
477,0.8725586,0.3156128,0.4171753,14.4375,-1.546875,-0.859375
478,0.97875977,0.29486084,0.4869995,-2.9375,-10.015625,0.03125
479,0.83813477,0.2345581,0.46820068,10.90625,-15.140625,-1.96875
480,0.8234863,0.26068115,0.41278076,-2.46875,-19.359375,-2.46875
481,0.84228516,0.23553467,0.480896,-5.828125,-10.25,-2.75
482,0.8405762,0.3139038,0.49017334,-7.828125,-10.765625,-3.5
483,0.8461914,0.3007202,0.49163818,-3.484375,-4.515625,-2.296875
484,0.83740234,0.27630615,0.4862671,4.3125,3.4375,0.046875
485,0.8684082,0.30267334,0.4623413,6.65625,12.421875,1.65625
486,0.8598633,0.27947998,0.4725952,8.828125,20.859375,2.625
487,0.9716797,0.27264404,0.39691162,-14.0625,23.578125,7.171875
488,0.79833984,0.30584717,0.46722412,-1.09375,11.671875,0.40625
489,0.8312988,0.3065796,0.4303589,9.140625,1.265625,-0.4375
490,0.9194336,0.2802124,0.43426514,7.375,-4.796875,-1.046875
491,0.8574219,0.24969482,0.43963623,-1.40625,-19.5625,-3.703125
492,0.84375,0.31463623,0.402771,0.859375,-7.078125,-1.546875
493,0.8774414,0.27142334,0.4743042,3.34375,-0.921875,-0.375
494,0.8937988,0.30194092,0.44940186,2.1875,11.09375,1.53125
495,0.92456055,0.25750732,0.39471436,0.8125,18.296875,4.84375
496,1.0947266,0.36663818,0.24383545,-23.40625,15.46875,4.5
497,0.73828125,0.25482178,0.5314331,1.90625,0.984375,-2.84375
498,0.8120117,0.2897339,0.42767334,6.953125,-5.859375,-2.953125
499,0.9423828,0.27825928,0.47283936,-0.84375,-18.984375,-3.734375
500,0.828125,0.24627686,0.41644287,-7.0,-22.109375,-0.875
501,0.91967773,0.31097412,0.46795654,6.765625,1.421875,1.546875
502,0.94628906,0.31243896,0.36517334,-23.953125,11.1875,0.953125
503,0.94018555,0.34173584,0.45062256,-14.515625,3.5625,-5.53125
504,0.6274414,0.29925537,0.3834839,-0.4375,-5.984375,-4.328125
505,0.90893555,0.2567749,0.44451904,15.875,-15.25,-0.71875
506,0.9506836,0.29730225,0.44085693,-2.765625,-23.78125,-3.296875
507,0.76342773,0.25946045,0.48358154,-1.875,-17.359375,-0.40625
508,0.81591797,0.2765503,0.55218506,0.828125,-10.40625,0.265625
509,0.8613281,0.30682373,0.5187378,-3.15625,-7.265625,-1.734375
510,0.8195801,0.3397827,0.49920654,8.296875,8.109375,3.578125
511,0.78808594,0.25604248,0.48675537,15.484375,11.3125,1.3125
512,0.9067383,0.28485107,0.42962646,5.84375,6.171875,0.46875
513,0.8352051,0.26654053,0.46868896,6.03125,7.015625,1.078125
514,0.8781738,0.2789917,0.48284912,1.40625,8.265625,-0.90625
515,0.83984375,0.2897339,0.4677124,3.984375,12.328125,0.015625
516,0.87158203,0.26849365,0.49188232,4.609375,14.390625,2.328125
517,0.9758301,0.31610107,0.2994995,-9.8125,14.609375,7.796875
518,0.75219727,0.35784912,0.55023193,9.859375,0.296875,3.015625
519,0.84375,0.28948975,0.5018921,3.6875,2.65625,-0.546875
520,0.9116211,0.29632568,0.42156982,7.578125,1.515625,-1.75
521,0.91015625,0.26654053,0.42059326,2.375,-7.3125,0.171875
522,0.84033203,0.27142334,0.4418335,7.5,-2.296875,1.140625
523,0.8791504,0.27386475,0.43206787,1.53125,0.140625,0.328125
524,0.8618164,0.2826538,0.4574585,-2.640625,-0.375,-1.265625
525,0.86987305,0.30023193,0.449646,-2.5625,1.515625,-0.390625
526,0.8659668,0.28485107,0.44110107,2.65625,7.28125,1.109375
527,0.9824219,0.28118896,0.27581787,-13.78125,10.53125,3.78125
528,0.8786621,0.3060913,0.52557373,-5.984375,4.65625,-2.375
529,0.7541504,0.27874756,0.39691162,8.3125,-3.328125,-4.21875
530,0.9797363,0.30926514,0.46136475,-2.59375,-22.90625,-3.6875
531,0.8178711,0.23114014,0.47235107,-6.296875,-26.0625,-5.265625
532,0.83251953,0.30047607,0.45404053,-1.75,-14.703125,-0.59375
533,0.84277344,0.2831421,0.5075073,0.609375,-8.09375,-0.703125
534,0.8378906,0.29632568,0.49871826,2.421875,-0.921875,-1.015625
535,0.8688965,0.28289795,0.4960327,0.265625,1.484375,-1.390625
536,0.8371582,0.27264404,0.48358154,1.453125,1.609375,-1.359375
537,0.8647461,0.28045654,0.5014038,3.796875,3.4375,0.59375
538,0.8708496,0.27850342,0.47210693,5.734375,14.59375,1.1875
539,0.8605957,0.2694702,0.4623413,6.015625,16.640625,1.65625
540,0.98413086,0.20306396,0.35638428,-6.609375,26.09375,7.09375
541,1.0063477,0.45550537,0.46673584,-8.84375,4.453125,3.046875
542,0.70654297,0.24334717,0.48358154,4.578125,-1.875,-2.9375
543,0.8742676,0.29803467,0.45672607,6.28125,-7.375,-2.28125
544,0.89501953,0.2267456,0.46868896,2.0,-7.984375,-2.203125
545,0.86279297,0.3048706,0.42156982,-2.5625,-11.71875,0.78125
546,0.8388672,0.25213623,0.49188232,0.90625,-3.53125,0.15625
547,0.8640137,0.28167725,0.4725952,0.671875,0.46875,-1.1875
548,0.876709,0.29071045,0.45135498,-0.296875,3.21875,-1.421875
549,0.86376953,0.29388428,0.4664917,4.484375,5.828125,0.96875
550,0.87768555,0.28900146,0.44500732,5.84375,9.15625,1.515625
551,0.9152832,0.25701904,0.4105835,4.71875,16.609375,3.703125
552,1.0673828,0.39886475,0.23162842,-19.921875,7.203125,0.734375
553,0.73046875,0.26361084,0.5282593,1.3125,-1.484375,-3.078125
554,0.7519531,0.26019287,0.4179077,8.546875,-5.421875,-3.3125
555,0.9614258,0.26556396,0.4755249,-0.890625,-17.625,-2.828125
556,0.79296875,0.24603271,0.4586792,-7.90625,-18.203125,-0.234375
557,0.90649414,0.30291748,0.4743042,1.984375,-2.015625,0.84375
558,0.8642578,0.2909546,0.4611206,0.984375,1.921875,0.328125
559,0.861084,0.2929077,0.44158936,3.90625,11.3125,1.09375
560,0.89282227,0.30145264,0.43792725,1.109375,7.140625,2.453125
561,0.90649414,0.28948975,0.3414917,-8.84375,9.375,4.078125
562,0.88378906,0.3756714,0.5380249,4.609375,14.09375,-0.9375
563,0.7741699,0.2609253,0.43841553,8.90625,1.28125,-2.078125
564,0.9172363,0.29388428,0.45550537,0.109375,-13.078125,-2.75
565,0.8671875,0.23431396,0.4874878,-9.84375,-30.40625,-3.859375
566,0.84472656,0.31781006,0.40985107,-5.03125,-15.421875,-1.328125
567,0.8652344,0.28240967,0.5165405,-2.75,-12.453125,-1.109375
568,0.82055664,0.29608154,0.5072632,-1.609375,-6.578125,-0.25
569,0.8613281,0.3204956,0.48602295,-2.59375,-2.328125,-0.40625
570,0.8300781,0.29388428,0.5309448,5.828125,6.640625,0.3125
571,0.8371582,0.2765503,0.48309326,4.15625,9.328125,0.265625
572,0.86206055,0.28363037,0.5055542,7.75,15.8125,1.953125
573,0.86450195,0.27801514,0.4701538,7.015625,16.5625,2.375
574,0.8654785,0.28289795,0.45550537,7.65625,14.03125,2.484375
575,0.8911133,0.30682373,0.44110107,0.484375,5.625,1.265625
576,0.83154297,0.27801514,0.4677124,-4.15625,-1.125,1.21875
577,1.0026855,0.32122803,0.24505615,-14.65625,0.96875,-1.25
578,0.810791,0.32513428,0.51727295,3.390625,9.1875,-2.28125
579,0.8046875,0.27508545,0.46820068,7.484375,0.65625,-0.734375
580,0.94018555,0.2868042,0.43206787,-1.28125,-9.25,-1.734375
581,0.859375,0.2814331,0.43914795,-2.390625,-11.84375,-0.390625
582,0.8742676,0.2909546,0.41156006,2.96875,-4.65625,0.890625
583,0.84399414,0.2921753,0.4418335,-0.953125,-1.125,0.5625
584,0.8972168,0.32000732,0.45916748,-0.375,1.046875,0.046875
585,0.85913086,0.2855835,0.4454956,-2.265625,0.203125,-0.3125
586,0.86816406,0.28582764,0.45477295,1.359375,1.828125,0.0
587,0.87597656,0.28656006,0.45843506,0.8125,1.625,0.296875
588,0.84375,0.28948975,0.47454834,2.28125,6.875,1.46875
589,0.9057617,0.28900146,0.4154663,-3.21875,4.296875,1.4375
590,0.93188477,0.31854248,0.5006714,9.359375,14.046875,-0.6875
591,0.74780273,0.30438232,0.44476318,15.515625,16.859375,1.390625
592,0.9328613,0.25506592,0.47479248,7.1875,-1.8125,-1.6875
593,0.7910156,0.26434326,0.41741943,-0.875,-9.171875,-2.234375
594,0.907959,0.26287842,0.42230225,-7.140625,-20.078125,-2.984375
595,0.8581543,0.29534912,0.41033936,-3.859375,-8.046875,-0.859375
596,0.8625488,0.2765503,0.4491577,-3.625,-5.3125,-0.03125
597,0.8874512,0.3241577,0.43963623,-1.765625,1.328125,1.0
598,0.8691406,0.29681396,0.42669678,-0.484375,0.375,0.3125
599,0.8613281,0.27630615,0.44207764,1.203125,3.421875,0.390625
600,0.8774414,0.2723999,0.45159912,0.125,0.609375,-0.265625
601,0.85498047,0.28485107,0.46331787,-0.515625,0.625,0.234375
602,0.92749023,0.28460693,0.33465576,-3.03125,8.6875,0.203125
603,0.83691406,0.32196045,0.5338745,10.4375,14.046875,-1.640625
604,0.73779297,0.2555542,0.4352417,7.515625,-2.953125,-0.375
605,0.95092773,0.30438232,0.4779663,1.21875,-9.171875,-0.40625
606,0.8342285,0.23284912,0.44403076,-8.546875,-31.984375,-4.8125
607,0.85791016,0.2909546,0.44354248,-8.625,-23.515625,-2.28125
608,0.8544922,0.28753662,0.5067749,-3.984375,-8.578125,-1.546875
609,0.81884766,0.3024292,0.47503662,0.515625,-2.125,-0.828125
610,0.83325195,0.2855835,0.526062,-1.09375,-1.390625,1.0
611,0.8671875,0.29144287,0.49456787,-2.203125,-1.71875,-1.21875
612,0.83691406,0.28631592,0.48944092,-0.90625,-1.453125,-0.875
613,0.8483887,0.293396,0.5126343,1.109375,2.15625,-0.515625
614,0.8317871,0.28948975,0.5036011,0.65625,4.015625,0.296875
615,0.82910156,0.293396,0.5187378,6.09375,9.890625,1.296875
616,0.9433594,0.3012085,0.45281982,16.109375,44.671875,5.515625
617,0.89282227,0.33026123,0.43499756,8.75,22.234375,6.3125
618,0.8562012,0.3060913,0.34832764,2.3125,15.484375,1.96875
619,0.8232422,0.27825928,0.43084717,2.765625,-1.328125,-2.328125
620,0.90063477,0.22918701,0.44378662,6.125,-0.75,-2.484375
621,0.8857422,0.24090576,0.4286499,-3.03125,-16.6875,-5.109375
622,0.90112305,0.27313232,0.43084717,-12.890625,-21.765625,-3.21875
623,0.84814453,0.26409912,0.4677124,-2.671875,-6.984375,-1.265625
624,0.84814453,0.29437256,0.46453857,-2.515625,-2.796875,-0.84375
625,0.83862305,0.28826904,0.48309326,1.453125,2.9375,-1.03125
626,0.8859863,0.29510498,0.4413452,6.421875,16.46875,2.078125
627,0.88134766,0.29656982,0.45111084,10.359375,23.71875,5.15625
628,0.9707031,0.30975342,0.33709717,5.4375,21.3125,7.34375
629,1.0036621,0.29388428,0.27801514,-5.640625,5.453125,-0.46875
630,0.767334,0.25653076,0.48284912,4.609375,-6.0625,-2.015625
631,0.89501953,0.27093506,0.39471436,3.234375,-12.625,-3.640625
632,0.9135742,0.2453003,0.45819092,-7.0,-26.640625,-7.296875
633,0.86816406,0.27825928,0.41107178,-14.5,-22.484375,-2.140625
634,0.87646484,0.29266357,0.46746826,1.8125,0.671875,0.53125
635,0.8491211,0.28216553,0.45892334,1.0625,-0.328125,-0.546875
636,0.9091797,0.31170654,0.43133545,1.53125,7.84375,0.6875
637,0.8972168,0.3012085,0.46697998,10.78125,35.40625,6.25
638,1.0576172,0.40179443,0.1930542,-16.265625,7.09375,5.328125
639,0.75097656,0.2230835,0.59783936,-2.5625,-12.828125,-6.296875
640,0.7307129,0.29364014,0.38763428,1.265625,-13.15625,-5.28125
641,0.9758301,0.2694702,0.50897217,-6.453125,-31.9375,-6.90625
642,0.8076172,0.27386475,0.41375732,-6.359375,-17.375,-2.84375
643,0.828125,0.30169678,0.5023804,-1.109375,0.8125,4.40625
644,0.84765625,0.23675537,0.5014038,-4.359375,1.6875,2.515625
645,0.875,0.33758545,0.4459839,4.0625,10.78125,0.546875
646,0.8483887,0.29364014,0.4743042,5.21875,9.96875,0.75
647,0.8703613,0.2929077,0.4689331,7.65625,8.765625,1.71875
648,0.8688965,0.28216553,0.49334717,2.625,-0.375,1.328125
649,0.8691406,0.29241943,0.46600342,3.40625,-0.890625,-0.875
650,0.8630371,0.29315186,0.4472046,5.3125,-2.265625,-1.015625
651,0.88549805,0.2753296,0.43670654,6.921875,0.34375,-0.609375
652,0.920166,0.29437256,0.48602295,0.984375,-15.1875,-5.234375
653,0.89746094,0.29119873,0.40350342,-4.890625,-12.96875,-5.203125
654,0.8144531,0.31341553,0.4130249,-4.296875,-11.546875,-2.78125
655,0.88378906,0.2592163,0.5368042,0.59375,-8.875,-2.8125
656,0.7824707,0.28582764,0.5162964,0.59375,-5.421875,-0.53125
657,0.80908203,0.24920654,0.53704834,1.015625,-0.578125,-0.203125
658,0.8400879,0.25457764,0.54022217,0.484375,1.6875,-0.3125
659,0.8117676,0.25897217,0.55096436,-0.375,5.34375,0.546875
660,0.8305664,0.2501831,0.4845581,-2.703125,11.09375,-0.796875
661,0.8244629,0.2838745,0.5050659,-1.703125,11.828125,2.703125
662,0.90478516,0.29656982,0.4562378,-2.40625,18.25,1.375
663,0.8708496,0.28240967,0.48284912,-1.6875,15.578125,2.84375
664,0.95751953,0.34246826,0.40374756,-6.84375,7.40625,-0.8125
665,0.78344727,0.2592163,0.5097046,6.234375,2.59375,-0.5
666,0.8864746,0.28778076,0.45721436,7.328125,1.234375,-0.078125
667,0.89990234,0.2658081,0.45184326,0.796875,-15.609375,-1.40625
668,0.8286133,0.2741089,0.42913818,-0.5,-11.578125,-1.609375
669,0.8701172,0.29486084,0.45037842,0.578125,-2.921875,0.390625
670,0.8684082,0.29534912,0.4537964,-0.953125,-0.328125,0.15625
671,0.8635254,0.28070068,0.4743042,1.046875,1.328125,0.625
672,0.8869629,0.27947998,0.46087646,3.46875,4.09375,-0.0625
673,0.85839844,0.30828857,0.4484253,4.53125,8.34375,1.390625
674,0.9387207,0.2772827,0.42230225,-1.015625,19.65625,1.984375
675,0.82666016,0.32904053,0.47625732,-0.8125,2.390625,-1.03125
676,0.80566406,0.25115967,0.4442749,7.234375,-5.734375,-0.453125
677,0.88793945,0.2682495,0.50213623,3.265625,-10.046875,-1.546875
678,0.8322754,0.21600342,0.49383545,-2.890625,-22.140625,-2.125
679,0.83081055,0.27801514,0.48431396,-0.203125,-22.375,-1.765625
680,0.8249512,0.3114624,0.45306396,0.296875,-11.71875,-0.921875
681,0.8503418,0.29803467,0.50335693,5.046875,-2.03125,-1.296875
682,0.88549805,0.27288818,0.5036011,1.21875,-0.75,-0.6875
683,0.8339844,0.24945068,0.5114136,3.609375,-0.09375,-1.28125
684,0.86694336,0.2694702,0.5060425,2.765625,-2.296875,-0.90625
685,0.8190918,0.23187256,0.54241943,5.46875,1.375,-0.234375
686,0.8425293,0.26776123,0.5348511,1.078125,2.390625,-1.1875
687,0.8300781,0.2772827,0.49627686,2.203125,9.921875,0.375
688,0.84716797,0.27947998,0.51068115,1.953125,7.21875,0.75
689,0.8520508,0.2662964,0.49261475,-0.703125,8.09375,1.09375
690,0.8405762,0.25579834,0.48724365,4.15625,16.75,2.515625
691,1.0275879,0.28411865,0.43450928,-33.46875,10.40625,7.59375
692,0.7626953,0.3270874,0.43988037,-8.78125,9.765625,1.03125
693,0.8466797,0.3114624,0.45477295,7.046875,-1.0,-0.25
694,0.92333984,0.32391357,0.47332764,4.03125,-8.296875,-1.65625
695,0.83740234,0.23358154,0.46380615,3.109375,-13.328125,-2.4375
696,0.84887695,0.27801514,0.4520874,2.359375,-13.5,-2.28125
697,0.8720703,0.25726318,0.46185303,0.390625,-6.171875,-1.765625
698,0.84521484,0.3007202,0.45770264,-1.046875,-1.484375,-0.984375
699,0.8598633,0.2711792,0.4845581,1.21875,2.890625,0.78125
700,0.86694336,0.28900146,0.49163818,5.78125,8.984375,1.234375
701,0.8808594,0.27044678,0.45721436,6.03125,19.875,3.421875
702,0.875,0.26971436,0.4586792,-1.21875,14.328125,4.140625
703,1.0224609,0.28460693,0.23626709,-24.890625,4.171875,0.59375
704,0.7038574,0.2855835,0.4989624,1.484375,5.625,-2.0
705,0.8654785,0.28729248,0.43548584,9.015625,-2.921875,0.28125
706,0.97216797,0.3060913,0.46307373,5.5,-12.265625,-2.46875
707,0.8083496,0.2230835,0.46331787,2.140625,-22.703125,-3.90625
708,0.8588867,0.29534912,0.4352417,-1.203125,-14.8125,-2.375
709,0.84350586,0.27093506,0.4796753,3.40625,-1.640625,-1.6875
710,0.8234863,0.27947998,0.49017334,4.0,0.875,-0.53125
711,0.8701172,0.2850952,0.5253296,7.859375,8.078125,0.734375
712,0.8840332,0.2675171,0.45281982,6.046875,3.0625,-0.3125
713,0.8691406,0.24578857,0.49505615,2.546875,-0.171875,-1.515625
714,0.8654785,0.24700928,0.48968506,2.1875,-0.5,-2.171875
715,0.8779297,0.2592163,0.47039795,0.796875,-5.609375,-2.703125
716,0.8586426,0.26800537,0.46063232,1.921875,-2.453125,-1.703125
717,0.85668945,0.25579834,0.48968506,0.5625,-0.796875,-1.1875
718,0.85302734,0.25091553,0.48797607,-0.765625,-3.390625,-1.0
719,0.8383789,0.2531128,0.4977417,2.84375,8.234375,0.40625
720,0.86572266,0.24066162,0.4784546,2.34375,9.828125,2.0625
721,0.8474121,0.23602295,0.48382568,0.515625,4.828125,1.984375
722,0.8835449,0.24407959,0.47528076,-4.3125,6.65625,2.921875
723,0.8623047,0.24993896,0.45941162,0.09375,4.578125,0.640625
724,0.86694336,0.24261475,0.463562,0.09375,2.25,0.828125
725,0.90234375,0.27044678,0.45428467,-2.6875,1.09375,-0.109375
726,0.87060547,0.262146,0.43255615,-1.3125,4.40625,0.796875
727,0.8664551,0.26434326,0.45159912,0.140625,8.421875,1.984375
728,1.0253906,0.24554443,0.28045654,-16.625,10.359375,6.59375
729,0.8532715,0.4118042,0.46624756,-1.34375,10.6875,-0.328125
730,0.7866211,0.22088623,0.479187,4.515625,-0.140625,0.640625
731,0.89331055,0.291687,0.47210693,-0.625,-7.4375,-1.234375
732,0.9301758,0.25897217,0.50531006,3.9375,-11.53125,-0.953125
733,0.7915039,0.25115967,0.41375732,2.59375,-18.59375,-4.203125
734,0.8820801,0.276062,0.44085693,0.703125,-3.796875,-0.921875
735,0.8757324,0.28289795,0.45892334,-1.796875,3.421875,-0.578125
736,0.8701172,0.28411865,0.44036865,0.78125,8.0625,1.328125
737,0.9135742,0.26556396,0.43719482,5.75,16.1875,2.515625
738,1.0080566,0.3834839,0.2538452,-14.34375,7.0,1.4375
739,0.7573242,0.23577881,0.58148193,1.21875,1.359375,-1.703125
740,0.77978516,0.2831421,0.40911865,-4.5,-12.328125,-4.65625
741,0.98046875,0.2946167,0.51312256,-10.109375,-27.078125,-1.75
742,0.7883301,0.2399292,0.46966553,5.875,-16.21875,-3.015625
743,0.8828125,0.31414795,0.45135498,1.078125,-6.984375,0.140625
744,0.8425293,0.2662964,0.48919678,-1.421875,-1.84375,-1.46875
745,0.8383789,0.276062,0.4664917,-4.90625,-2.609375,-0.15625
746,0.86450195,0.28094482,0.5023804,-1.71875,0.25,-0.34375
747,0.8635254,0.27337646,0.48382568,7.390625,12.28125,1.84375
748,0.90283203,0.2675171,0.5038452,4.671875,21.34375,5.15625
749,0.9567871,0.3529663,0.324646,-12.453125,7.953125,0.671875
750,0.7441406,0.26361084,0.50946045,-2.265625,-1.5,-2.3125
