sample_no,accel_x,accel_y,accel_z,gyro_x,gyro_y,gyro_z
0,-0.6479491999999999,0.09832764,-0.89556885,-30.09375,-14.25,-9.359375
1,-0.5541991999999999,-0.13433838,-0.9116821,-15.078125,-9.09375,-6.78125
2,-0.5720215,0.026550293,-0.7341919,-1.40625,-12.3125,-0.53125
3,-0.6784668,0.011413574,-0.8508911,-4.90625,-1.140625,-1.234375
4,-0.48608398,-0.05279541,-0.7427368000000001,1.90625,-3.5,-0.265625
5,-0.62402344,-0.008361816,-0.7866820999999999,5.28125,1.8125,0.984375
6,-0.5432129,-0.020080566,-0.7930298000000001,9.734375,2.5625,2.21875
7,-0.5498046999999999,0.019714355,-0.8550415000000001,19.390625,7.0,8.109375
8,-0.6430664,-0.04425049,-0.7136840999999999,42.953125,18.5625,14.96875
9,-0.57177734,0.08099365,-0.94854736,29.203125,9.8125,13.5625
10,-0.6582031,-0.0015258789,-0.6201781999999999,41.0,15.0,15.125
11,-0.7531738,0.23040771,-0.6860961999999999,8.1875,14.640625,13.875
12,-0.76000977,0.0079956055,-0.57598877,2.53125,-0.703125,1.359375
13,-0.71069336,0.12225342,-0.6428833,-13.546875,-2.703125,3.609375
14,-0.7163086,0.0629272459999999,-0.71221924,-5.03125,-3.265625,-5.515625
15,-0.6296387,0.04827881,-0.70391846,1.609375,2.015625,2.84375
16,-0.69018555,0.0289917,-0.7527465999999999,-7.53125,-5.546875,-1.671875
17,-0.6237793,0.061950684,-0.71881104,4.0,3.109375,1.75
18,-0.65527344,0.07733154,-0.79571533,0.21875,-1.90625,0.828125
19,-0.56933594,0.04827881,-0.8513794,2.484375,-0.6875,2.0
20,-0.70043945,0.12982178,-0.57696533,18.484375,23.421875,12.484375
21,-0.8425292999999999,0.030212402,-0.616272,-11.1875,-4.75,-4.234375
22,-0.7038574000000001,0.020690918,-0.6096802,1.265625,6.734375,-0.640625
23,-0.59643555,0.07171631,-0.7136840999999999,-5.171875,2.328125,-7.046875
24,-0.7844238,0.030212402,-0.52056885,3.296875,8.75,-3.046875
25,-0.6933594,0.0016479492,-0.7420044,-28.359375,-15.71875,-14.078125
26,-0.6623535,0.057556152,-0.7178345,-17.375,-9.03125,-12.359375
27,-0.71435547,0.06439209,-0.74591064,-26.609375,-12.46875,-11.953125
28,-0.5397949000000001,-0.06719971,-0.7539673000000001,-20.4375,-13.09375,-10.796875
29,-0.6879883000000001,0.08392334,-0.78131104,-27.734375,-21.34375,-6.46875
30,-0.765625,-0.0178833,-0.85040283,8.1875,10.9375,-1.53125
31,-0.44360352,-0.043273926,-0.6848755,-10.640625,-6.875,-5.1875
32,-0.66430664,0.0006713867,-0.76763916,-13.875,-11.875,-0.0625
33,-0.69873047,-0.046203613,-0.75006104,11.578125,10.859375,0.71875
34,-0.50341797,-0.0303344729999999,-0.8472290000000001,-11.1875,-2.796875,-3.640625
35,-0.6437988,-0.0056762694999999,-0.7173461999999999,4.796875,-6.171875,5.921875
36,-0.56518555,-0.011047363,-0.7715454,22.046875,9.640625,5.046875
37,-0.71313477,0.0289917,-0.7276001,35.140625,15.125,17.53125
38,-0.6022949000000001,-0.08502197,-0.8748169,19.5,3.25,6.03125
39,-0.62060547,0.05609131,-0.70318604,49.5,24.0625,17.453125
40,-0.6140137,0.031921387,-0.76568604,15.453125,11.859375,7.890625
41,-0.79589844,0.1149292,-0.53448486,21.765625,11.6875,10.953125
42,-0.6882324000000001,0.034118652,-0.57696533,-8.578125,-13.375,-1.859375
43,-0.8166504,0.10467529,-0.7090454,-6.078125,0.078125,-2.328125
44,-0.5864258000000001,0.061950684,-0.6802368000000001,-3.5625,-3.65625,-1.875
45,-0.7302246,0.055603027,-0.69122314,-4.796875,-2.78125,-1.625
46,-0.6262207,0.043884277,-0.74298096,-1.5625,-1.234375,0.875
47,-0.71118164,0.03363037,-0.678772,2.390625,-3.9375,-0.578125
48,-0.7067871,0.0941772459999999,-0.7510376,4.59375,-0.46875,3.703125
49,-0.6777344,0.08050537,-0.7420044,8.359375,-0.046875,1.015625
50,-0.7019043,-0.0007934570299999,-0.77056885,0.71875,6.71875,3.828125
51,-0.8625488000000001,0.04925537,-0.55133057,4.578125,0.890625,7.265625
52,-0.7998046999999999,0.18353271,-0.63409424,-15.015625,-2.25,-3.53125
53,-0.6569824000000001,0.0629272459999999,-0.7319945999999999,-5.640625,4.984375,-8.34375
54,-0.5617675999999999,-0.031066895,-0.61187744,2.203125,6.953125,-5.921875
55,-0.74975586,0.047058105,-0.6892699999999999,-20.03125,-5.9375,-6.84375
56,-0.74902344,0.05267334,-0.68414307,-14.46875,-3.296875,-11.703125
57,-0.6804199000000001,-0.0068969727,-0.7178345,-16.625,-6.96875,-11.640625
58,-0.6081543,0.06732178,-0.8086548000000001,-22.21875,-13.078125,-8.375
59,-0.80859375,-0.0071411133,-0.7554320999999999,-8.328125,5.625,-2.75
60,-0.56518555,-0.020568848,-0.7359009,-9.390625,-12.9375,-4.359375
61,-0.6882324000000001,0.029724121,-0.7490845,-1.625,2.578125,4.671875
62,-0.689209,-0.035217285,-0.65582275,-2.890625,0.515625,-1.796875
63,-0.6010741999999999,0.018249512,-0.68951416,-5.578125,-3.390625,-3.75
64,-0.6801758000000001,-0.03765869,-0.80670166,-0.90625,-6.0625,0.96875
65,-0.6364746,-0.03375244,-0.6482544,-3.171875,-0.140625,0.15625
66,-0.65356445,-0.005432129,-0.80596924,-3.15625,-11.640625,-0.140625
67,-0.60913086,-0.04547119,-0.7564086999999999,11.90625,4.25,4.125
68,-0.60253906,0.020202637,-0.7022095,25.28125,11.21875,10.9375
69,-0.79663086,-0.02154541,-0.6765747,30.265625,5.296875,11.5625
70,-0.5332031,0.06585693,-0.9678345,26.515625,1.40625,8.640625
71,-0.6105957,-0.09234619,-0.6721802,44.0625,25.453125,15.0
72,-0.7126465,0.19989014,-0.5564574999999999,19.0625,2.796875,12.6875
73,-0.8173828000000001,0.001159668,-0.5166626,0.5625,-7.015625,-1.84375
74,-0.73706055,0.1359253,-0.68096924,-10.578125,0.421875,-1.71875
75,-0.67578125,0.011657715,-0.6265259,-6.921875,-7.015625,-4.96875
76,-0.6525879,0.0460815429999999,-0.7842406999999999,-6.1875,-6.1875,-1.140625
77,-0.8198242,0.0033569335999999,-0.6567993000000001,1.75,5.328125,1.328125
78,-0.5744629,0.08392334,-0.7102661,-1.84375,-5.484375,-1.34375
79,-0.7233887,0.057556152,-0.7581177,1.4375,-1.65625,2.609375
80,-0.5407715,-0.089660645,-0.9561157,2.34375,3.171875,1.140625
81,-0.7128906,0.13104248,-0.5491333,13.09375,1.265625,14.5625
82,-0.81762695,0.043640137,-0.51446533,-5.546875,0.0,-2.6875
83,-0.70336914,0.0143432619999999,-0.6026001,-2.984375,7.25,-8.8125
84,-0.57910156,0.11517334,-0.6856079,-7.171875,-0.828125,-6.1875
85,-0.8815917999999999,0.05731201,-0.55718994,-2.390625,3.03125,-5.453125
86,-0.7167969,0.0040893555,-0.6565552,-22.71875,-13.921875,-13.703125
87,-0.6677246,0.0072631836,-0.6856079,-29.171875,-16.390625,-12.6875
88,-0.68066406,-0.023742676,-0.74957275,-22.984375,-12.3125,-6.34375
89,-0.73706055,0.0387573239999999,-0.7739868000000001,-16.140625,-3.171875,-7.203125
90,-0.53100586,-0.066223145,-0.7131958,-9.1875,-10.640625,-8.34375
91,-0.7128906,0.04095459,-0.7827759,-12.71875,-1.453125,-1.5
92,-0.6586914,-0.018371582,-0.659729,-0.125,10.421875,-5.3125
93,-0.5925293,-0.03692627,-0.8110961999999999,-7.125,-13.109375,-1.734375
94,-0.71533203,0.022399902,-0.74005127,-1.0,-1.953125,2.71875
95,-0.6413574000000001,-0.07867432,-0.6995239000000001,-1.78125,2.796875,-2.3125
96,-0.5654296999999999,0.012145996,-0.772522,3.71875,-8.484375,3.5625
97,-0.65722656,-0.027404785,-0.73223877,14.84375,2.640625,6.59375
98,-0.6430664,-0.01373291,-0.72662354,18.265625,4.71875,9.640625
99,-0.64282227,-0.0264282229999999,-0.82159424,23.578125,-0.875,7.390625
100,-0.55566406,0.070251465,-0.9800415,41.546875,5.640625,16.359375
101,-0.6279296999999999,-0.0037231445,-0.6970824999999999,48.1875,48.75,17.890625
102,-0.90185547,0.025817871,-0.458313,7.0625,-0.609375,7.59375
103,-0.6394043,0.08734131,-0.5237427,7.265625,2.234375,3.71875
104,-0.8618164,0.08270264,-0.69122314,-11.21875,-5.28125,-4.171875
105,-0.68066406,0.04046631,-0.6099243000000001,-7.296875,-0.328125,-2.609375
106,-0.7006836,0.04486084,-0.77423096,-3.484375,-5.734375,0.046875
107,-0.68969727,0.0387573239999999,-0.6782836999999999,-0.59375,0.140625,-0.359375
108,-0.6899414,0.051208496,-0.68414307,-4.984375,-5.625,0.125
109,-0.71533203,0.06878662,-0.7337036,4.796875,-0.375,3.125
110,-0.64697266,0.09173584,-0.76031494,8.796875,-6.03125,2.625
111,-0.8239745999999999,0.032165527,-0.64849854,15.890625,19.71875,10.9375
112,-0.80126953,0.08392334,-0.64801025,-8.984375,-13.828125,-1.5
113,-0.7038574000000001,0.12640381,-0.6380005,-4.484375,-2.828125,0.546875
114,-0.78686523,0.023132324,-0.56329346,2.90625,0.96875,-0.734375
115,-0.7355957,0.097839355,-0.6699829,-1.296875,-2.828125,-0.03125
116,-0.6052246,-0.018371582,-0.74664307,1.53125,-4.5,-0.5625
117,-0.79589844,0.054626465,-0.7283324999999999,-1.09375,-1.6875,0.890625
118,-0.64282227,0.0499877929999999,-0.7481079,-0.140625,-5.375,-1.578125
119,-0.6411133000000001,0.017028809,-0.83013916,-9.390625,2.859375,0.265625
120,-0.9069824,0.0211792,-0.50616455,10.28125,6.765625,5.78125
121,-0.5461425999999999,0.13104248,-0.6929320999999999,-10.0,-7.90625,-9.734375
122,-0.78637695,0.020935059,-0.57647705,9.796875,9.578125,4.140625
123,-0.6706543,0.050476074,-0.6904906999999999,-1.8125,-2.125,-2.796875
124,-0.6772461,0.010925293,-0.7671509,0.109375,-3.953125,-1.53125
125,-0.685791,0.06951904,-0.6934204,1.53125,0.671875,0.59375
126,-0.74658203,0.038024902,-0.7061156999999999,4.546875,0.1875,2.234375
127,-0.7006836,0.09051514,-0.7437134,-2.90625,-5.28125,1.84375
128,-0.7426758000000001,0.025817871,-0.75201416,-1.453125,-0.703125,-0.046875
129,-0.73706055,0.042663574,-0.6355590999999999,-0.984375,9.421875,3.59375
130,-0.8552245999999999,0.06561279,-0.5393677,2.890625,5.421875,2.265625
131,-0.5463866999999999,-0.0007934570299999,-0.6836548000000001,-5.828125,-3.015625,-8.015625
132,-0.77978516,0.024597168,-0.60528564,-2.53125,2.375,-2.90625
133,-0.77783203,0.02166748,-0.630188,-1.0625,5.125,-6.34375
134,-0.6652832,0.026794434,-0.63604736,-2.859375,-12.796875,-6.6875
135,-0.7927246,0.0993042,-0.76348877,-28.125,-14.203125,-6.15625
136,-0.75268555,-0.022277832,-0.60723877,5.71875,22.40625,-5.1875
137,-0.63500977,-0.027404785,-0.7119751,-23.984375,-21.25,-8.203125
138,-0.7207031,0.06414795,-0.82525635,-26.3125,-18.578125,-7.421875
139,-0.65405273,-0.062072754,-0.7114868000000001,13.625,14.671875,0.859375
140,-0.6879883000000001,0.03265381,-0.6226195999999999,-12.546875,-10.765625,-6.0625
141,-0.74194336,0.039978027,-0.73809814,-11.46875,-2.359375,-0.03125
142,-0.701416,-0.023498535,-0.66192627,2.03125,-0.984375,-0.3125
143,-0.6044921999999999,-0.043029785,-0.6704711999999999,-11.96875,-13.234375,-2.703125
144,-0.7734375,0.016052246,-0.9133911,4.46875,-1.5625,1.90625
145,-0.43676758,-0.05621338,-0.76446533,3.703125,-5.09375,5.765625
146,-0.7084961,0.0111694339999999,-0.7300415,47.34375,29.9375,8.921875
147,-0.7224121,-0.015686035,-0.4915161,40.453125,12.0625,18.15625
148,-0.68188477,0.047790527,-0.9092407,2.9375,-10.375,-2.796875
149,-0.7019043,0.024597168,-0.55352783,44.046875,20.90625,15.453125
150,-0.7114258000000001,0.06390381,-0.7554320999999999,-8.40625,-18.15625,-1.25
151,-0.73583984,0.046569824,-0.6182251,15.28125,7.984375,8.578125
152,-0.65649414,-0.0071411133,-0.7698364000000001,-8.90625,-4.609375,0.9375
153,-0.6669921999999999,0.18182373,-0.59698486,3.34375,-1.78125,6.34375
154,-0.8613280999999999,-0.019592285,-0.6008911,-1.1875,-1.046875,-0.75
155,-0.71240234,0.11126709,-0.67071533,1.421875,3.953125,-1.421875
156,-0.69506836,0.0617065429999999,-0.5942993000000001,-0.875,-0.21875,-0.875
157,-0.6940918,0.03704834,-0.73931885,-2.34375,-6.75,1.0625
158,-0.77783203,-0.0007934570299999,-0.6489868000000001,1.96875,0.578125,0.546875
159,-0.6286621,0.0289917,-0.72320557,-8.3125,-8.90625,-4.34375
160,-0.75805664,0.01727295,-0.7383423000000001,2.015625,-0.984375,1.0625
161,-0.6826171999999999,0.09954834,-0.708313,4.4375,-4.0625,3.78125
162,-0.69677734,0.013366699,-0.788147,9.265625,5.8125,3.203125
163,-0.6850586,0.089538574,-0.58062744,3.515625,8.765625,4.421875
164,-0.92749023,0.0072631836,-0.58380127,-4.34375,3.234375,3.515625
165,-0.6015625,0.035583496,-0.6111449999999999,-5.75,-2.5,-13.296875
166,-0.69628906,0.023376465,-0.66290283,-3.109375,4.640625,-7.140625
167,-0.6845703000000001,0.05316162,-0.7048949999999999,2.421875,1.671875,-2.6875
168,-0.7524414,0.003112793,-0.6506958,-0.859375,-8.34375,-5.640625
169,-0.73950195,-0.04107666,-0.6135864000000001,-25.046875,-4.6875,-11.796875
170,-0.7468262,0.0927123999999999,-0.72491455,-30.734375,-12.0625,-11.234375
171,-0.67456055,0.026062012,-0.7371215999999999,-18.625,-8.125,-10.96875
172,-0.62231445,-0.09039307,-0.6694945999999999,-15.1875,-8.78125,-9.40625
173,-0.7487793,0.074401855,-0.8237915000000001,-4.890625,1.75,-1.09375
174,-0.6237793,0.014099121,-0.6560669,-6.609375,-2.890625,-6.65625
175,-0.69384766,-0.0132446289999999,-0.66851807,-2.671875,-5.875,-2.75
176,-0.623291,-0.01373291,-0.7744751,-8.875,0.546875,-2.328125
177,-0.7233887,-0.043273926,-0.7192993000000001,-3.59375,1.9375,-2.671875
178,-0.64941406,-0.0115356445,-0.68756104,-0.453125,-3.984375,-6.078125
179,-0.67578125,-0.035217285,-0.66778564,-3.515625,-6.078125,-4.515625
180,-0.6706543,0.0460815429999999,-0.7605590999999999,6.15625,-4.046875,-0.9375
181,-0.5913086,0.01361084,-0.7786255,5.421875,-5.78125,2.1875
182,-0.6135254,0.062194824,-0.8196411,34.875,13.078125,11.046875
183,-0.6298828000000001,-6.1035156e-05,-0.7180786,57.953125,23.640625,29.4375
184,-0.7644043,0.024597168,-0.6201781999999999,32.296875,0.453125,10.578125
185,-0.6713866999999999,0.07366943,-0.7046509,17.375,2.84375,8.84375
186,-0.8208008,0.0902709959999999,-0.6729126,8.265625,-6.0625,6.484375
187,-0.43139648,-0.0264282229999999,-0.9229126,-0.109375,11.140625,4.625
188,-0.7854004,0.18499756,-0.41485596,13.515625,7.0625,19.9375
189,-0.8925780999999999,0.06707764,-0.5630493000000001,-12.703125,-16.6875,-5.875
190,-0.59765625,0.046325684,-0.6892699999999999,-8.671875,-7.09375,-7.5625
191,-0.69384766,0.12005615,-0.6536255,-4.15625,-2.359375,3.6875
192,-0.6940918,0.03289795,-0.7024536,-1.984375,-4.015625,-1.5625
193,-0.86816406,0.0446166999999999,-0.68756104,-3.5625,-2.65625,-0.125
194,-0.6694336,0.097351074,-0.6968384,1.03125,-0.265625,-5.625
195,-0.49804688,-0.07476807,-0.9902954,-4.59375,0.8125,0.625
196,-0.6062012,0.10223389,-0.6177368000000001,8.71875,6.234375,16.703125
197,-0.9633789,-0.010314941,-0.725647,-7.265625,-2.453125,7.125
198,-0.8227539,0.042419434,-0.57598877,-2.640625,1.5,-5.0
199,-0.59887695,0.0902709959999999,-0.5454711999999999,4.640625,6.28125,0.265625
200,-0.78027344,0.12884521,-0.62701416,-9.921875,-9.75,-16.546875
201,-0.579834,0.005554199,-0.8335570999999999,-2.265625,-8.953125,-1.734375
202,-0.87646484,0.028015137,-0.66363525,7.375,8.0,5.3125
203,-0.5576171999999999,0.007751465,-0.86383057,-15.796875,-18.71875,-9.875
204,-0.70092773,0.07879639,-0.7036743000000001,10.359375,12.8125,9.265625
205,-0.7312012,0.0387573239999999,-0.7896118000000001,-6.390625,-5.75,-0.828125
206,-0.4658202999999999,-0.0095825195,-0.91192627,-0.46875,9.796875,2.90625
207,-0.9526367,0.0131225589999999,-0.37872314,19.390625,17.171875,18.890625
208,-0.84594727,-0.0191040039999999,-0.5737915,-16.09375,-8.6875,-13.5625
209,-0.5534668,0.11224365,-0.725647,-14.65625,-2.234375,-8.4375
210,-0.60546875,-0.02545166,-0.6843872,7.59375,9.09375,-3.6875
211,-0.68188477,0.0021362305,-0.6658324999999999,-7.703125,-9.234375,-4.96875
212,-0.83618164,0.06585693,-0.64434814,-5.296875,0.4375,-5.234375
213,-0.74658203,-0.038879395,-0.6865845,-3.9375,-0.65625,-4.734375
214,-0.69140625,0.08416748,-0.73687744,-6.21875,-9.328125,-4.6875
215,-0.7890625,-6.1035156e-05,-0.6314086999999999,-9.59375,5.828125,-2.28125
216,-0.68066406,0.020935059,-0.6231079,-16.765625,6.5,-9.03125
217,-0.69799805,0.018005371,-0.7786255,-13.3125,-3.140625,-2.84375
218,-0.6574707,0.023132324,-0.70318604,1.203125,-1.90625,-0.375
219,-0.7060546999999999,-0.0413208,-0.57769775,-4.59375,1.0,-0.6875
220,-0.80615234,0.018249512,-0.79937744,-2.125,0.203125,0.484375
221,-0.60131836,-0.053771973,-0.6580199999999999,-5.03125,-6.65625,-2.328125
222,-0.73657227,0.02923584,-0.71417236,-4.0,-5.40625,0.125
223,-0.60498047,-0.0178833,-0.72125244,7.359375,-3.578125,0.953125
224,-0.65649414,0.055358887,-0.7202759,16.984375,6.96875,7.234375
225,-0.78393555,0.011413574,-0.6321411,35.375,11.59375,16.34375
226,-0.6604004,-0.050598145,-0.7827759,0.28125,-10.0625,0.46875
227,-0.52197266,-0.0628051759999999,-0.80474854,26.671875,8.90625,14.53125
228,-0.935791,0.13348389,-0.5808715999999999,30.40625,26.953125,26.1875
229,-0.6813965,0.0758667,-0.5393677,-8.75,-8.96875,-7.484375
230,-0.88549805,0.0026245116999999,-0.48931885,6.5,6.828125,4.25
231,-0.72143555,0.08416748,-0.7119751,-21.203125,-14.578125,-6.6875
232,-0.704834,0.055114746,-0.59869385,2.0625,1.15625,-1.4375
233,-0.76000977,0.010681152,-0.737854,-7.984375,-7.53125,-3.546875
234,-0.68359375,0.0348510739999999,-0.66729736,-1.34375,-3.609375,-0.859375
235,-0.69311523,0.035583496,-0.7461548000000001,-1.859375,-1.796875,-0.734375
236,-0.70703125,0.04144287,-0.73150635,-1.75,-1.5625,5.515625
237,-0.6484375,0.0123901369999999,-0.81817627,-3.484375,2.03125,-2.625
238,-0.86694336,0.02142334,-0.47906494,7.609375,-0.03125,13.453125
239,-0.91381836,0.04925537,-0.54888916,-3.984375,5.296875,-5.71875
240,-0.5131836,0.025817871,-0.5671997,2.875,3.765625,-4.203125
241,-0.80810547,0.031188965,-0.62506104,-6.046875,-3.171875,-7.296875
242,-0.77563477,0.0123901369999999,-0.67633057,-8.265625,-12.21875,-8.109375
243,-0.7902832,-0.02130127,-0.6453247,-2.390625,-5.171875,-2.0
244,-0.6538086,0.0138549805,-0.7280884,-13.34375,-14.828125,-12.53125
245,-0.7380371,0.0441284179999999,-0.67144775,-12.953125,-9.625,-4.4375
246,-0.7421875,-0.014465332,-0.74005127,-13.875,-9.265625,-10.84375
247,-0.5505371,0.014831543,-0.69537354,-9.84375,-9.984375,-7.75
248,-0.70703125,0.018981934,-0.7815552,-22.796875,-16.84375,-6.265625
249,-0.67993164,0.07147217,-0.815979,13.921875,10.015625,2.21875
250,-0.6166991999999999,-0.066223145,-0.64019775,-5.15625,-0.171875,1.828125
251,-0.6772461,0.0045776367,-0.71417236,3.734375,0.9375,0.078125
252,-0.6008300999999999,0.0040893555,-0.78375244,-10.375,-10.59375,-1.71875
253,-0.6689453000000001,-0.01373291,-0.755188,9.03125,5.0,6.1875
254,-0.6135254,0.031921387,-0.73687744,10.859375,6.125,2.59375
255,-0.73779297,-0.009338379,-0.710022,26.84375,12.765625,12.46875
256,-0.626709,0.034606934,-0.8674927,17.140625,5.328125,5.78125
257,-0.58740234,-0.04840088,-0.706604,32.203125,16.28125,13.9375
258,-0.8178711,0.12249756,-0.7901001,-0.59375,6.03125,9.1875
259,-0.748291,-0.037902832,-0.38043213,9.015625,7.28125,7.875
260,-0.8088379,0.0111694339999999,-0.5720824999999999,-10.75,-6.6875,-4.734375
261,-0.5637207,0.08270264,-0.69122314,-1.859375,-3.203125,-0.9375
262,-0.87719727,0.02508545,-0.62750244,-1.296875,2.765625,-0.046875
263,-0.6491699000000001,0.04095459,-0.74786377,-8.734375,-7.0,-4.28125
264,-0.74658203,0.007751465,-0.6465454,2.0,4.453125,1.9375
265,-0.7194824000000001,0.02947998,-0.6773070999999999,-1.28125,0.984375,-3.390625
266,-0.69628906,0.035339355,-0.7156372,-1.8125,-5.640625,1.234375
267,-0.6982421999999999,0.04095459,-0.66973877,-2.109375,-6.125,0.046875
268,-0.6940918,0.024353027,-0.7444458,1.984375,-6.3125,3.1875
269,-0.7233887,0.0067749023,-0.8110961999999999,-1.6875,-0.328125,3.75
270,-0.67285156,0.04827881,-0.50372314,20.828125,15.453125,6.484375
271,-0.8425292999999999,-0.010559082,-0.6836548000000001,-10.5,-0.65625,-3.78125
272,-0.5776366999999999,0.03314209,-0.6067505,0.421875,2.015625,-0.640625
273,-0.8249511999999999,0.081970215,-0.6231079,-2.609375,-2.234375,-4.34375
274,-0.717041,0.00091552734,-0.61260986,3.546875,-0.671875,-5.8125
275,-0.7871094,0.007019043,-0.69244385,-6.1875,0.4375,-1.65625
276,-0.69750977,0.027526855,-0.647522,-2.21875,-8.15625,-5.296875
277,-0.7475586,-0.023742676,-0.63775635,-19.015625,-12.328125,-8.5
278,-0.66308594,0.13201904,-0.8362427,-3.875,-3.859375,-4.4375
279,-0.66430664,-0.04083252,-0.5928345,2.90625,-3.75,-0.21875
280,-0.73046875,0.04168701,-0.6868286,-18.171875,-9.890625,-4.546875
281,-0.7006836,0.0048217773,-0.78912354,-2.953125,5.515625,-4.34375
282,-0.642334,0.023620605,-0.66534424,-1.328125,-2.046875,-1.25
283,-0.7548828000000001,0.051696777,-0.73394775,-9.40625,-5.28125,-0.609375
284,-0.7036133000000001,-0.0225219729999999,-0.64971924,6.8125,11.28125,1.671875
285,-0.6196289,-0.01373291,-0.74176025,-13.828125,-14.640625,-5.796875
286,-0.7084961,-0.0134887695,-0.8023070999999999,0.359375,-2.765625,3.75
287,-0.63061523,0.0026245116999999,-0.6951294,7.78125,-1.125,1.21875
288,-0.6772461,0.06341553,-0.77349854,20.8125,16.546875,3.921875
289,-0.69555664,0.0065307617,-0.67315674,35.28125,13.078125,14.453125
290,-0.72558594,0.0006713867,-0.68341064,12.546875,2.609375,5.140625
291,-0.6765137,0.035095215,-0.70098877,21.25,7.203125,7.8125
292,-0.64453125,0.10028076,-0.755188,-8.515625,1.84375,1.34375
293,-0.98828125,0.0079956055,-0.52471924,13.046875,6.9375,11.78125
294,-0.72436523,0.06976318,-0.5877074999999999,-7.03125,-1.078125,-2.84375
295,-0.7609863,0.03363037,-0.48565674,4.0,1.234375,-0.28125
296,-0.74072266,0.06707764,-0.692688,-18.515625,-19.515625,-8.109375
297,-0.6677246,0.019714355,-0.6980590999999999,2.484375,-1.015625,-1.3125
298,-0.6862793,0.019226074,-0.7732544,-0.328125,-3.90625,-0.265625
299,-0.6977539,0.0421752929999999,-0.76885986,-4.296875,-2.78125,2.40625
300,-0.73657227,0.0084838869999999,-0.86260986,-0.140625,6.3125,2.8125
301,-0.6779785,-0.0049438477,-0.40704346,15.734375,10.40625,8.734375
302,-0.8557129000000001,-0.0003051757799999,-0.5772095,-3.265625,-4.5625,-5.46875
303,-0.6086425999999999,0.08660889,-0.57525635,-4.25,-7.125,-2.828125
304,-0.70458984,0.051452637,-0.7974243000000001,-9.609375,-10.25,-4.5
305,-0.66918945,-0.014221191,-0.73883057,0.453125,-5.390625,0.234375
306,-0.76123047,0.059265137,-0.7954711999999999,2.609375,3.453125,5.53125
307,-0.7878418,-0.0244750979999999,-0.83966064,2.734375,9.25,1.203125
308,-0.7998046999999999,0.017028809,-0.37921143,11.328125,14.234375,8.9375
309,-0.5690918,0.046569824,-0.6362915,-13.65625,-10.625,-11.96875
310,-0.77685547,0.0084838869999999,-0.6121215999999999,4.078125,0.921875,-0.28125
311,-0.75561523,0.06121826,-0.60284424,-4.390625,-2.90625,-10.234375
312,-0.8078613,0.03338623,-0.5479126,10.609375,4.09375,-3.4375
313,-0.84521484,0.066101074,-0.70147705,-30.390625,-17.9375,-8.96875
314,-0.65844727,-0.057678223,-0.7695923000000001,-3.34375,-2.6875,-7.03125
315,-0.7727050999999999,0.089782715,-0.6314086999999999,-26.859375,-12.515625,-8.90625
316,-0.75219727,-0.0015258789,-0.8027954,-8.421875,10.671875,-10.890625
317,-0.49780273,-0.0068969727,-0.64556885,-9.609375,-6.609375,-5.171875
318,-0.7895508000000001,0.08343506,-0.7131958,-6.578125,-7.0,1.375
319,-0.6044921999999999,-0.016906738,-0.7385864000000001,4.53125,-3.140625,2.203125
320,-0.7607421999999999,0.05706787,-0.7637329,10.90625,8.5625,6.859375
321,-0.66430664,0.00091552734,-0.60650635,32.515625,11.84375,11.375
322,-0.78027344,0.014587402,-0.7805786,17.34375,-3.90625,11.109375
323,-0.6057129,0.031433105,-0.79400635,42.78125,18.140625,15.15625
324,-0.73095703,-0.014465332,-0.57598877,0.25,9.6875,5.953125
325,-0.87475586,0.10809326,-0.5173949999999999,0.625,-5.515625,4.703125
326,-0.8256836,0.077819824,-0.5586548000000001,-6.890625,-3.1875,-0.5
327,-0.7097168,0.046569824,-0.5249634,-2.546875,-5.21875,-6.46875
328,-0.8239745999999999,0.09490967,-0.6897583,-10.890625,-7.3125,-6.125
329,-0.6320800999999999,0.024108887,-0.7554320999999999,4.546875,-2.28125,2.46875
330,-0.7233887,0.016540527,-0.71099854,-4.421875,-6.609375,-1.171875
331,-0.68774414,0.031433105,-0.76641846,-0.015625,-3.078125,3.984375
332,-0.65112305,-0.046936035,-0.91851807,-9.9375,2.890625,1.796875
333,-0.7817383000000001,0.015808105,-0.4006958,31.59375,18.875,14.34375
334,-0.87280273,0.0680542,-0.58258057,-14.5625,-6.34375,-6.296875
335,-0.6376953000000001,0.049743652,-0.5960083,2.984375,1.46875,-0.234375
336,-0.81030273,0.05267334,-0.6001586999999999,-2.203125,1.8125,-7.078125
337,-0.64160156,0.024841309,-0.6445923000000001,-1.609375,-1.90625,-7.8125
338,-0.8496094000000001,-0.002746582,-0.6795044,-11.84375,-11.921875,1.296875
339,-0.81762695,-0.024230957,-0.6729126,-12.71875,-0.84375,-9.453125
340,-0.59521484,0.09515381,-0.6729126,-8.046875,-7.421875,-5.359375
341,-0.7844238,-0.04083252,-0.63165283,-0.859375,3.96875,-1.046875
342,-0.8408203000000002,0.022155762,-0.6963501,-15.15625,3.0,-6.421875
343,-0.5119629,0.043640137,-0.69732666,-10.75,-8.3125,-7.109375
344,-0.8210449000000001,-0.015686035,-0.5928345,4.40625,6.5625,2.625
345,-0.72387695,0.062438965,-0.7139281999999999,-9.796875,-9.59375,-3.75
346,-0.64868164,0.011657715,-0.7366333,1.8125,-1.09375,-0.953125
347,-0.7114258000000001,0.013366699,-0.67437744,5.046875,0.96875,4.375
348,-0.6850586,0.018737793,-0.6824340999999999,7.3125,1.125,1.953125
349,-0.72143555,0.0067749023,-0.6333618000000001,14.796875,9.96875,5.203125
350,-0.7138671999999999,-0.0005493164,-0.7546997,2.875,-7.109375,0.15625
351,-0.64160156,0.042419434,-0.9019165,13.578125,-5.625,5.4375
352,-0.62109375,-0.11090088,-0.78082275,32.609375,26.8125,18.140625
353,-0.7495116999999999,0.10638428,-0.43243408,19.359375,18.90625,4.9375
354,-0.7067871,0.01751709,-0.5027465999999999,0.625,-6.46875,3.71875
355,-0.9091796999999998,0.06976318,-0.5215454,-1.78125,-2.453125,-1.203125
356,-0.7109375,0.089782715,-0.67022705,-7.296875,-4.875,-5.640625
357,-0.77905273,0.04095459,-0.62945557,5.140625,3.875,3.34375
358,-0.78344727,0.06414795,-0.63116455,-1.359375,-1.390625,-2.59375
359,-0.62890625,-0.008605957,-0.7046509,-4.328125,-4.515625,-3.6875
360,-0.84936523,0.031188965,-0.6716919,0.6875,-3.8125,3.4375
361,-0.6743164,0.047302246,-0.6848755,1.03125,-2.890625,-2.375
362,-0.70336914,0.08123779,-0.68951416,3.171875,-4.65625,3.75
363,-0.6838379,0.0045776367,-0.89727783,-9.3125,-12.515625,-1.9375
364,-0.7351074000000001,0.024108887,-0.5232544,8.6875,15.46875,4.1875
365,-0.85180664,0.042419434,-0.47808838,2.3125,10.140625,0.296875
366,-0.71606445,0.07196045,-0.47686768,-2.40625,-1.25,-6.8125
367,-0.70654297,0.030456543,-0.63604736,-9.171875,-7.078125,-5.59375
368,-0.8010254,0.016052246,-0.7124634,-8.359375,-1.375,-5.078125
369,-0.7302246,0.027038574,-0.65875244,0.671875,-4.765625,-4.3125
370,-0.74902344,0.007507324,-0.5796509,-3.0,-7.046875,-5.421875
371,-0.8701171999999998,0.07733154,-0.723938,-14.109375,-0.40625,-5.96875
372,-0.6281738,0.0026245116999999,-0.60284424,-11.484375,0.015625,-6.90625
373,-0.7697754,0.031921387,-0.6572876,-21.328125,-11.59375,-9.578125
374,-0.7597656,0.032165527,-0.7046509,-11.671875,-1.859375,-5.453125
375,-0.65112305,0.030944824,-0.70025635,-9.3125,0.09375,-5.0625
376,-0.7373046999999999,0.014587402,-0.6987915,-10.6875,-5.84375,-4.03125
377,-0.72021484,-0.010314941,-0.68951416,5.78125,1.09375,2.109375
378,-0.6894531,0.023376465,-0.7107544,-5.484375,-5.765625,-1.828125
379,-0.71533203,0.003112793,-0.67315674,5.03125,-1.953125,4.40625
380,-0.65478516,0.017028809,-0.70684814,8.140625,-2.859375,4.0625
381,-0.70947266,-0.012268066,-0.72003174,26.609375,7.390625,8.703125
382,-0.66503906,0.03704834,-0.8401489,35.375,10.3125,10.765625
383,-0.7727050999999999,0.051208496,-0.68170166,40.953125,21.8125,20.34375
384,-0.74902344,-0.020568848,-0.63946533,7.375,8.34375,2.703125
385,-0.56933594,0.10369873,-0.46588135,5.375,-6.546875,9.921875
386,-0.9753418,0.08734131,-0.4697876,-3.5,-2.046875,3.546875
387,-0.75268555,0.029724121,-0.5459595,-3.328125,0.9375,-9.765625
388,-0.6567383000000001,0.08319092,-0.59820557,-7.140625,-4.578125,0.15625
389,-0.8210449000000001,0.059020996,-0.6421509,5.875,-3.296875,3.921875
390,-0.67626953,-0.007873535,-0.6856079,-3.953125,-2.1875,-3.765625
391,-0.7956543,0.0363159179999999,-0.7029419,-2.546875,-6.203125,1.515625
392,-0.71850586,0.05316162,-0.66729736,-1.796875,-3.625,-0.96875
393,-0.6838379,0.04437256,-0.74957275,-2.046875,-6.25,2.65625
394,-0.67456055,-0.006164551,-0.973938,-5.390625,-6.15625,1.578125
395,-0.9226074,-0.012756348,-0.28082275,18.703125,13.984375,16.0
396,-0.7414550999999999,0.026794434,-0.6296997,-12.609375,-4.375,-12.359375
397,-0.5749512,0.02142334,-0.46173096,2.890625,2.78125,-0.46875
398,-0.88500977,0.105407715,-0.6133423000000001,-1.203125,-2.859375,-6.78125
399,-0.72924805,-0.02154541,-0.65948486,-10.328125,0.921875,-10.171875
400,-0.72265625,0.0131225589999999,-0.69854736,-6.09375,-6.46875,-3.484375
401,-0.7897949000000001,0.03753662,-0.6680298000000001,-15.0,-11.28125,-9.25
402,-0.73950195,0.018005371,-0.6983031999999999,-5.8125,3.65625,-3.21875
403,-0.70751953,0.043151855,-0.6560669,-12.25,-6.359375,-7.71875
404,-0.73339844,0.027770996,-0.63116455,-7.796875,-2.09375,-5.078125
405,-0.80029297,0.0441284179999999,-0.6807251,-3.828125,8.234375,-2.28125
406,-0.7180175999999999,0.022644043,-0.6314086999999999,-5.109375,2.875,-3.421875
407,-0.6755371,0.0421752929999999,-0.69415283,-13.875,-17.171875,-3.90625
408,-0.7766113,0.0018920898,-0.6712036,8.71875,4.75,3.078125
409,-0.71875,-0.0335083,-0.616272,-8.453125,-2.09375,-3.828125
410,-0.68066406,0.0558471679999999,-0.68878174,-9.4375,-10.078125,-4.59375
411,-0.7402344,-0.003479004,-0.76226807,-0.46875,-3.0,0.890625
412,-0.61450195,-0.0029907227,-0.69488525,3.734375,-3.921875,1.4375
413,-0.76049805,0.089782715,-0.75738525,24.0,15.125,5.578125
414,-0.6401366999999999,-0.00982666,-0.73272705,35.21875,4.734375,16.46875
415,-0.77075195,-0.009338379,-0.6831665,35.296875,10.71875,14.84375
416,-0.654541,0.08099365,-0.7349243000000001,4.765625,3.984375,7.296875
417,-0.9880371,0.006286621,-0.43048096,12.484375,1.625,14.671875
418,-0.7788086,0.08050537,-0.5249634,-10.40625,-8.828125,-7.15625
419,-0.7414550999999999,0.0785522459999999,-0.5147095,1.71875,2.5,2.203125
420,-0.7314453000000001,0.07684326,-0.66192627,-1.453125,-4.875,-3.78125
421,-0.8039550999999999,0.001159668,-0.6038208,-1.265625,-1.5625,-0.09375
422,-0.6586914,0.047302246,-0.7803345,-6.859375,-9.75,-3.625
423,-0.7919921999999999,-0.0015258789,-0.64801025,3.25,-1.8125,2.59375
424,-0.70996094,0.07366943,-0.68292236,-3.140625,-3.140625,-1.890625
425,-0.75512695,0.054870605,-0.71173096,0.484375,-4.21875,1.9375
426,-0.71972656,0.05633545,-0.6914673000000001,0.765625,-3.9375,3.265625
427,-0.7546387,0.0348510739999999,-0.7698364000000001,3.46875,0.140625,6.53125
428,-0.6569824000000001,0.06585693,-0.57818604,5.8125,10.984375,-0.140625
429,-0.9645996,0.058288574,-0.5183715999999999,2.96875,13.921875,9.75
430,-0.62646484,0.00970459,-0.5039673,-2.484375,1.9375,-11.765625
431,-0.7141113,0.085876465,-0.65826416,-4.890625,1.125,-1.96875
432,-0.7800293,0.018249512,-0.631897,-4.453125,2.890625,-9.34375
433,-0.81884766,-0.0056762694999999,-0.6135864000000001,2.234375,5.90625,-2.40625
434,-0.7746582,0.031188965,-0.616272,-6.546875,-8.890625,-6.984375
435,-0.7783203000000001,0.073913574,-0.6734009,-12.65625,-4.03125,-6.828125
436,-0.7709961,0.0143432619999999,-0.62701416,-15.09375,-1.640625,-10.359375
437,-0.7285156,0.02142334,-0.6267699999999999,-17.46875,-8.609375,-8.765625
438,-0.7109375,0.08929443,-0.7017211999999999,-7.4375,-0.875,-6.328125
439,-0.71362305,-0.0020141601999999,-0.6580199999999999,-9.21875,-1.046875,-4.203125
440,-0.75878906,0.05218506,-0.66778564,-7.03125,-1.0,-4.203125
441,-0.7507324000000001,-6.1035156e-05,-0.64434814,-5.234375,-1.953125,-1.8125
442,-0.7233887,0.050476074,-0.71661377,-6.640625,-5.203125,-1.890625
443,-0.6994629,0.0026245116999999,-0.6423949999999999,3.84375,-3.1875,1.125
444,-0.76464844,-0.012268066,-0.63482666,-5.96875,-9.921875,-0.265625
445,-0.7060546999999999,-0.0029907227,-0.7034302,-4.921875,-9.671875,-3.90625
446,-0.6843262,0.008239746,-0.6382445999999999,-1.40625,-3.796875,-1.578125
447,-0.7331543,0.058532715,-0.7522583,-4.703125,-10.234375,-1.4375
448,-0.6657715,0.0138549805,-0.7112427,5.4375,-1.265625,4.015625
449,-0.6652832,0.06878662,-0.7749634,29.609375,12.53125,10.6875
450,-0.69189453,0.054870605,-0.61602783,50.40625,23.234375,20.0625
451,-0.7351074000000001,-0.08062744,-0.7625122,5.234375,-8.015625,6.078125
452,-0.63012695,0.0914917,-0.69122314,16.078125,-5.46875,14.875
453,-0.6533203000000001,0.15350342,-0.65631104,3.84375,-4.578125,10.109375
454,-1.0727539,-0.06573486,-0.45587158,12.125,7.96875,11.78125
455,-0.78759766,0.10760498,-0.60235596,-16.078125,-5.328125,-5.484375
456,-0.51708984,0.11444092,-0.6873169,-3.015625,-0.859375,-3.140625
457,-0.93774414,-0.08795166,-0.5911255,2.84375,10.140625,4.6875
458,-0.5859375,0.07611084,-0.71832275,-7.59375,-3.25,-3.09375
459,-0.8027344,-0.012756348,-0.5979614000000001,7.453125,6.328125,3.078125
460,-0.7150879,0.01776123,-0.6445923000000001,-3.4375,-0.078125,-3.21875
461,-0.72924805,0.043151855,-0.6892699999999999,-2.109375,-1.890625,-1.25
462,-0.76049805,0.035583496,-0.64849854,-2.109375,0.21875,-1.59375
463,-0.7717285,0.023132324,-0.6345824999999999,2.046875,0.640625,0.46875
464,-0.6430664,0.051452637,-0.70758057,-2.796875,-5.09375,-1.359375
465,-0.767334,0.015563965,-0.70635986,0.15625,-0.296875,1.578125
466,-0.64404297,0.070007324,-0.82403564,-8.0625,-7.1875,-0.296875
467,-0.8222655999999999,0.009216309,-0.6502074999999999,16.125,13.0625,8.296875
468,-0.7734375,0.09857178,-0.3850708,7.28125,8.46875,5.0
469,-0.81933594,0.04437256,-0.56866455,-5.734375,-1.78125,-5.890625
470,-0.68969727,0.010925293,-0.59747314,3.890625,7.265625,-1.265625
471,-0.7116699000000001,-0.012756348,-0.6436156999999999,-6.15625,-1.96875,-9.9375
472,-0.68969727,0.0363159179999999,-0.63726807,-2.859375,-8.40625,-6.875
473,-0.8901367,0.010192871,-0.5964965999999999,-0.578125,-1.921875,-5.25
474,-0.65185547,0.0014038085999999,-0.6682739000000001,-29.265625,-23.953125,-16.109375
475,-0.8190918,0.07562256,-0.675354,-8.90625,-1.96875,-4.03125
476,-0.7675781,-0.0068969727,-0.62994385,-16.640625,-4.3125,-8.6875
477,-0.5996094,0.070007324,-0.75006104,-12.234375,-16.265625,-5.375
478,-0.79052734,-0.00982666,-0.69317627,1.8125,4.453125,1.3125
479,-0.717041,0.021911621,-0.6358031999999999,-7.078125,-1.765625,-4.96875
480,-0.60424805,0.016052246,-0.7305298000000001,-7.453125,-9.578125,-3.21875
481,-0.78149414,0.012878418,-0.69415283,2.109375,-1.71875,2.90625
482,-0.60375977,0.0006713867,-0.77471924,-8.328125,-13.078125,-3.359375
483,-0.67041016,0.020690918,-0.87628174,25.984375,14.34375,12.203125
484,-0.66967773,0.002380371,-0.6067505,44.265625,27.328125,15.03125
485,-0.78930664,0.041931152,-0.64971924,20.65625,4.203125,15.453125
486,-0.6777344,-0.058410645,-0.6387329,4.328125,-5.28125,3.53125
487,-0.67163086,0.15740967,-0.5569458,0.15625,2.703125,5.9375
488,-0.97558594,0.0119018555,-0.58966064,4.953125,-0.59375,5.390625
489,-0.6196289,0.0692748999999999,-0.6345824999999999,-4.90625,-1.046875,-1.9375
490,-0.84399414,0.04949951,-0.5281372,3.609375,2.796875,0.359375
491,-0.67089844,0.0060424805,-0.71539307,-9.359375,-7.59375,-6.359375
492,-0.748291,0.047546387,-0.70684814,-0.8125,0.046875,0.984375
493,-0.7426758000000001,0.0072631836,-0.65509033,-1.875,-0.984375,-1.234375
494,-0.73583984,0.030700684,-0.6465454,0.09375,-0.34375,1.46875
495,-0.73046875,0.017028809,-0.68707275,0.953125,-3.453125,0.84375
496,-0.70996094,0.018981934,-0.6831665,1.28125,-3.140625,2.703125
497,-0.73291016,0.029968262,-0.6802368000000001,2.703125,-0.8125,2.59375
498,-0.71362305,0.011413574,-0.71832275,-3.78125,4.40625,-0.25
499,-0.91064453,0.06390381,-0.45806885,15.78125,15.796875,10.96875
500,-0.72314453,0.020690918,-0.6189574999999999,-3.1875,-3.625,-5.671875
501,-0.7429199000000001,0.016784668,-0.5923461999999999,1.328125,2.671875,-2.609375
502,-0.7644043,0.0368041999999999,-0.631897,-7.546875,0.109375,-7.6875
503,-0.734375,-0.0020141601999999,-0.64556885,-3.359375,1.203125,-6.734375
504,-0.7519531,-0.014221191,-0.5606079,-4.390625,-13.84375,-5.265625
505,-0.8249511999999999,0.11102295,-0.79644775,-19.3125,-11.390625,-13.53125
506,-0.70996094,-0.051574707,-0.5647583,10.828125,13.5,-0.484375
507,-0.78515625,0.03704834,-0.57281494,-27.75,-15.5625,-10.53125
508,-0.685791,0.1461792,-0.8845825,-9.171875,-10.984375,-7.0625
509,-0.6879883000000001,-0.0628051759999999,-0.58966064,4.75,3.640625,3.171875
510,-0.8017578000000001,0.066345215,-0.71343994,-13.328125,-4.390625,-4.953125
511,-0.6245116999999999,-0.008361816,-0.678772,-0.015625,1.9375,-0.25
512,-0.7524414,0.027282715,-0.72320557,-8.96875,-6.375,-0.546875
513,-0.6777344,-0.012268066,-0.7295531999999999,2.265625,-4.09375,1.671875
514,-0.70166016,0.008728027,-0.7341919,21.1875,12.84375,4.25
515,-0.63720703,0.06439209,-0.79229736,28.515625,11.3125,10.09375
516,-0.7897949000000001,-0.0256957999999999,-0.6572876,40.546875,13.328125,21.484375
517,-0.69384766,-0.07623291,-0.78912354,4.34375,7.96875,2.359375
518,-0.6999512,0.09613037,-0.378479,9.71875,1.03125,9.953125
519,-0.81591797,0.041931152,-0.56451416,-1.65625,0.421875,-0.71875
520,-0.75634766,0.034606934,-0.5154419,2.953125,2.671875,-0.125
521,-0.763916,0.10760498,-0.663147,-10.953125,-10.40625,-5.65625
522,-0.74902344,0.04876709,-0.67852783,2.703125,2.484375,1.421875
523,-0.7050781,0.007507324,-0.71099854,-0.515625,-1.28125,-0.1875
524,-0.7392578000000001,0.027038574,-0.6892699999999999,0.046875,-2.875,4.078125
525,-0.76708984,0.042663574,-0.6218872,5.09375,2.90625,3.1875
526,-0.68310547,0.024841309,-0.81256104,-6.078125,-9.828125,1.5625
527,-0.76123047,0.05267334,-0.68634033,15.734375,7.015625,13.734375
528,-0.9460449,-0.035705566,-0.35064697,3.390625,10.96875,3.21875
529,-0.6953125,0.09075928,-0.57940674,-7.796875,7.328125,-11.546875
530,-0.69750977,0.026794434,-0.538147,-3.921875,5.78125,-3.375
531,-0.75097656,0.050476074,-0.6741333,-0.578125,2.6875,-5.015625
532,-0.81689453,0.03289795,-0.5840454,4.390625,1.9375,-1.921875
533,-0.87475586,0.005065918,-0.6062622,-7.9375,-2.328125,-4.53125
534,-0.84155273,0.054626465,-0.6235961999999999,-8.9375,9.0,-6.453125
535,-0.779541,0.0402221679999999,-0.6289673000000001,-1.453125,5.515625,-7.3125
536,-0.70581055,0.0836792,-0.5960083,-18.109375,-12.0625,-8.375
537,-0.8654785,0.026306152,-0.5593872,-1.421875,13.09375,-3.0
538,-0.7871094,-0.042053223,-0.5322876,-25.375,-6.21875,-9.203125
539,-0.78564453,0.1329956,-0.7041626,-29.171875,-22.171875,-9.859375
540,-0.69140625,-0.034729004,-0.66729736,3.296875,-0.15625,-2.328125
541,-0.7807616999999999,0.027526855,-0.5654906999999999,-10.46875,-8.828125,-2.953125
542,-0.7998046999999999,0.0368041999999999,-0.6799927,-6.5,-6.578125,-3.46875
543,-0.6345215,0.0558471679999999,-0.77716064,3.09375,-8.296875,2.21875
544,-0.80859375,-0.0151977539999999,-0.7312622,29.625,17.234375,9.046875
545,-0.6574707,0.08538818,-0.7608031999999999,47.078125,22.71875,16.84375
546,-0.85009766,-0.04425049,-0.61920166,30.25,2.375,26.75
547,-0.85546875,0.0014038085999999,-0.522522,10.765625,0.109375,4.671875
548,-0.65527344,0.053649902,-0.40948486,2.953125,-8.171875,11.375
549,-0.98779297,0.0602416999999999,-0.5105590999999999,1.578125,-3.1875,1.96875
550,-0.74609375,-0.0112915039999999,-0.44781494,-6.75,-5.34375,-8.359375
551,-0.7409668,0.20281982,-0.68218994,-1.265625,-5.53125,1.234375
552,-0.8544921999999998,0.008239746,-0.60357666,-4.5625,-8.046875,-3.8125
553,-0.76342773,0.047790527,-0.6248169,1.671875,2.03125,0.765625
554,-0.74560547,0.04876709,-0.6746215999999999,-8.609375,-10.84375,-1.921875
555,-0.7685546999999999,-0.0003051757799999,-0.6848755,2.484375,-0.125,3.09375
556,-0.6887207,0.035339355,-0.67022705,2.84375,-3.8125,3.6875
557,-0.68603516,0.002380371,-0.86602783,-0.484375,-7.046875,6.671875
558,-0.8833008,0.08319092,-0.48443604,27.15625,16.75,12.53125
559,-0.9597168,0.05706787,-0.3477172999999999,-2.640625,4.578125,-1.671875
560,-0.65405273,-0.0032348633,-0.52911377,-10.59375,2.78125,-8.171875
561,-0.6965332,0.08758545,-0.6218872,-4.296875,-3.09375,-5.78125
562,-0.82788086,-0.0210571289999999,-0.60406494,-3.578125,-0.140625,-5.890625
563,-0.8293457000000001,0.02557373,-0.6123656999999999,-5.5,2.03125,-5.09375
564,-0.8071289,0.061950684,-0.6448364000000001,-0.796875,0.90625,-4.46875
565,-0.7819824000000001,0.0065307617,-0.5310669,-1.265625,1.609375,-3.6875
566,-0.82006836,0.011657715,-0.597229,-17.453125,-2.5625,-9.203125
567,-0.7434082,0.070251465,-0.6939086999999999,-24.140625,-15.21875,-9.96875
568,-0.7751465,0.014587402,-0.58306885,3.140625,4.640625,-2.140625
569,-0.79956055,0.06707764,-0.6514281999999999,-23.5625,-9.546875,-10.84375
570,-0.71850586,0.039978027,-0.6670531999999999,-5.125,-3.203125,-3.4375
571,-0.7438965,-0.0012817383,-0.66363525,-11.453125,-2.84375,-1.765625
572,-0.7397461,0.0578002929999999,-0.67071533,-3.515625,-5.84375,-2.0625
573,-0.71728516,-0.061340332,-0.6555786,7.3125,0.125,3.734375
574,-0.6970215,0.03265381,-0.80474854,-0.765625,-12.90625,4.796875
575,-0.67163086,-0.01373291,-0.64141846,29.65625,8.796875,11.6875
576,-0.7336425999999999,0.11444092,-0.7866820999999999,33.03125,-2.578125,19.015625
577,-0.90063477,0.03338623,-0.6096802,45.046875,23.0,28.109375
578,-0.7270508000000001,-0.0303344729999999,-0.42315674,0.125,3.78125,-0.484375
579,-0.8811035,0.07293701,-0.5359497,-2.125,-3.234375,7.65625
580,-0.83740234,0.014099121,-0.52008057,-1.53125,-0.25,-7.046875
581,-0.7133789,0.054138184,-0.5901489000000001,-8.21875,-3.609375,-5.25
582,-0.78759766,0.04949951,-0.6038208,-6.34375,-4.890625,-5.953125
583,-0.6281738,-0.023986816,-0.77301025,-12.15625,-13.96875,-3.9375
584,-0.79003906,0.07879639,-0.6819458,8.90625,3.40625,6.296875
585,-0.72314453,0.023132324,-0.70513916,2.328125,-0.625,1.0625
586,-0.7680664,0.05731201,-0.7752074999999999,9.125,-1.0,9.015625
587,-0.828125,0.12005615,-0.32843018,12.03125,19.234375,8.15625
588,-0.96362305,-0.054748535,-0.50323486,5.5,2.984375,-0.8125
589,-0.5437012,0.04876709,-0.5366820999999999,-16.8125,-6.84375,-11.34375
590,-0.7963866999999999,0.06781006,-0.6577759,-3.28125,-0.078125,-3.296875
591,-0.76220703,0.04095459,-0.6428833,-3.390625,0.328125,-7.0625
592,-0.7565918,0.0033569335999999,-0.64727783,0.25,-2.5625,-0.203125
593,-0.83984375,0.0143432619999999,-0.5798949999999999,3.59375,-1.125,-0.578125
594,-0.7910156,0.020690918,-0.6289673000000001,-10.296875,-0.359375,-8.125
595,-0.68603516,0.03338623,-0.6460570999999999,-11.328125,-10.046875,-5.84375
596,-0.8803711,0.05682373,-0.6157836999999999,-12.015625,-11.296875,-5.0
597,-0.7648925999999999,-0.0132446289999999,-0.7190552,-17.96875,-8.90625,-7.4375
598,-0.6125488,0.055114746,-0.6777954,-19.484375,-18.390625,-7.28125
599,-0.82250977,0.059265137,-0.6646118000000001,2.546875,3.71875,-1.984375
600,-0.7126465,-0.0178833,-0.6304320999999999,-11.90625,-2.203125,-2.234375
601,-0.69799805,0.059265137,-0.7258911,-4.4375,-7.453125,-1.71875
602,-0.7175293,-0.050598145,-0.692688,0.265625,2.390625,0.890625
603,-0.70214844,0.015808105,-0.69903564,-2.578125,-5.09375,-1.34375
604,-0.6984863,0.011413574,-0.6790161,10.875,3.75,3.65625
605,-0.68066406,0.01361084,-0.76885986,14.546875,5.40625,5.546875
606,-0.6689453000000001,0.022155762,-0.68634033,50.515625,29.28125,17.109375
607,-0.7783203000000001,-0.028137207,-0.79693604,11.515625,10.96875,9.828125
608,-0.69140625,0.13446045,-0.364563,27.203125,24.015625,12.109375
609,-1.0112305,0.004333496,-0.42364502,-4.484375,-1.546875,3.6875
610,-0.71728516,0.09881592,-0.5689086999999999,-13.828125,-11.46875,-7.171875
611,-0.82592773,0.06878662,-0.6057739000000001,-3.34375,-3.625,-1.734375
612,-0.80566406,0.0021362305,-0.6248169,-2.84375,-2.03125,-3.03125
613,-0.60375977,0.08074951,-0.7383423000000001,-8.59375,-11.59375,0.96875
614,-0.8173828000000001,-0.010559082,-0.7085570999999999,5.375,-2.234375,2.984375
615,-0.6203613,0.05218506,-0.9192505,-14.828125,-11.921875,0.671875
616,-0.84155273,-0.0335083,-0.48858643,36.75,25.984375,15.890625
617,-0.8364258,0.09466553,-0.4710082999999999,0.359375,-7.234375,3.9375
618,-0.86279297,-0.105529785,-0.34014893,8.71875,8.1875,-4.5
619,-0.6660156,0.15130615,-0.66778564,-20.203125,-12.34375,-9.234375
620,-0.7507324000000001,0.035827637,-0.6069945999999999,7.0625,3.453125,-0.140625
621,-0.88012695,-0.054748535,-0.5857544,-11.796875,-7.890625,-8.609375
622,-0.78466797,0.046813965,-0.6538695999999999,-10.609375,0.171875,-5.140625
623,-0.6948241999999999,0.07366943,-0.60357666,-9.65625,-10.0,-10.46875
624,-0.7687988,0.001159668,-0.64971924,-13.609375,-12.03125,-6.390625
625,-0.86376953,0.01776123,-0.7317505,-11.125,-0.65625,-5.953125
626,-0.6435546999999999,0.042663574,-0.6760864000000001,-3.03125,1.40625,-4.96875
627,-0.76831055,0.0460815429999999,-0.60479736,-6.875,-2.109375,-3.765625
628,-0.75561523,0.020690918,-0.67193604,-3.828125,-0.46875,-3.96875
629,-0.6789550999999999,-0.0051879883,-0.67559814,-8.6875,-2.140625,-3.546875
630,-0.7529296999999999,0.0519409179999999,-0.6194458,5.390625,3.671875,0.171875
631,-0.7036133000000001,0.02508545,-0.75787354,-8.796875,-7.59375,-3.328125
632,-0.7446289,0.019226074,-0.64727783,8.40625,1.9375,5.875
633,-0.6801758000000001,0.04144287,-0.6343384,6.734375,0.78125,4.453125
634,-0.7780762,-0.014221191,-0.68878174,14.28125,2.796875,10.21875
635,-0.7141113,-0.014221191,-0.7859497,14.625,-0.375,3.71875
636,-0.65844727,0.09466553,-0.7246704,22.5,8.75,10.828125
637,-0.83740234,0.008728027,-0.5232544,19.921875,17.609375,9.140625
638,-0.8708495999999999,0.0014038085999999,-0.5510864000000001,11.46875,4.796875,8.625
639,-0.81469727,0.02142334,-0.46002197,0.890625,5.3125,-0.09375
640,-0.7434082,0.03729248,-0.5286255,0.734375,3.4375,-2.796875
641,-0.7763671999999999,0.0524291999999999,-0.5654906999999999,-11.390625,-0.21875,-5.734375
642,-0.7714844,0.04852295,-0.62042236,-0.421875,-7.484375,-4.0
643,-0.76049805,0.0538940429999999,-0.7769165,-16.296875,-20.0,-2.375
644,-0.7927246,0.019470215,-0.6567993000000001,1.0625,-2.6875,1.015625
645,-0.68725586,0.04534912,-0.7131958,8.53125,-1.6875,6.0
646,-0.8171387,-0.029846191,-0.79229736,6.5,8.34375,12.625
647,-0.7805175999999999,0.024108887,-0.36065674,22.515625,18.359375,2.640625
648,-0.88256836,0.059020996,-0.45513916,-2.09375,3.21875,-1.203125
649,-0.65625,0.08465576,-0.538147,-4.84375,-4.09375,-3.171875
650,-0.8935546999999998,0.059265137,-0.5786743000000001,-5.21875,-1.9375,-6.25
651,-0.8156738,0.012145996,-0.5484009,-15.125,-2.578125,-7.359375
652,-0.7595215,0.027038574,-0.6524048000000001,-3.625,-3.265625,-4.578125
653,-0.748291,0.014831543,-0.54107666,-14.390625,-13.65625,-7.96875
654,-0.8120116999999999,0.0004272461,-0.644104,-25.4375,-13.15625,-8.375
655,-0.71655273,0.027038574,-0.74102783,-27.78125,-16.421875,-19.0625
656,-0.77441406,0.004333496,-0.6646118000000001,-3.28125,-3.109375,-2.484375
657,-0.83691406,0.046813965,-0.6055298000000001,0.171875,3.4375,-2.609375
658,-0.65771484,0.05682373,-0.7136840999999999,-13.984375,-15.0625,-8.375
659,-0.71118164,0.039245605,-0.68292236,-1.890625,-5.078125,2.046875
660,-0.6970215,-0.018127441,-0.66851807,6.0625,3.109375,1.71875
661,-0.6254883000000001,0.077819824,-0.78912354,1.78125,-3.96875,5.234375
662,-0.8088379,-0.00592041,-0.65826416,51.890625,21.828125,19.53125
663,-0.67089844,0.0211792,-0.8442993000000001,22.75,-8.234375,12.953125
664,-0.6911621,0.0016479492,-0.645813,48.8125,33.375,22.84375
665,-0.7705078000000001,0.031188965,-0.41534424,-10.078125,-4.203125,-2.328125
666,-0.845459,0.12298584,-0.4812622,10.109375,7.359375,11.53125
667,-0.8779296999999998,0.030700684,-0.44732666,-1.359375,0.890625,-5.9375
668,-0.63793945,0.020446777,-0.6265259,-15.59375,-12.3125,-8.46875
669,-0.9025879,0.074157715,-0.63409424,-5.5,-4.53125,-1.078125
670,-0.5595703000000001,0.06439209,-0.72320557,-8.75,-16.125,-6.5
671,-0.8425292999999999,0.0707397459999999,-0.7481079,6.390625,-3.171875,8.875
672,-0.6772461,0.016784668,-0.7463989000000001,4.65625,-1.53125,0.84375
673,-0.7451171999999999,0.06097412,-0.7805786,10.265625,8.90625,12.375
674,-0.85180664,-0.0051879883,-0.3201294,0.640625,8.0625,1.046875
675,-0.74731445,0.0021362305,-0.56134033,0.28125,4.953125,-2.203125
676,-0.67626953,0.09222412,-0.5923461999999999,1.0625,3.28125,-2.5625
677,-0.8483886999999999,-0.015686035,-0.5132445999999999,-7.171875,0.328125,-8.390625
678,-0.79003906,0.0021362305,-0.60406494,-11.484375,-1.109375,-10.1875
679,-0.8334961,0.08660889,-0.69000244,-21.5625,-13.375,-8.125
680,-0.7661133000000001,0.03778076,-0.62701416,-0.75,5.03125,-4.03125
681,-0.8066406,-0.058410645,-0.60650635,-20.140625,-7.890625,-9.828125
682,-0.68896484,0.08465576,-0.6865845,-29.609375,-17.546875,-15.484375
683,-0.7001953000000001,0.04071045,-0.6729126,2.015625,6.953125,-2.25
684,-0.7402344,0.042663574,-0.6201781999999999,-8.96875,-4.546875,-4.40625
685,-0.7595215,0.061462402,-0.6460570999999999,-5.53125,-3.765625,-2.109375
686,-0.67407227,0.055114746,-0.7715454,-0.140625,-7.3125,0.828125
687,-0.6882324000000001,0.04095459,-0.69122314,10.96875,3.609375,9.5
688,-0.76660156,0.0018920898,-0.7918090999999999,41.546875,4.1875,16.09375
689,-0.68774414,0.1515503,-0.72662354,42.5,6.703125,21.46875
690,-0.9650879,-0.06866455,-0.630188,35.515625,25.265625,21.625
691,-0.59814453,0.08343506,-0.40289307,-7.8125,-10.265625,3.296875
692,-0.96606445,0.11395264,-0.40045166,12.625,13.828125,5.515625
693,-0.8203125,-0.0029907227,-0.50616455,-16.453125,-6.484375,-9.609375
694,-0.68530273,0.12542725,-0.63287354,-4.5,0.09375,-3.828125
695,-0.80200195,-0.0132446289999999,-0.61260986,-11.375,-16.640625,-6.578125
696,-0.7001953000000001,0.14398193,-0.7774048000000001,-2.8125,-9.03125,1.78125
697,-0.779541,0.046813965,-0.6987915,-0.59375,-4.34375,1.203125
698,-0.7536621,0.054626465,-0.6992798000000001,7.078125,4.25,7.734375
699,-0.7800293,0.13250732,-0.58673096,7.34375,14.421875,5.0
700,-0.93530273,-0.018371582,-0.4006958,1.921875,5.40625,4.046875
701,-0.6352539,0.07904053,-0.5720824999999999,-4.578125,-4.1875,-6.703125
702,-0.8671875,0.022888184,-0.56451416,-6.296875,-0.421875,-4.53125
703,-0.8059082,0.05706787,-0.5894165,-7.671875,0.3125,-7.015625
704,-0.7438965,-0.003479004,-0.61016846,-2.0,-4.34375,-7.5
705,-0.79711914,0.08026123,-0.65704346,-7.71875,-8.5,-4.171875
706,-0.8261719000000001,0.02947998,-0.57696533,-2.390625,6.375,-5.25
707,-0.732666,0.019958496,-0.63116455,-21.375,-9.5625,-10.828125
708,-0.748291,0.047546387,-0.6355590999999999,-19.890625,-10.078125,-8.03125
709,-0.8215332000000001,0.08441162,-0.677063,-5.375,2.3125,-5.453125
710,-0.73046875,0.03656006,-0.57403564,-3.671875,5.484375,-2.0625
711,-0.7585449000000001,0.029968262,-0.6514281999999999,-13.5,-3.9375,-4.859375
712,-0.72143555,0.05633545,-0.7630005,-6.3125,-16.953125,-2.578125
713,-0.69091797,0.02142334,-0.7608031999999999,10.734375,-4.703125,11.8125
714,-0.6418457,0.028259277,-0.8921509,24.53125,1.9375,9.28125
715,-0.576416,-0.020080566,-0.65753174,62.15625,17.21875,34.375
716,-1.0498047,-0.042541504,-0.5339965999999999,18.453125,-0.171875,20.015625
717,-0.59643555,0.0770873999999999,-0.35284424,-8.53125,-4.375,1.671875
718,-1.0537108999999998,0.007751465,-0.46124268,8.046875,12.953125,5.984375
719,-0.7507324000000001,0.029968262,-0.60894775,-30.546875,-16.71875,-18.265625
720,-0.78027344,0.117126465,-0.5889281999999999,3.015625,12.65625,-0.75
721,-0.701416,-0.0032348633,-0.70440674,-11.3125,-7.5,-11.6875
722,-0.7246094,0.025817871,-0.6807251,8.484375,-0.296875,7.328125
723,-0.77563477,0.030456543,-0.6848755,-0.703125,-1.03125,-0.046875
724,-0.7680664,0.016540527,-0.66070557,5.015625,2.125,6.25
725,-0.6940918,0.058288574,-0.5977173000000001,3.0625,4.84375,4.640625
726,-0.9375,-0.0081176759999999,-0.41363525,9.453125,12.328125,1.296875
727,-0.670166,0.04168701,-0.60650635,-15.578125,-9.921875,-8.5625
728,-0.80029297,0.047546387,-0.5901489000000001,5.984375,8.5,1.046875
729,-0.7763671999999999,0.010925293,-0.57647705,-10.546875,-4.59375,-11.640625
730,-0.72265625,0.0131225589999999,-0.57647705,-5.375,-13.015625,-5.140625
731,-0.9758301,0.03338623,-0.64434814,-3.09375,-6.34375,-0.09375
732,-0.7475586,-0.027160645,-0.5581665,-3.421875,3.3125,-7.921875
733,-0.7199707,0.0387573239999999,-0.6355590999999999,-18.265625,-8.515625,-8.078125
734,-0.7849121,0.02947998,-0.63165283,-13.78125,-8.265625,-9.328125
735,-0.782959,-0.012756348,-0.6399536,-9.5,-3.375,-2.953125
736,-0.7680664,0.09539795,-0.7402954,-8.234375,-8.8125,-4.6875
737,-0.6916504,-0.03692627,-0.66192627,-0.15625,-0.828125,-1.1875
738,-0.7297363,-0.012756348,-0.68218994,-4.390625,-6.3125,1.703125
739,-0.67700195,0.0538940429999999,-0.7036743000000001,5.703125,-6.09375,1.921875
740,-0.70092773,0.006286621,-0.68414307,15.109375,8.375,5.140625
741,-0.689209,0.07757568,-0.83966064,39.734375,6.953125,18.4375
742,-0.8300780999999999,-0.0745239259999999,-0.57403564,39.46875,15.875,20.765625
743,-0.6870116999999999,-0.14312744,-0.6411743000000001,4.578125,-15.859375,5.625
744,-0.61987305,0.22259521,-0.5237427,-5.5,-11.09375,6.59375
745,-1.0080566,0.027282715,-0.39678955,12.1875,15.75,2.4375
746,-0.7158203000000001,0.023620605,-0.58673096,-21.640625,-10.234375,-15.765625
747,-0.67993164,0.07684326,-0.69732666,-0.78125,-0.46875,-2.15625
748,-0.8210449000000001,-0.02130127,-0.6482544,-0.46875,-7.25,-0.921875
749,-0.671875,0.090026855,-0.753479,-4.5625,-2.78125,0.59375
750,-0.78222656,-0.0012817383,-0.68463135,5.0,2.640625,3.984375
751,-0.7011719,0.054626465,-0.74053955,-5.0625,-2.703125,2.421875
752,-0.7397461,0.005065918,-0.49102783,11.140625,11.453125,-0.171875
753,-0.83862305,-0.0081176759999999,-0.53912354,-0.875,4.640625,1.90625
754,-0.72631836,0.07196045,-0.62091064,-2.859375,-6.40625,-3.15625
755,-0.78271484,-0.036193848,-0.612854,-1.203125,-3.734375,-4.46875
756,-0.6569824000000001,0.06561279,-0.75860596,-7.921875,-8.03125,-3.84375
757,-0.79907227,0.019958496,-0.675354,7.234375,2.21875,5.953125
758,-0.7089844,-0.0171508789999999,-0.79351807,-5.71875,3.15625,1.546875
759,-0.8569336,0.09613037,-0.44561768,38.046875,36.609375,13.40625
