sample_no,accel_x,accel_y,accel_z,gyro_x,gyro_y,gyro_z
0,0.7788086,-0.002746582,0.6930542,-2.6875,1.3125,0.71875
1,0.78393555,0.0016479492,0.6845093,-1.6875,0.890625,0.9375
2,0.7844238,-0.0025024414,0.6815796,-2.4375,-0.28125,1.125
3,0.7807617,-0.0010375977,0.6847534,-2.171875,-1.453125,1.15625
4,0.78100586,0.008483887,0.6852417,-1.734375,-1.3125,1.21875
5,0.7800293,0.013122559,0.68499756,-0.953125,-1.125,1.546875
6,0.77783203,0.006286621,0.6762085,-0.546875,-1.8125,1.53125
7,0.77685547,0.010437012,0.6881714,-0.734375,-1.234375,1.28125
8,0.779541,0.019958496,0.69696045,-0.875,0.515625,0.90625
9,0.7819824,0.0099487305,0.6954956,0.828125,-0.1875,1.421875
10,0.76904297,0.018981934,0.68182373,0.875,-0.515625,1.609375
11,0.7717285,0.026306152,0.69940186,4.59375,-1.953125,1.609375
12,0.74487305,0.0524292,0.7304077,13.65625,-4.09375,2.03125
13,0.7561035,-0.010803223,0.7067261,25.421875,-11.78125,3.109375
14,0.7714844,-0.0134887695,0.6659546,20.078125,-14.25,-0.96875
15,0.74609375,-0.03692627,0.6884155,7.625,-12.375,-2.78125
16,0.7253418,-0.113586426,0.69451904,-4.375,-0.171875,-1.65625
17,0.76586914,-0.061828613,0.74139404,-1.53125,3.109375,-1.9375
18,0.7844238,-0.042297363,0.7453003,-2.625,1.03125,-0.8125
19,0.78100586,-0.047912598,0.78704834,-0.328125,-4.46875,-0.265625
20,0.72802734,-0.04107666,0.72283936,-2.53125,-3.375,0.625
21,0.7324219,-0.031555176,0.729187,0.921875,-0.203125,1.1875
22,0.7253418,-0.038879395,0.7211304,0.671875,0.84375,1.328125
23,0.7355957,-0.035217285,0.7509155,0.265625,1.0,1.0
24,0.7216797,-0.031311035,0.758728,0.40625,0.0625,1.265625
25,0.7458496,-0.024230957,0.69085693,-5.328125,-0.96875,3.890625
26,0.7150879,-0.020812988,0.67401123,-2.84375,9.28125,2.640625
27,0.74780273,-0.01373291,0.7262573,2.046875,5.625,1.953125
28,0.7636719,-0.047912598,0.73480225,3.0625,0.953125,0.03125
29,0.77319336,-0.07550049,0.71258545,6.203125,-1.6875,0.0625
30,0.7585449,-0.05255127,0.6972046,3.90625,-0.90625,0.078125
31,0.7858887,-0.059387207,0.7067261,-0.265625,1.578125,0.078125
32,0.76831055,-0.042541504,0.72528076,1.625,-1.3125,0.640625
33,0.7651367,-0.046936035,0.69525146,-0.6875,-5.5,0.46875
34,0.7636719,-0.06036377,0.73651123,0.765625,-6.40625,-0.265625
35,0.7307129,-0.04522705,0.7506714,0.390625,-5.21875,0.734375
36,0.71313477,-0.039611816,0.7453003,0.578125,-3.328125,1.21875
37,0.7302246,-0.020080566,0.76068115,0.6875,-2.125,1.40625
38,0.7355957,-0.026184082,0.7584839,1.046875,-1.734375,1.5625
39,0.71850586,-0.02911377,0.75213623,1.703125,-2.390625,1.65625
40,0.7038574,-0.05621338,0.7328491,-0.84375,-3.625,2.984375
41,0.7224121,-0.04815674,0.76678467,0.046875,0.765625,2.109375
42,0.70703125,-0.04473877,0.7809448,1.9375,6.84375,3.03125
43,0.73535156,-0.019348145,0.75213623,2.046875,8.90625,2.203125
44,0.7504883,-0.034973145,0.7382202,0.671875,9.15625,1.125
45,0.77441406,-0.027893066,0.72210693,-0.734375,7.484375,0.28125
46,0.7409668,-0.047180176,0.73187256,-1.75,7.90625,1.0
47,0.75390625,-0.045959473,0.72528076,0.25,9.703125,0.421875
48,0.8059082,-0.022521973,0.6742554,-2.1875,8.015625,-0.65625
49,0.8095703,-0.017150879,0.67059326,-3.875,8.765625,-1.796875
50,0.78930664,-0.047424316,0.66156006,-4.03125,7.671875,-2.203125
51,0.8010254,-0.026672363,0.6622925,-4.015625,6.78125,-1.75
52,0.8120117,-0.0335083,0.63812256,-5.421875,5.734375,-2.015625
53,0.8203125,-0.031555176,0.638855,-4.9375,4.28125,-1.8125
54,0.8195801,-0.016418457,0.6408081,-5.390625,3.3125,-1.6875
55,0.8190918,-0.027160645,0.63275146,-3.390625,3.53125,-1.640625
56,0.8071289,-0.027160645,0.6342163,-1.59375,3.28125,-1.84375
57,0.82421875,-0.014953613,0.61224365,-0.515625,1.53125,-1.125
58,0.7668457,-0.033996582,0.6210327,2.3125,-2.609375,0.828125
59,0.8129883,-0.04547119,0.6378784,5.546875,-5.96875,1.5625
60,0.8173828,-0.043762207,0.6559448,3.421875,-5.984375,1.796875
61,0.8547363,-0.030334473,0.62005615,-1.46875,-5.421875,2.125
62,0.81469727,-0.047180176,0.6203003,-2.734375,-3.515625,3.125
63,0.81396484,-0.007873535,0.68963623,-4.578125,-7.90625,4.828125
64,0.79345703,-0.06500244,0.604187,-4.203125,3.4375,7.21875
65,0.85375977,0.02142334,0.6588745,-3.796875,0.53125,4.90625
66,0.7687988,-0.01739502,0.6149292,-3.734375,1.140625,3.359375
67,0.8083496,-0.011291504,0.66448975,0.484375,4.015625,1.5625
68,0.82592773,0.0045776367,0.6737671,4.0625,2.953125,1.421875
69,0.7919922,-0.009338379,0.63983154,0.984375,-3.5625,0.953125
70,0.8173828,0.0060424805,0.651062,2.921875,-0.421875,1.546875
71,0.8161621,0.018493652,0.67059326,3.515625,-2.21875,2.609375
72,0.8095703,0.0065307617,0.6610718,0.21875,-7.859375,3.9375
73,0.8078613,0.014831543,0.5973511,-5.1875,1.09375,3.390625
74,0.8041992,0.019958496,0.6881714,-0.703125,1.078125,5.640625
75,0.7770996,0.024597168,0.68133545,0.6875,0.203125,3.890625
76,0.7937012,-0.0049438477,0.66571045,3.265625,2.65625,3.671875
77,0.8071289,-0.0051879883,0.7145386,4.734375,-1.328125,1.875
78,0.782959,0.008728027,0.6415405,1.484375,-3.15625,0.03125
79,0.8093262,0.004333496,0.6605835,0.71875,-0.421875,0.796875
80,0.7746582,0.014099121,0.6234741,-0.734375,-0.875,0.34375
81,0.7956543,0.016540527,0.67303467,2.375,3.734375,0.1875
82,0.8034668,0.026306152,0.6713257,2.171875,0.234375,-0.984375
83,0.75805664,0.018493652,0.6835327,1.90625,0.625,-0.234375
84,0.83862305,0.00091552734,0.6635132,2.046875,3.515625,-0.625
85,0.79956055,0.02947998,0.61151123,3.359375,5.671875,2.90625
86,0.7963867,-0.002746582,0.6207886,1.421875,9.84375,1.984375
87,0.8190918,-0.0064086914,0.65008545,5.453125,7.890625,1.078125
88,0.80566406,-0.0037231445,0.63275146,4.734375,5.5625,-0.90625
89,0.82299805,-0.010070801,0.6119995,7.875,0.859375,-1.96875
90,0.81396484,-0.022033691,0.59417725,6.640625,-2.609375,-4.109375
91,0.85180664,-0.0256958,0.6298218,10.015625,-3.59375,-2.28125
92,0.84228516,-0.05328369,0.6178589,9.171875,-2.828125,-1.0625
93,0.8366699,-0.06329346,0.63323975,5.890625,-4.625,-0.828125
94,0.83984375,-0.061584473,0.6259155,1.421875,-5.1875,-0.421875
95,0.83203125,-0.051330566,0.6334839,-0.6875,-5.15625,0.15625
96,0.8027344,-0.04425049,0.63494873,-2.28125,-5.390625,0.703125
97,0.83325195,-0.04058838,0.63494873,-2.359375,-1.859375,0.375
98,0.81103516,-0.038146973,0.664978,-0.171875,0.25,0.28125
99,0.8027344,-0.042053223,0.66204834,-0.34375,-0.015625,1.203125
100,0.7919922,-0.042541504,0.6576538,-0.46875,-0.484375,1.953125
101,0.79663086,-0.035217285,0.65911865,-1.453125,0.171875,1.96875
102,0.8112793,-0.03692627,0.6508179,-2.046875,2.5625,1.171875
103,0.80200195,-0.04107666,0.64959717,-0.6875,2.578125,1.4375
104,0.81933594,-0.039611816,0.6403198,-2.0,1.46875,1.78125
105,0.8137207,-0.03741455,0.6454468,-1.578125,0.265625,1.5
106,0.81884766,-0.031311035,0.63568115,-2.71875,0.265625,1.328125
107,0.8286133,-0.019348145,0.62542725,-2.59375,-0.5,1.109375
108,0.81396484,-0.023498535,0.6268921,-3.03125,-1.40625,1.15625
109,0.82543945,-0.024230957,0.6425171,-3.796875,-0.390625,1.03125
110,0.8144531,-0.014953613,0.63739014,-3.21875,-0.03125,0.90625
111,0.81030273,-0.019104004,0.64959717,-2.78125,-0.390625,0.90625
112,0.80249023,-0.007873535,0.633728,-4.375,-0.078125,1.078125
113,0.8112793,-0.0037231445,0.6444702,-2.125,-0.734375,1.375
114,0.8051758,-0.00592041,0.621521,-0.921875,0.515625,1.375
115,0.80371094,0.0072631836,0.64105225,0.859375,0.328125,1.1875
116,0.7963867,0.0026245117,0.6351929,3.140625,-1.953125,1.328125
117,0.79174805,-0.0071411133,0.64886475,8.375,-3.46875,0.71875
118,0.8051758,-0.011047363,0.6520386,10.609375,-5.015625,-0.078125
119,0.80810547,-0.03741455,0.637146,11.359375,-4.546875,-0.75
120,0.81518555,-0.04425049,0.6403198,9.421875,-1.703125,-0.78125
121,0.82055664,-0.051086426,0.66815186,7.265625,-1.359375,-0.609375
122,0.8078613,-0.06451416,0.6454468,1.828125,-1.546875,0.109375
123,0.79541016,-0.05279541,0.6400757,-1.0,-0.53125,-0.328125
124,0.7976074,-0.046936035,0.6469116,-3.390625,-0.9375,1.03125
125,0.8088379,-0.04034424,0.6569214,-3.296875,-2.28125,1.53125
126,0.7807617,-0.02935791,0.6376343,-9.203125,-0.984375,2.765625
127,0.8066406,-0.04815674,0.64471436,-4.265625,4.25,1.765625
128,0.81347656,-0.0178833,0.6503296,-4.09375,-0.546875,-0.046875
129,0.814209,-0.04522705,0.6613159,-2.046875,0.4375,-0.859375
130,0.8322754,-0.042541504,0.6762085,1.328125,-3.21875,0.015625
131,0.80126953,-0.038391113,0.65252686,-0.71875,0.375,0.609375
132,0.81591797,-0.02545166,0.6630249,-0.421875,0.15625,1.484375
133,0.77368164,-0.015197754,0.61932373,-2.421875,-0.59375,1.859375
134,0.7922363,-0.012512207,0.6383667,-2.046875,4.546875,1.015625
135,0.8129883,-0.013000488,0.6847534,2.140625,0.9375,-0.453125
136,0.81225586,-0.034973145,0.66693115,0.546875,0.171875,-0.09375
137,0.8190918,-0.05645752,0.6630249,5.53125,-3.28125,0.15625
138,0.8088379,-0.032043457,0.6244507,-0.40625,1.09375,0.09375
139,0.7993164,-0.043518066,0.60150146,0.96875,3.21875,0.6875
140,0.8173828,-0.023010254,0.6312866,0.28125,4.703125,0.375
141,0.8137207,-0.023986816,0.6444702,2.125,0.96875,-0.34375
142,0.8273926,-0.035217285,0.65618896,1.359375,-0.453125,-0.34375
143,0.8261719,-0.06060791,0.6535034,1.75,-2.640625,0.359375
144,0.80688477,-0.04107666,0.65252686,0.109375,-0.65625,1.234375
145,0.8105469,-0.034484863,0.62957764,-0.09375,1.140625,0.8125
146,0.8029785,-0.022521973,0.618103,-1.0,0.609375,1.015625
147,0.8015137,-0.026916504,0.62298584,0.15625,2.078125,0.109375
148,0.81640625,-0.030578613,0.64227295,2.75,0.484375,-0.921875
149,0.8166504,-0.051574707,0.63568115,2.828125,-1.234375,-1.359375
150,0.8210449,-0.06719971,0.6268921,2.875,-3.359375,-0.890625
151,0.8269043,-0.058410645,0.6491089,2.75,-3.75,-0.71875
152,0.8273926,-0.06768799,0.6473999,2.546875,-4.0,0.09375
153,0.8322754,-0.07159424,0.6520386,-0.328125,-1.984375,-0.71875
154,0.84033203,-0.05596924,0.6664429,0.125,-0.875,-0.3125
155,0.8210449,-0.03668213,0.64764404,-1.875,-2.421875,0.65625
156,0.80859375,-0.046203613,0.6425171,-2.78125,-3.234375,-0.03125
157,0.7890625,-0.047668457,0.6539917,-2.4375,-2.6875,0.84375
158,0.79956055,-0.054260254,0.6720581,-1.53125,-2.328125,1.3125
159,0.7993164,-0.0491333,0.6679077,-2.765625,-3.53125,0.96875
160,0.7890625,-0.034484863,0.67596436,-3.765625,-3.703125,1.21875
161,0.7944336,-0.02911377,0.6749878,-4.3125,-4.421875,2.171875
162,0.7819824,-0.03643799,0.680603,-3.703125,-3.625,2.15625
163,0.7775879,-0.027893066,0.66986084,-3.609375,-1.328125,1.5625
164,0.7753906,-0.022521973,0.68182373,-1.453125,-2.140625,1.84375
165,0.779541,-0.027648926,0.6864624,-0.171875,-2.921875,1.75
166,0.77075195,-0.016174316,0.68499756,0.296875,-3.828125,2.234375
167,0.7597656,-0.02178955,0.69158936,1.640625,-4.96875,2.65625
168,0.73535156,0.00091552734,0.7003784,3.265625,-6.65625,3.421875
169,0.7338867,-0.0115356445,0.7658081,9.375,-13.328125,4.1875
170,0.74658203,-0.016906738,0.8048706,9.53125,-16.21875,3.90625
171,0.7583008,-0.010070801,0.77386475,10.9375,-10.0625,3.65625
172,0.6862793,-0.020812988,0.6246948,-4.203125,-6.6875,7.953125
173,0.7199707,-0.038879395,0.6911011,2.390625,6.359375,6.09375
174,0.74438477,-0.0095825195,0.69207764,-0.8125,4.625,0.984375
175,0.7836914,-0.053771973,0.7640991,3.65625,3.390625,-0.921875
176,0.7624512,-0.046447754,0.7579956,2.578125,-1.609375,-0.5625
177,0.78027344,-0.049621582,0.7484741,3.203125,-3.40625,1.515625
178,0.7548828,-0.0256958,0.73358154,1.984375,-5.5,1.125
179,0.7192383,-0.020812988,0.7616577,-0.609375,-6.125,1.078125
180,0.7001953,-0.026428223,0.79608154,-0.6875,-3.0,1.34375
181,0.6940918,-0.016906738,0.77459717,-2.90625,-1.4375,1.875
182,0.6555176,-0.024475098,0.7206421,-5.1875,6.75,2.359375
183,0.6989746,0.0004272461,0.7550659,-0.90625,8.328125,0.59375
184,0.70703125,-0.027893066,0.77337646,1.625,8.6875,-1.34375
185,0.717041,-0.02130127,0.71258545,2.921875,7.515625,-1.765625
186,0.7680664,-0.02935791,0.7050171,3.28125,8.0625,-1.28125
187,0.76342773,-0.01763916,0.6742554,2.5625,8.5625,-1.328125
188,0.77685547,-0.037902832,0.69525146,3.296875,8.4375,-1.875
189,0.80493164,-0.01763916,0.68499756,1.90625,7.421875,-3.15625
190,0.8166504,-0.04840088,0.6950073,-1.28125,5.75,-2.9375
191,0.8051758,-0.05621338,0.6742554,-1.484375,7.9375,-2.9375
192,0.81274414,-0.059387207,0.6569214,-2.109375,6.515625,-2.53125
193,0.80322266,-0.07720947,0.6588745,-1.71875,4.25,-2.984375
194,0.81811523,-0.070617676,0.6889038,-2.296875,1.328125,-2.328125
195,0.80859375,-0.062072754,0.6696167,-5.25,1.609375,-3.0
196,0.8000488,-0.054748535,0.64959717,-6.21875,2.4375,-2.75
197,0.81225586,-0.038635254,0.6425171,-5.25,3.859375,-2.390625
198,0.798584,-0.045959473,0.6508179,-3.703125,5.515625,-1.359375
199,0.80322266,-0.039855957,0.6244507,-3.203125,6.328125,-1.09375
200,0.8198242,-0.043029785,0.6083374,-2.609375,7.140625,-1.484375
201,0.8137207,-0.040100098,0.63616943,-1.640625,7.9375,-0.6875
202,0.82128906,-0.066223145,0.63568115,-2.609375,7.265625,-0.421875
203,0.83740234,-0.04058838,0.58587646,-2.703125,6.953125,-1.046875
204,0.8544922,-0.061584473,0.57855225,-2.328125,4.75,-0.234375
205,0.8691406,-0.058898926,0.5836792,-2.765625,3.421875,0.328125
206,0.8691406,-0.06549072,0.5805054,-3.90625,2.859375,0.859375
207,0.8691406,-0.049621582,0.5597534,-3.5,1.0625,1.265625
208,0.85595703,-0.04449463,0.5524292,-1.4375,-1.15625,1.859375
209,0.8510742,-0.040100098,0.574646,-2.265625,-1.59375,1.78125
210,0.8425293,-0.042297363,0.5922241,-2.515625,-0.28125,1.734375
211,0.8552246,-0.035217285,0.5922241,-2.84375,-1.578125,1.515625
212,0.84643555,-0.02154541,0.604187,-3.78125,-2.546875,1.828125
213,0.83569336,-0.020568848,0.59661865,-3.171875,-2.8125,2.59375
214,0.8317871,-0.019592285,0.59124756,-0.96875,-2.828125,2.75
215,0.82128906,-0.011779785,0.58807373,0.765625,-4.125,2.828125
216,0.82666016,-0.011291504,0.5836792,4.0625,-4.890625,3.171875
217,0.81811523,-0.00030517578,0.6569214,7.8125,-3.859375,3.53125
218,0.80688477,-0.0134887695,0.621521,11.890625,-11.375,6.140625
219,0.8222656,-0.050354004,0.61102295,9.421875,-10.15625,2.5
220,0.8334961,-0.0256958,0.6613159,2.328125,-8.8125,2.4375
221,0.8105469,-0.038879395,0.61346436,-4.28125,-0.96875,5.328125
222,0.80126953,-0.054260254,0.6420288,1.109375,3.578125,4.1875
223,0.82177734,0.02508545,0.62957764,1.078125,-1.328125,3.6875
224,0.7944336,-0.047424316,0.64227295,1.25,-1.90625,1.578125
225,0.84106445,-0.015930176,0.697937,2.734375,-2.203125,1.15625
226,0.8071289,-0.017150879,0.65130615,1.328125,-1.90625,0.453125
227,0.8198242,0.0079956055,0.6444702,0.953125,0.546875,1.96875
228,0.79467773,-0.024719238,0.6532593,0.859375,1.09375,1.90625
229,0.7956543,-0.0134887695,0.65057373,2.828125,-0.3125,1.828125
230,0.8078613,-0.008361816,0.6437378,0.546875,-3.15625,1.703125
231,0.79663086,0.009460449,0.60565186,-3.53125,0.375,2.28125
232,0.7949219,-0.018615723,0.6364136,1.28125,2.5,0.984375
233,0.8190918,-0.0115356445,0.64593506,1.171875,-0.328125,-0.15625
234,0.8166504,-0.026672363,0.651062,2.09375,-0.453125,-0.640625
235,0.83374023,-0.04156494,0.6535034,4.171875,-4.65625,-0.484375
236,0.810791,-0.023254395,0.6239624,2.140625,-1.703125,0.28125
237,0.8161621,-0.019592285,0.6425171,3.734375,0.109375,1.546875
238,0.7973633,-0.023254395,0.63494873,3.171875,-1.515625,2.59375
239,0.7944336,-0.020080566,0.67181396,1.15625,0.125,1.90625
240,0.79174805,-0.016418457,0.6757202,2.25,-1.265625,0.671875
241,0.7980957,-0.03692627,0.67767334,1.71875,-2.34375,0.0625
242,0.7873535,-0.03643799,0.6390991,2.328125,-3.3125,-0.078125
243,0.81396484,-0.027160645,0.6449585,0.609375,-2.0625,0.953125
244,0.80200195,-0.0335083,0.67352295,-0.96875,-0.65625,0.5625
245,0.7980957,-0.03668213,0.67889404,0.21875,-2.0,1.09375
246,0.7734375,-0.014953613,0.64837646,-1.375,0.671875,0.96875
247,0.77905273,-0.02935791,0.6793823,1.359375,0.859375,-0.5
248,0.7702637,-0.04449463,0.652771,2.296875,-0.3125,-1.8125
249,0.80029297,-0.051818848,0.6688843,3.921875,-0.625,-3.375
250,0.81469727,-0.03717041,0.6647339,1.828125,-0.59375,-2.453125
251,0.79833984,-0.05279541,0.6469116,0.4375,1.484375,-1.609375
252,0.80493164,-0.04840088,0.66033936,0.84375,2.515625,-0.984375
253,0.80444336,-0.043762207,0.6703491,1.78125,2.09375,-0.1875
254,0.8149414,-0.046691895,0.6588745,2.28125,0.796875,-0.28125
255,0.8105469,-0.055236816,0.6486206,1.0625,-0.234375,-0.171875
256,0.8269043,-0.05596924,0.6708374,1.59375,0.828125,-0.140625
257,0.8190918,-0.066223145,0.6454468,-0.703125,1.890625,0.25
258,0.8256836,-0.059631348,0.6329956,-1.765625,1.3125,0.375
259,0.81274414,-0.057434082,0.64471436,-1.671875,1.34375,0.5
260,0.8132324,-0.059143066,0.6403198,-1.96875,0.21875,0.96875
261,0.8190918,-0.05230713,0.6383667,-2.53125,0.03125,0.8125
262,0.8156738,-0.055480957,0.6449585,-3.4375,0.125,1.015625
263,0.81225586,-0.053527832,0.63812256,-3.390625,-0.328125,1.109375
264,0.8154297,-0.04498291,0.64056396,-3.453125,-1.09375,0.609375
265,0.81469727,-0.049865723,0.6376343,-2.6875,-2.59375,1.3125
266,0.8051758,-0.038879395,0.6430054,-5.171875,-1.6875,0.671875
267,0.7922363,-0.036193848,0.66156006,-3.34375,0.015625,0.703125
268,0.80908203,-0.03253174,0.65789795,-3.4375,0.265625,1.15625
269,0.8093262,-0.028625488,0.6478882,-3.5,-0.78125,0.953125
270,0.8015137,-0.02130127,0.6466675,-3.09375,-0.4375,0.671875
271,0.8027344,-0.02130127,0.6473999,-2.578125,-0.625,0.96875
272,0.80126953,-0.020568848,0.652771,-1.21875,-0.328125,1.15625
273,0.7956543,-0.01739502,0.6508179,0.03125,-1.609375,1.328125
274,0.7927246,-0.014953613,0.652771,1.734375,-1.515625,1.359375
275,0.7766113,-0.01763916,0.65545654,4.640625,-1.625,1.171875
276,0.7871094,-0.027648926,0.6847534,12.3125,-3.703125,0.9375
277,0.8120117,-0.037902832,0.6466675,11.15625,-6.0625,0.921875
278,0.8120117,-0.05328369,0.66815186,5.71875,-4.859375,0.71875
279,0.80029297,-0.04425049,0.7284546,-1.75,-5.5,3.828125
280,0.7463379,-0.07305908,0.55877686,-3.6875,8.890625,4.15625
281,0.8364258,-0.0010375977,0.6552124,0.203125,5.03125,2.203125
282,0.78393555,-0.02178955,0.66082764,-1.921875,0.984375,1.578125
283,0.8015137,-0.035217285,0.649353,1.78125,0.984375,-0.765625
284,0.8227539,-0.018127441,0.664978,4.5,-2.5625,-1.484375
285,0.79248047,-0.05328369,0.6798706,7.984375,-6.984375,-1.53125
286,0.79711914,-0.05303955,0.65838623,2.625,-2.46875,0.3125
287,0.80371094,-0.06036377,0.7140503,2.296875,-0.40625,1.015625
288,0.7961426,-0.06060791,0.6725464,-2.40625,0.09375,2.375
289,0.8039551,-0.012268066,0.7460327,-2.828125,-2.03125,2.03125
290,0.7470703,-0.041809082,0.59661865,-10.75,4.4375,5.453125
291,0.80615234,-0.008605957,0.6466675,0.28125,4.4375,1.796875
292,0.78637695,-0.020080566,0.65740967,1.328125,1.515625,0.046875
293,0.78149414,-0.04107666,0.61590576,5.640625,0.015625,-2.375
294,0.81884766,-0.04156494,0.66522217,6.8125,-2.265625,-3.015625
295,0.8046875,-0.059143066,0.6815796,5.484375,-3.28125,-1.71875
296,0.8095703,-0.06866455,0.6749878,3.453125,-2.265625,0.15625
297,0.80371094,-0.05596924,0.6779175,1.40625,-1.328125,0.875
298,0.7922363,-0.04425049,0.6769409,0.390625,-1.90625,1.0
299,0.7897949,-0.046936035,0.6911011,-0.296875,-2.40625,1.171875
300,0.7866211,-0.049621582,0.6769409,-1.09375,-1.75,0.90625
301,0.7895508,-0.050842285,0.6793823,-2.46875,-0.9375,0.84375
302,0.7937012,-0.055480957,0.67889404,-3.15625,-0.046875,1.078125
303,0.78759766,-0.04425049,0.6691284,-3.671875,0.609375,1.15625
304,0.7861328,-0.04522705,0.6744995,-3.53125,0.6875,1.421875
305,0.7902832,-0.042297363,0.67230225,-4.546875,1.453125,1.0625
306,0.7873535,-0.038879395,0.6737671,-3.84375,0.515625,1.015625
307,0.79711914,-0.0335083,0.66326904,-5.015625,0.265625,0.875
308,0.78344727,-0.021057129,0.6508179,-6.140625,0.421875,0.734375
309,0.7927246,-0.028137207,0.67718506,-4.0,2.28125,0.328125
310,0.79956055,-0.016906738,0.6744995,-3.375,1.734375,0.953125
311,0.8039551,-0.0154418945,0.664978,-3.890625,0.96875,0.453125
312,0.7922363,-0.012756348,0.6613159,-3.8125,0.5,0.484375
313,0.7980957,-0.01373291,0.6605835,-2.796875,0.015625,0.671875
314,0.7993164,-0.005432129,0.6647339,-2.140625,0.203125,0.609375
315,0.7998047,-0.0076293945,0.6635132,-0.59375,0.109375,0.5625
316,0.7897949,-0.00592041,0.668396,-0.859375,-0.0625,0.9375
317,0.78808594,-0.00982666,0.668396,0.296875,0.21875,0.796875
318,0.8022461,-0.009338379,0.6688843,1.4375,0.34375,0.609375
319,0.7873535,-0.009338379,0.65618896,3.6875,-0.03125,0.765625
320,0.79052734,0.006286621,0.68133545,10.515625,-1.140625,0.375
321,0.8022461,-0.034240723,0.6679077,14.9375,-3.109375,0.453125
322,0.80029297,-0.017150879,0.68011475,12.921875,-3.703125,-0.046875
323,0.8635254,-0.08648682,0.7680054,-0.9375,-7.515625,5.546875
324,0.7272949,-0.18170166,0.42401123,-7.59375,16.984375,13.234375
325,0.9733887,0.0848999,0.6930542,-4.671875,10.140625,12.34375
326,0.7114258,0.12689209,0.6029663,0.5,9.6875,10.984375
327,0.7363281,-0.047668457,0.60931396,-0.296875,6.3125,-0.34375
328,0.6958008,0.066589355,0.64837646,1.421875,-3.84375,0.078125
329,0.8859863,-0.02130127,0.7057495,2.96875,3.421875,0.15625
330,0.87353516,-0.059387207,0.64227295,3.453125,-1.59375,0.328125
331,0.82836914,0.020202637,0.6210327,-1.6875,4.6875,-4.0625
332,0.8508301,0.01727295,0.62908936,-2.046875,5.4375,-0.734375
333,0.78930664,0.007019043,0.59246826,-0.359375,0.5625,-2.109375
334,0.85131836,-0.018859863,0.60272217,0.90625,3.234375,2.265625
335,0.8474121,0.012878418,0.6273804,3.359375,2.546875,-1.203125
336,0.82714844,-0.0064086914,0.6310425,3.28125,0.625,-1.15625
337,0.84887695,-0.030822754,0.6461792,4.171875,-0.71875,-0.875
338,0.86621094,-0.029846191,0.66326904,-2.125,-3.6875,5.625
339,0.8395996,-0.06036377,0.5470581,-2.046875,5.46875,8.71875
340,0.9194336,0.105895996,0.6173706,-2.265625,4.703125,7.75
341,0.73413086,-0.014953613,0.5519409,-2.09375,4.546875,0.703125
342,0.78515625,0.03729248,0.5421753,-2.625,-4.640625,-2.875
343,0.7390137,0.04168701,0.6430054,2.046875,-8.25,-2.34375
344,0.91015625,0.011657715,0.6244507,-1.484375,-1.0625,0.015625
345,0.82714844,0.00579834,0.64227295,4.5625,-1.21875,-1.515625
346,0.873291,-0.013000488,0.63031006,4.390625,-3.890625,-2.125
347,0.857666,-0.0071411133,0.60321045,2.5625,-3.9375,-1.859375
348,0.8391113,-0.003479004,0.6207886,-0.546875,-4.109375,-0.4375
349,0.8322754,-0.032287598,0.6256714,-0.0625,-0.671875,-0.0625
350,0.8120117,-0.008850098,0.602478,-1.59375,-2.59375,0.875
351,0.8017578,0.005065918,0.60076904,-1.140625,-1.75,0.40625
352,0.81225586,-0.031311035,0.6246948,-0.34375,-2.234375,0.125
353,0.80493164,-0.009094238,0.62664795,3.296875,-3.8125,-0.765625
354,0.8378906,-0.009338379,0.6478882,4.28125,-5.546875,-0.234375
355,0.82006836,-0.0256958,0.6588745,4.046875,-6.09375,-0.21875
356,0.8000488,-0.014465332,0.6515503,4.21875,-6.859375,-0.15625
357,0.7878418,-0.023986816,0.6947632,4.0625,-6.125,-0.46875
358,0.7819824,-0.012023926,0.6991577,3.390625,-7.5,-0.8125
359,0.7595215,-0.024230957,0.6766968,1.828125,-5.671875,-0.203125
360,0.7939453,-0.051818848,0.68621826,-0.140625,-2.25,-1.78125
361,0.77856445,-0.039123535,0.67352295,-1.046875,-0.453125,-1.125
362,0.7675781,-0.038879395,0.67767334,-1.734375,-0.515625,-0.84375
363,0.7805176,-0.031555176,0.67474365,-1.140625,0.15625,-0.03125
364,0.7890625,-0.033996582,0.68573,-0.90625,1.40625,0.015625
365,0.78125,-0.035217285,0.67352295,-0.6875,1.828125,0.90625
366,0.782959,-0.038391113,0.680603,-1.34375,1.828125,0.921875
367,0.78393555,-0.043273926,0.6757202,-2.3125,2.3125,0.90625
368,0.79345703,-0.040100098,0.6720581,-2.75,1.765625,0.5625
369,0.7844238,-0.03326416,0.6720581,-3.375,1.90625,0.421875
370,0.79125977,-0.028137207,0.66937256,-2.046875,1.515625,0.421875
371,0.798584,-0.023010254,0.65911865,-2.625,1.875,0.25
372,0.79956055,-0.022521973,0.66448975,-1.8125,1.03125,0.265625
373,0.79907227,-0.012023926,0.6569214,-2.359375,2.046875,-0.265625
374,0.8051758,-0.028869629,0.65496826,-2.046875,2.8125,0.3125
375,0.8054199,-0.027648926,0.65008545,-1.265625,2.515625,1.0
376,0.8066406,-0.022766113,0.65252686,-1.609375,1.734375,0.609375
377,0.795166,-0.019836426,0.6559448,-0.984375,0.0625,0.71875
378,0.7963867,-0.0178833,0.6486206,-0.640625,-0.375,0.65625
379,0.80078125,-0.012023926,0.6412964,1.9375,-1.328125,1.015625
380,0.79833984,-0.011779785,0.65301514,5.125,-2.46875,0.703125
381,0.7890625,-0.012268066,0.6659546,8.9375,-4.859375,0.96875
382,0.79956055,-0.030578613,0.65130615,11.5625,-8.234375,0.796875
383,0.8083496,-0.046447754,0.65423584,8.546875,-6.625,-0.046875
384,0.80322266,-0.059387207,0.6720581,4.546875,-4.703125,0.5625
385,0.7919922,-0.05596924,0.68304443,1.6875,-1.9375,1.125
386,0.78125,-0.047668457,0.68621826,1.296875,-1.078125,1.1875
387,0.7807617,-0.043029785,0.6918335,1.125,-2.03125,1.515625
388,0.779541,-0.04449463,0.70062256,0.359375,-2.078125,2.359375
389,0.79003906,-0.041809082,0.70355225,-1.765625,-2.203125,2.78125
390,0.76708984,-0.04498291,0.6766968,-2.5625,-2.4375,3.140625
391,0.7546387,-0.03717041,0.65618896,-4.171875,0.296875,3.140625
392,0.7624512,-0.039611816,0.6444702,-2.96875,4.390625,2.0625
393,0.7956543,-0.037902832,0.68865967,-1.03125,0.421875,0.234375
394,0.7858887,-0.038635254,0.66693115,-0.90625,1.6875,-1.609375
395,0.8059082,-0.04815674,0.7001343,0.03125,2.359375,-2.171875
396,0.79833984,-0.050842285,0.70355225,1.015625,0.625,-1.71875
397,0.7770996,-0.03717041,0.67352295,-0.109375,0.546875,-1.078125
398,0.78393555,-0.028869629,0.6715698,0.609375,-0.046875,-0.375
399,0.77905273,-0.024963379,0.6781616,1.03125,0.0,0.453125
400,0.7858887,-0.031066895,0.68865967,2.109375,-0.25,0.6875
401,0.7817383,-0.034484863,0.67962646,0.890625,0.21875,0.828125
402,0.7878418,-0.039367676,0.7040405,0.5625,-0.28125,1.84375
403,0.78344727,-0.02960205,0.6376343,-2.984375,2.578125,3.109375
404,0.80200195,-0.054016113,0.670105,-0.125,3.15625,2.09375
405,0.8010254,-0.0413208,0.64276123,-2.578125,2.09375,0.6875
406,0.80493164,-0.042785645,0.64959717,-2.53125,2.484375,-0.609375
407,0.81884766,-0.05255127,0.6676636,0.328125,0.078125,-0.453125
408,0.8015137,-0.02154541,0.65911865,0.09375,-0.828125,-0.375
409,0.78125,-0.032043457,0.64837646,1.625,-1.328125,-0.046875
410,0.78149414,-0.023742676,0.67108154,1.953125,-0.203125,-0.09375
411,0.7895508,-0.043273926,0.6762085,4.03125,-1.890625,-0.25
412,0.7949219,-0.04449463,0.666687,2.375,-2.578125,-0.25
413,0.78808594,-0.05645752,0.67889404,3.03125,-2.015625,-0.078125
414,0.7961426,-0.054016113,0.6708374,2.328125,-0.9375,0.140625
415,0.78881836,-0.055480957,0.67962646,1.84375,-1.953125,0.546875
416,0.77612305,-0.04888916,0.6779175,1.28125,-1.828125,0.546875
417,0.7902832,-0.050842285,0.68084717,0.203125,-1.65625,0.203125
418,0.7746582,-0.054992676,0.67303467,0.703125,-0.609375,-0.359375
419,0.7932129,-0.0635376,0.69085693,1.34375,-1.40625,-0.203125
420,0.7944336,-0.066711426,0.6828003,0.0625,-0.796875,-0.21875
421,0.7878418,-0.06109619,0.68963623,-0.765625,0.34375,0.21875
422,0.7956543,-0.05718994,0.67352295,-1.734375,1.609375,0.125
423,0.7961426,-0.047912598,0.67303467,-1.359375,3.40625,0.265625
424,0.7907715,-0.051086426,0.6676636,-0.234375,3.109375,0.890625
425,0.7907715,-0.05596924,0.6688843,-1.34375,2.90625,0.796875
426,0.7915039,-0.06744385,0.670105,-0.84375,3.015625,0.5625
427,0.80078125,-0.06011963,0.66522217,-1.59375,2.359375,0.890625
428,0.8066406,-0.058410645,0.65740967,-1.984375,1.53125,0.921875
429,0.79589844,-0.04449463,0.6522827,-1.90625,0.40625,1.171875
430,0.7956543,-0.046691895,0.65740967,-2.34375,1.125,1.109375
431,0.8010254,-0.039855957,0.65301514,-2.03125,1.015625,1.28125
432,0.8076172,-0.038391113,0.64764404,-2.34375,0.921875,1.0625
433,0.79833984,-0.046691895,0.6559448,-2.078125,0.953125,1.140625
434,0.8039551,-0.035461426,0.65545654,-1.390625,0.53125,0.921875
435,0.81103516,-0.039855957,0.6481323,-1.53125,0.71875,0.90625
436,0.80029297,-0.03326416,0.651062,0.8125,-0.625,1.40625
437,0.7907715,-0.029846191,0.6403198,1.03125,-1.046875,1.21875
438,0.7902832,-0.028625488,0.6415405,3.859375,-0.359375,0.78125
439,0.79052734,-0.038146973,0.67108154,8.21875,-1.625,0.921875
440,0.8220215,-0.06451416,0.6503296,3.046875,-5.1875,2.25
441,0.80810547,-0.05718994,0.6430054,-9.015625,-10.921875,3.03125
442,0.77563477,-0.0569458,0.60272217,-6.203125,9.140625,2.6875
443,0.82836914,0.008483887,0.649353,-2.046875,5.140625,2.359375
444,0.79907227,-0.0025024414,0.6364136,0.75,4.046875,1.171875
445,0.78881836,-0.028137207,0.6300659,3.65625,4.96875,-1.25
446,0.84350586,-0.02911377,0.6659546,6.984375,-0.65625,-2.265625
447,0.80444336,-0.033996582,0.6635132,7.984375,-0.8125,-1.6875
448,0.8093262,-0.058166504,0.64886475,5.109375,2.390625,0.15625
449,0.8166504,-0.04498291,0.6442261,3.5,3.140625,1.3125
450,0.80810547,-0.06329346,0.6630249,-0.25,3.15625,1.390625
451,0.8144531,-0.031311035,0.62713623,-9.34375,-1.921875,4.984375
452,0.8034668,-0.07940674,0.58148193,-8.328125,4.75,3.234375
453,0.8540039,-0.003967285,0.60321045,-1.765625,4.421875,-0.59375
454,0.8417969,-0.03277588,0.59588623,1.359375,4.671875,-2.3125
455,0.84033203,-0.054260254,0.6090698,7.421875,6.28125,-3.046875
456,0.86938477,-0.043518066,0.60028076,6.515625,3.265625,-2.484375
457,0.8330078,-0.0713501,0.5939331,4.859375,-1.0,-2.25
458,0.8491211,-0.055725098,0.60980225,4.65625,-4.8125,-0.859375
459,0.85498047,-0.054748535,0.6129761,2.6875,-6.203125,-0.234375
460,0.83984375,-0.06842041,0.6195679,1.671875,-6.421875,0.453125
461,0.8249512,-0.065979004,0.6347046,-0.3125,-4.84375,0.9375
462,0.8083496,-0.06817627,0.6430054,-0.203125,-4.625,1.015625
463,0.8198242,-0.06329346,0.6569214,-0.375,-4.4375,0.890625
464,0.80737305,-0.062561035,0.6364136,-1.609375,-4.90625,0.90625
465,0.8041992,-0.06939697,0.64959717,-2.65625,-4.015625,0.765625
466,0.8076172,-0.06549072,0.6593628,-2.09375,-3.125,1.359375
467,0.7949219,-0.06549072,0.6395874,-2.21875,-2.578125,1.484375
468,0.7915039,-0.04840088,0.6625366,-1.828125,-1.53125,1.75
469,0.7944336,-0.046936035,0.65374756,-0.796875,-1.03125,1.78125
470,0.7961426,-0.051574707,0.6679077,-0.140625,-0.859375,1.484375
471,0.7915039,-0.04864502,0.6691284,-1.125,-0.953125,1.390625
472,0.7861328,-0.05303955,0.6757202,-1.53125,-1.0625,1.015625
473,0.7780762,-0.047912598,0.66815186,-2.546875,-0.921875,0.78125
474,0.79003906,-0.038635254,0.66693115,-2.359375,0.15625,0.609375
475,0.79541016,-0.04034424,0.67108154,-2.265625,2.140625,0.484375
476,0.79711914,-0.0413208,0.6622925,-1.890625,2.171875,0.484375
477,0.7932129,-0.041809082,0.64959717,-1.84375,2.671875,0.828125
478,0.79296875,-0.041809082,0.67059326,-0.5625,3.015625,0.671875
479,0.8034668,-0.034484863,0.6466675,-1.8125,2.015625,0.53125
480,0.7937012,-0.02960205,0.63397217,-1.515625,2.984375,0.828125
481,0.8054199,-0.038635254,0.6564331,-0.265625,3.890625,0.375
482,0.81103516,-0.031066895,0.64959717,0.578125,3.625,0.625
483,0.8054199,-0.028137207,0.65179443,2.890625,3.859375,1.015625
484,0.7973633,-0.023254395,0.62249756,5.90625,-2.25,2.59375
485,0.7980957,-0.043273926,0.6166382,9.234375,-5.21875,2.4375
486,0.8076172,-0.0569458,0.6286011,8.28125,-2.015625,2.0
487,0.8156738,-0.046936035,0.6071167,6.03125,-1.53125,1.96875
488,0.82250977,-0.057678223,0.6268921,4.59375,-0.328125,1.03125
489,0.814209,-0.038146973,0.6107788,-1.125,3.796875,0.734375
490,0.826416,-0.06524658,0.63568115,0.640625,4.578125,0.296875
491,0.842041,-0.057678223,0.6298218,-0.0625,2.375,-0.515625
492,0.842041,-0.049621582,0.64471436,0.0,0.296875,-0.71875
493,0.82836914,-0.06890869,0.6100464,-1.78125,0.640625,-0.546875
494,0.8535156,-0.06427002,0.63983154,-1.78125,-0.515625,0.25
495,0.79418945,-0.06036377,0.60491943,-2.671875,1.734375,1.234375
496,0.8039551,-0.058410645,0.61395264,-0.234375,4.296875,2.171875
497,0.82128906,-0.038635254,0.6293335,1.21875,4.53125,1.6875
498,0.81640625,-0.04522705,0.60369873,0.171875,3.25,1.828125
499,0.84106445,-0.046447754,0.6022339,-1.125,7.75,1.375
500,0.83447266,-0.06378174,0.5968628,-2.125,7.546875,0.578125
501,0.84350586,-0.05645752,0.5817261,-2.3125,5.265625,-1.3125
502,0.8937988,-0.05645752,0.6251831,-2.09375,0.625,-2.15625
503,0.82666016,-0.045715332,0.5475464,-6.515625,-3.96875,-1.453125
504,0.86083984,-0.05596924,0.59295654,-8.109375,-5.234375,0.296875
505,0.8720703,-0.0491333,0.5741577,-17.140625,-8.109375,6.296875
506,0.8232422,-0.06817627,0.62786865,-3.140625,8.296875,6.578125
507,0.890625,0.081726074,0.5878296,-3.84375,1.4375,4.734375
508,0.7873535,-0.028625488,0.5751343,1.09375,1.25,4.609375
509,0.8503418,-0.0413208,0.6351929,4.5,-3.453125,2.234375
510,0.8522949,0.022644043,0.6090698,1.078125,-1.0,2.3125
511,0.86938477,-0.010803223,0.56951904,0.3125,-1.671875,1.890625
512,0.8276367,0.012634277,0.5175171,1.234375,-3.28125,0.765625
513,0.8654785,0.0033569336,0.5866089,3.484375,-1.34375,1.140625
514,0.85717773,-0.006652832,0.59588623,3.53125,-1.6875,0.9375
515,0.8703613,-0.0051879883,0.6207886,0.921875,-4.453125,3.03125
516,0.84887695,-0.02960205,0.59539795,1.109375,-7.84375,4.28125
517,0.84155273,-0.013977051,0.60198975,0.453125,-6.421875,4.875
518,0.84521484,0.0026245117,0.62005615,-1.171875,-12.59375,5.21875
519,0.8222656,0.015808105,0.6288452,0.234375,-5.328125,3.78125
520,0.826416,0.031921387,0.6334839,1.703125,-4.9375,1.25
521,0.79345703,0.022155762,0.6522827,4.125,0.046875,-1.625
522,0.79541016,0.028747559,0.6408081,10.25,-6.890625,-1.734375
523,0.79174805,0.0040893555,0.6786499,10.46875,-9.59375,1.328125
524,0.765625,-0.02154541,0.6786499,8.984375,-10.328125,1.34375
525,0.7910156,-0.024963379,0.70648193,7.734375,-9.1875,2.75
526,0.732666,-0.035949707,0.7133179,5.390625,-6.84375,2.125
527,0.7805176,-0.0017700195,0.6976929,4.0,-6.71875,-0.453125
528,0.7668457,-0.014709473,0.7147827,5.125,-7.515625,0.390625
529,0.7463379,-0.049621582,0.7272339,3.40625,-5.578125,-0.203125
530,0.763916,-0.02154541,0.7218628,3.015625,-3.65625,-0.328125
531,0.75097656,-0.05596924,0.7145386,2.375,-2.4375,0.4375
532,0.7468262,-0.07110596,0.7328491,-0.015625,0.421875,0.28125
533,0.7441406,-0.05596924,0.7235718,-1.9375,1.25,0.875
534,0.7487793,-0.039855957,0.70477295,-3.34375,1.609375,0.5625
535,0.7363281,-0.02935791,0.7140503,-4.515625,3.0625,0.5625
536,0.7453613,-0.024475098,0.7103882,-3.671875,2.96875,0.328125
537,0.7734375,-0.011779785,0.70965576,-3.390625,5.75,0.296875
538,0.7705078,-0.022277832,0.6976929,-1.28125,4.734375,0.71875
539,0.7619629,-0.027404785,0.69647217,-3.953125,5.484375,0.46875
540,0.7766113,-0.02545166,0.6984253,-3.421875,8.015625,0.28125
541,0.7766113,-0.027648926,0.67767334,-2.0,7.265625,0.796875
542,0.7873535,-0.018615723,0.67474365,-4.0,5.765625,-0.21875
543,0.7819824,-0.007385254,0.66278076,-4.703125,3.8125,-0.109375
544,0.7915039,-0.007873535,0.6564331,-5.09375,2.78125,-0.984375
545,0.8215332,0.007019043,0.6454468,-5.4375,1.453125,0.140625
546,0.81103516,-0.005432129,0.65496826,-2.90625,3.4375,-0.65625
547,0.7910156,0.010437012,0.65911865,-2.078125,3.359375,-1.484375
548,0.8041992,-0.0012817383,0.64276123,-1.5,1.53125,-0.9375
549,0.7878418,-0.0022583008,0.6491089,1.953125,1.15625,-1.0625
550,0.79052734,0.0038452148,0.63690186,5.921875,0.46875,-1.078125
551,0.7919922,-0.008850098,0.65960693,17.046875,-3.65625,-0.390625
552,0.810791,-0.05255127,0.64227295,16.0625,-4.671875,-1.84375
553,0.82299805,-0.04449463,0.6600952,8.65625,-1.078125,-2.59375
554,0.8208008,-0.08258057,0.6600952,1.4375,0.984375,-0.15625
555,0.8210449,-0.06427002,0.6654663,-2.078125,3.734375,2.390625
556,0.8076172,-0.05670166,0.6395874,-3.71875,-0.78125,4.15625
557,0.8457031,-0.031066895,0.5734253,-4.296875,-4.125,5.5625
558,0.9008789,0.0065307617,0.5414429,-7.046875,-10.265625,10.328125
559,0.77124023,-0.07501221,0.746521,-2.046875,-1.25,3.25
560,0.7492676,-0.023254395,0.7033081,-3.015625,-2.125,-2.140625
561,0.7824707,0.012878418,0.64837646,-1.671875,1.703125,-2.796875
562,0.8078613,-0.014709473,0.66986084,-1.0,3.328125,-5.296875
563,0.8112793,-0.012512207,0.6769409,0.875,4.421875,-6.125
564,0.8183594,-0.03302002,0.6647339,3.84375,1.703125,-3.4375
565,0.7890625,-0.023986816,0.6286011,2.453125,4.953125,-1.546875
566,0.8222656,-0.034973145,0.63031006,4.59375,5.90625,0.5
567,0.8154297,-0.051086426,0.62127686,4.5,5.78125,1.4375
568,0.8029785,-0.039855957,0.60809326,2.65625,6.8125,1.984375
569,0.8269043,-0.085510254,0.63616943,3.09375,4.171875,1.03125
570,0.82177734,-0.05596924,0.63616943,1.828125,1.09375,0.3125
571,0.8244629,-0.058898926,0.6259155,-0.09375,-0.34375,-0.125
572,0.8652344,-0.058898926,0.60858154,0.84375,-0.046875,0.21875
573,0.8605957,-0.035705566,0.58709717,1.484375,0.046875,0.078125
574,0.8432617,-0.050842285,0.5910034,2.078125,-1.609375,0.171875
575,0.84350586,-0.055236816,0.61468506,2.0625,-2.828125,0.046875
576,0.8491211,-0.06573486,0.61883545,0.515625,-2.28125,0.046875
577,0.8300781,-0.06549072,0.6154175,1.09375,-5.265625,0.71875
578,0.83251953,-0.061828613,0.6246948,-0.3125,-4.84375,0.9375
579,0.826416,-0.05279541,0.6259155,-1.25,-3.515625,1.21875
580,0.81152344,-0.06109619,0.6351929,-0.578125,-3.328125,0.984375
581,0.8400879,-0.04840088,0.6478882,-1.828125,-4.484375,2.265625
582,0.8029785,-0.054260254,0.64520264,-1.828125,-4.03125,2.15625
583,0.8027344,-0.042053223,0.65667725,-2.234375,-4.703125,1.421875
584,0.80493164,-0.043273926,0.6564331,-4.078125,-3.84375,2.046875
585,0.7897949,-0.043029785,0.6635132,-2.765625,-3.015625,1.90625
586,0.7871094,-0.03375244,0.664978,-2.703125,-2.4375,1.25
587,0.7800293,-0.030822754,0.6688843,-4.140625,-2.359375,0.625
588,0.7819824,-0.030090332,0.6757202,-2.734375,-1.375,0.109375
589,0.7878418,-0.029846191,0.67523193,-2.421875,-1.25,0.59375
590,0.7836914,-0.02178955,0.6703491,-3.328125,-0.328125,0.640625
591,0.76708984,-0.022766113,0.67645264,-2.859375,0.34375,0.984375
592,0.7680664,-0.013244629,0.67474365,-0.625,0.84375,1.1875
593,0.767334,-0.004211426,0.6642456,1.453125,0.34375,1.4375
594,0.7705078,0.0018920898,0.68182373,5.859375,-1.0,1.453125
595,0.7753906,-0.02960205,0.67596436,13.046875,-3.6875,2.71875
596,0.79589844,-0.043518066,0.649353,9.96875,-4.03125,1.765625
597,0.79589844,-0.04888916,0.65179443,4.484375,1.21875,0.6875
598,0.8112793,-0.04058838,0.6569214,1.328125,4.78125,0.578125
599,0.8125,-0.04547119,0.64593506,0.125,5.375,1.515625
600,0.8161621,-0.046447754,0.66986084,-1.03125,2.828125,2.328125
601,0.8063965,-0.039123535,0.65667725,-2.734375,1.71875,2.46875
602,0.7824707,-0.012268066,0.61712646,-6.234375,-3.140625,3.796875
603,0.8022461,-0.05987549,0.61346436,-3.09375,4.984375,2.84375
604,0.8261719,-0.027648926,0.69818115,-4.0625,-1.78125,1.78125
605,0.8183594,-0.031799316,0.66619873,-4.8125,0.96875,1.765625
606,0.8347168,-0.0049438477,0.6449585,-3.53125,1.875,0.703125
607,0.79296875,-0.029846191,0.62615967,-0.453125,-3.046875,0.3125
608,0.7939453,-0.00982666,0.61053467,-0.546875,0.09375,0.4375
609,0.82177734,0.016296387,0.64349365,1.984375,1.46875,2.015625
610,0.79467773,-0.0049438477,0.6779175,0.59375,-1.78125,4.046875
611,0.80688477,-0.0049438477,0.6137085,-1.96875,-2.3125,6.140625
612,0.8234863,0.039489746,0.6613159,0.09375,4.875,5.34375
613,0.82006836,-0.02130127,0.6630249,-0.921875,-0.3125,0.984375
614,0.8039551,-0.012756348,0.6408081,0.140625,0.6875,-1.09375
615,0.80737305,-0.010803223,0.6293335,1.109375,1.859375,-3.265625
616,0.8483887,-0.018127441,0.6552124,2.265625,-0.296875,-2.890625
617,0.7895508,0.014831543,0.6395874,1.359375,3.53125,-2.75
618,0.8076172,-0.015197754,0.6329956,3.375,-0.390625,-1.796875
619,0.8027344,0.002380371,0.64520264,7.21875,-1.953125,-0.609375
620,0.7949219,-0.014953613,0.67767334,7.609375,-0.4375,-1.609375
621,0.78125,-0.03765869,0.64642334,4.4375,-1.53125,-1.0
622,0.8083496,-0.055725098,0.65496826,3.453125,-1.171875,-0.375
623,0.81933594,-0.058410645,0.65301514,1.640625,-0.640625,-0.1875
624,0.79907227,-0.046203613,0.6466675,0.984375,-0.59375,0.1875
625,0.8173828,-0.039367676,0.64520264,0.8125,-0.359375,0.53125
626,0.8183594,-0.03692627,0.64276123,1.890625,-0.28125,0.875
627,0.8144531,-0.043273926,0.6456909,2.078125,0.03125,0.125
628,0.80981445,-0.042785645,0.64764404,1.4375,0.171875,0.578125
629,0.7961426,-0.046447754,0.64178467,1.296875,0.203125,0.203125
630,0.80859375,-0.0569458,0.6400757,1.421875,0.5625,-0.09375
631,0.81396484,-0.055725098,0.6456909,0.875,0.09375,0.328125
632,0.8063965,-0.053527832,0.63275146,-0.484375,0.0625,0.34375
633,0.81225586,-0.049621582,0.6481323,-0.046875,0.703125,0.453125
634,0.8203125,-0.05303955,0.6359253,-0.84375,1.109375,0.734375
635,0.82421875,-0.04425049,0.6310425,-0.90625,1.328125,0.671875
636,0.8173828,-0.046447754,0.6342163,-0.515625,0.765625,0.765625
637,0.8132324,-0.043518066,0.6322632,-0.671875,0.53125,0.5625
638,0.8171387,-0.046447754,0.6293335,-0.40625,-0.53125,0.671875
639,0.81152344,-0.051086426,0.6437378,0.46875,-1.921875,0.859375
640,0.8093262,-0.047668457,0.6329956,0.296875,-2.375,1.21875
641,0.8173828,-0.045959473,0.6244507,-0.328125,-1.328125,0.859375
642,0.8210449,-0.05987549,0.66937256,-2.828125,-1.03125,1.421875
643,0.82177734,-0.06549072,0.69940186,-5.234375,-3.109375,4.515625
644,0.79345703,-0.070373535,0.56243896,-13.15625,-8.515625,5.34375
645,0.85375977,-0.015930176,0.6676636,-10.078125,-7.578125,4.390625
646,0.76220703,0.05657959,0.6063843,-6.765625,5.34375,3.5625
647,0.76953125,-0.01373291,0.69696045,-1.9375,11.546875,-0.921875
648,0.78466797,0.034362793,0.6034546,1.4375,7.328125,-1.046875
649,0.8010254,-0.022277832,0.61590576,5.390625,1.234375,-2.734375
650,0.7988281,0.008483887,0.6461792,8.078125,1.84375,-1.96875
651,0.78564453,-0.01739502,0.64471436,7.453125,3.515625,-1.25
652,0.82470703,-0.021057129,0.63983154,7.109375,3.78125,-0.515625
653,0.8383789,-0.042785645,0.6469116,5.0625,4.0625,1.203125
654,0.826416,-0.055725098,0.6286011,2.296875,3.0,0.453125
655,0.8413086,-0.05718994,0.60931396,1.796875,2.515625,0.578125
656,0.8249512,-0.058410645,0.5997925,1.21875,1.703125,1.265625
657,0.8269043,-0.05718994,0.6017456,1.5625,0.6875,0.28125
658,0.84521484,-0.046936035,0.604187,2.96875,-0.140625,0.1875
659,0.8581543,-0.04034424,0.58587646,2.5625,1.28125,0.625
660,0.8684082,-0.036193848,0.6083374,2.53125,1.15625,1.59375
661,0.86083984,-0.043762207,0.6005249,0.828125,0.765625,2.140625
662,0.8461914,-0.04937744,0.59906006,0.75,-1.71875,2.546875
663,0.8359375,-0.06085205,0.6054077,0.515625,-3.90625,1.390625
664,0.8129883,-0.07696533,0.6210327,-0.34375,-5.578125,-0.0625
665,0.8244629,-0.06378174,0.6154175,-0.6875,-4.640625,-0.625
666,0.82958984,-0.038879395,0.6281128,-0.5,-5.390625,0.34375
667,0.8273926,-0.049621582,0.65057373,-0.265625,-5.96875,0.46875
668,0.8063965,-0.035705566,0.63812256,-0.3125,-4.515625,1.09375
669,0.80810547,-0.019836426,0.6347046,1.453125,-4.296875,1.625
670,0.7980957,-0.022521973,0.64105225,0.75,-4.546875,1.828125
671,0.7932129,-0.05303955,0.6366577,1.703125,-3.734375,1.421875
672,0.8041992,-0.055725098,0.6586304,1.609375,-2.5625,1.453125
673,0.81469727,-0.08258057,0.6835327,1.375,-0.1875,1.34375
674,0.79174805,-0.054992676,0.6864624,-1.234375,1.171875,1.6875
675,0.7883301,-0.06378174,0.65667725,-4.484375,-0.0625,1.265625
676,0.84375,-0.04449463,0.6679077,-11.75,4.03125,0.25
677,0.7541504,-0.005432129,0.6522827,-8.0625,7.578125,1.890625
678,0.8046875,-0.016662598,0.6703491,-8.03125,3.828125,2.828125
679,0.7976074,0.0045776367,0.65301514,-7.609375,0.515625,5.828125
680,0.78930664,0.018493652,0.57806396,-6.765625,1.828125,6.515625
681,0.7915039,0.0014038086,0.6547241,1.296875,8.984375,1.40625
682,0.8046875,0.029968262,0.63690186,0.71875,11.421875,-2.71875
683,0.8083496,-0.012268066,0.61273193,6.609375,15.796875,-5.140625
684,0.87939453,-0.00079345703,0.5680542,6.5,1.90625,-2.296875
685,0.859375,-0.028381348,0.63568115,1.390625,3.390625,2.75
686,0.8569336,-0.030090332,0.586853,-1.953125,2.15625,5.765625
687,0.8874512,-0.027648926,0.54241943,-4.28125,5.234375,7.625
688,0.873291,0.0368042,0.5387573,-4.015625,11.734375,4.953125
689,0.8979492,0.016784668,0.52508545,-3.984375,7.28125,1.078125
690,0.859375,0.024353027,0.51556396,3.046875,7.84375,-3.28125
691,0.8835449,-0.018371582,0.55926514,13.328125,4.078125,-5.703125
692,0.87768555,0.0045776367,0.53704834,17.265625,-3.15625,-5.015625
693,0.91918945,-0.007385254,0.543396,10.828125,-2.09375,-2.734375
694,0.89990234,-0.02130127,0.5578003,9.90625,-2.921875,0.359375
695,0.84814453,-0.06109619,0.53778076,5.671875,-4.375,0.390625
696,0.87890625,-0.07745361,0.5595093,3.71875,-3.484375,-1.734375
697,0.8977051,-0.058410645,0.56781006,-1.4375,-2.265625,-2.171875
698,0.83984375,-0.06109619,0.55096436,-2.4375,-4.3125,-2.6875
699,0.8754883,-0.06329346,0.5717163,-4.65625,-3.15625,-1.8125
700,0.8684082,-0.06744385,0.54681396,-4.09375,-1.25,-1.296875
701,0.8496094,-0.046691895,0.56536865,-3.03125,-1.546875,-0.578125
702,0.8647461,-0.050842285,0.56170654,-2.59375,-3.71875,1.125
703,0.8613281,-0.050354004,0.5668335,-2.953125,-4.328125,1.5
704,0.84106445,-0.03692627,0.572937,-2.5,-4.3125,1.75
705,0.84228516,-0.046203613,0.5817261,-2.0,-4.328125,2.40625
706,0.8227539,-0.027160645,0.5997925,-0.25,-6.1875,3.953125
707,0.82836914,-0.008605957,0.5932007,-0.734375,-6.359375,4.359375
708,0.82836914,-0.05596924,0.5895386,4.484375,-9.984375,7.71875
709,0.8222656,-0.06549072,0.47381592,-5.453125,-24.0,8.265625
710,0.97387695,-0.074035645,0.7572632,-12.375,-25.203125,14.09375
711,0.7824707,-0.07281494,0.61517334,-12.375,-8.84375,3.671875
712,0.79003906,0.05218506,0.7453003,-2.421875,-5.34375,1.625
713,0.7355957,0.054382324,0.6793823,3.6875,-1.296875,-2.03125
714,0.765625,0.08758545,0.6293335,7.859375,-10.453125,-2.859375
715,0.7861328,0.044128418,0.69036865,7.90625,-16.890625,2.296875
716,0.75268555,-0.023986816,0.7477417,9.4375,-12.140625,5.46875
717,0.70214844,-0.0032348633,0.7963257,9.328125,-8.578125,5.03125
718,0.6999512,0.0038452148,0.72991943,-0.765625,-7.015625,7.625
719,0.65966797,-0.0025024414,0.7189331,0.421875,1.4375,5.296875
720,0.7133789,0.010925293,0.789978,2.140625,-3.21875,3.5625
721,0.62719727,0.0006713867,0.7748413,0.890625,-6.3125,4.78125
722,0.65356445,-0.011047363,0.77215576,9.640625,0.0625,1.4375
723,0.7583008,0.047790527,0.75042725,0.65625,1.671875,3.234375
724,0.6965332,-0.023742676,0.75457764,-2.265625,7.109375,3.953125
725,0.7158203,-0.020324707,0.7379761,0.046875,12.984375,3.515625
726,0.7849121,0.014343262,0.7184448,2.140625,7.921875,0.578125
727,0.7036133,0.014343262,0.7218628,5.65625,4.484375,-4.0
728,0.8261719,0.016052246,0.7369995,1.203125,-5.96875,-4.375
729,0.74609375,-0.038635254,0.71868896,-1.90625,2.734375,-4.078125
730,0.77319336,0.00018310547,0.7094116,-0.0625,9.015625,-3.546875
731,0.7595215,-0.0025024414,0.7015991,1.25,10.03125,-4.09375
732,0.7854004,-0.0068969727,0.6876831,2.3125,5.15625,-4.34375
733,0.78686523,-0.017150879,0.70965576,4.046875,2.453125,-5.703125
734,0.8208008,-0.035461426,0.7211304,3.625,2.234375,-6.15625
735,0.81274414,-0.04498291,0.6762085,-0.640625,2.03125,-6.515625
736,0.8132324,-0.06524658,0.6586304,-4.078125,-0.015625,-6.859375
737,0.79125977,-0.10406494,0.66693115,-6.078125,0.59375,-3.46875
738,0.7988281,-0.06060791,0.6859741,-3.546875,3.03125,-1.1875
739,0.77856445,-0.04547119,0.6835327,-2.609375,4.640625,-0.265625
740,0.77368164,-0.02911377,0.668396,-2.90625,6.15625,-0.421875
741,0.7927246,-0.031311035,0.66522217,-1.734375,5.78125,0.0
742,0.78393555,-0.03277588,0.65618896,-0.640625,5.609375,0.296875
743,0.7961426,-0.034973145,0.65740967,-0.984375,4.96875,-0.171875
744,0.82128906,-0.042297363,0.65179443,-1.140625,5.390625,0.46875
745,0.82714844,-0.03692627,0.63616943,-1.171875,5.109375,0.453125
746,0.82250977,-0.047912598,0.6325073,-1.921875,3.65625,0.65625
747,0.83569336,-0.051330566,0.6117554,-1.921875,2.265625,0.90625
748,0.83203125,-0.055480957,0.5968628,-1.53125,-0.984375,1.765625
749,0.85009766,-0.0413208,0.60736084,0.421875,-4.0625,2.484375
750,0.84155273,-0.03668213,0.6154175,0.125,-7.03125,3.0625
751,0.80810547,-0.030334473,0.6461792,1.703125,-11.25,5.234375
752,0.779541,-0.009338379,0.7040405,5.625,-21.75,9.578125
753,0.8183594,-0.0335083,0.638855,5.09375,-25.90625,8.390625
754,0.75341797,-0.043273926,0.71795654,2.546875,-15.390625,8.09375
755,0.7072754,-0.019348145,0.7597046,-1.203125,-3.421875,9.71875
756,0.6960449,0.03314209,0.60736084,-6.078125,1.984375,9.25
757,0.7224121,0.038757324,0.70184326,2.015625,7.265625,3.75
758,0.751709,0.018981934,0.7145386,3.65625,1.859375,0.015625
759,0.7495117,-0.04547119,0.72698975,6.484375,2.40625,-3.703125
