sample_no,accel_x,accel_y,accel_z,gyro_x,gyro_y,gyro_z
0,0.5498047,-0.32574463,-0.48809814,-4.015625,-11.828125,-0.859375
1,0.65893555,-0.42608643,-0.5720825,-2.296875,5.796875,-0.984375
2,0.7114258,-0.43048096,-0.505188,1.78125,7.0625,1.71875
3,0.734375,-0.41729736,-0.5388794,-2.796875,-6.984375,-0.265625
4,0.59887695,-0.42242432,-0.44659424,-0.71875,-1.359375,-3.171875
5,0.60424805,-0.4216919,-0.42608643,-4.515625,-6.390625,-6.375
6,0.65649414,-0.41119385,-0.6030884,-7.5625,-4.515625,-4.578125
7,0.7531738,-0.456604,-0.5930786,-6.5,7.1875,-2.390625
8,0.90893555,-0.4055786,-0.77960205,-4.5625,2.625,-2.90625
9,0.71899414,-0.44683838,-0.600647,6.421875,1.5625,-0.34375
10,0.63549805,-0.46539307,-0.5352173,1.3125,-6.234375,-0.171875
11,0.5925293,-0.42437744,-0.44659424,1.765625,0.65625,1.765625
12,0.5637207,-0.4451294,-0.44366455,-0.375,1.984375,2.328125
13,0.6916504,-0.43951416,-0.6104126,-6.390625,-11.703125,0.71875
14,0.73095703,-0.40704346,-0.57476807,1.5625,5.734375,3.578125
15,0.74975586,-0.39849854,-0.63604736,3.90625,-7.84375,2.3125
16,0.7011719,-0.41241455,-0.58477783,6.21875,-8.84375,2.4375
17,0.70532227,-0.42218018,-0.51348877,7.71875,-2.234375,4.03125
18,0.72998047,-0.44317627,-0.63287354,-2.609375,-19.65625,7.546875
19,0.7219238,-0.33013916,-0.5288696,3.328125,7.5625,4.53125
20,0.6044922,-0.49127197,-0.37384033,1.921875,5.25,1.1875
21,0.57470703,-0.3357544,-0.42218018,-6.359375,-3.796875,-2.125
22,0.62890625,-0.4151001,-0.51348877,-10.421875,-4.609375,-2.796875
23,0.8273926,-0.39752197,-0.61260986,-4.625,1.796875,0.671875
24,0.7583008,-0.48565674,-0.5718384,-0.359375,3.09375,-0.1875
25,0.71850586,-0.4102173,-0.5237427,2.96875,3.5625,0.984375
26,0.66308594,-0.39996338,-0.54034424,-4.5625,-0.28125,0.40625
27,0.7211914,-0.34527588,-0.61309814,-1.453125,-0.671875,0.65625
28,0.65356445,-0.47247314,-0.45928955,2.671875,7.59375,3.390625
29,0.6508789,-0.39068604,-0.44000244,2.65625,0.21875,-1.484375
30,0.5786133,-0.42730713,-0.53912354,-10.265625,-9.625,0.1875
31,0.8005371,-0.40216064,-0.60650635,-1.953125,8.1875,-0.1875
32,0.7253418,-0.442688,-0.5762329,0.640625,-1.546875,1.53125
33,0.71655273,-0.39337158,-0.5628052,1.734375,0.84375,-0.421875
34,0.673584,-0.41436768,-0.5784302,-3.375,-6.5,1.109375
35,0.7380371,-0.36138916,-0.57110596,2.59375,6.5625,-0.0625
36,0.5966797,-0.4841919,-0.42315674,0.953125,8.84375,1.109375
37,0.56030273,-0.3526001,-0.47686768,-5.34375,-13.5625,-1.265625
38,0.6057129,-0.44293213,-0.48101807,-1.359375,-2.28125,-5.0625
39,0.73535156,-0.4258423,-0.47320557,-5.53125,5.65625,-5.109375
40,0.81274414,-0.4397583,-0.6939087,-4.0,-3.359375,-2.53125
41,0.7607422,-0.46661377,-0.67144775,5.140625,7.578125,-0.875
42,0.69262695,-0.43243408,-0.5210571,2.046875,-0.953125,-0.984375
43,0.68188477,-0.45318604,-0.51446533,1.5625,-3.265625,-0.765625
44,0.611084,-0.38580322,-0.55548096,-1.625,-9.828125,0.765625
45,0.6237793,-0.4282837,-0.4883423,5.796875,9.421875,1.8125
46,0.6296387,-0.4151001,-0.5027466,-0.203125,-3.6875,-0.71875
47,0.63842773,-0.4385376,-0.5835571,-2.046875,10.625,0.28125
48,0.73706055,-0.39630127,-0.5564575,7.453125,20.96875,1.015625
49,0.5966797,-0.4854126,-0.64385986,2.640625,-3.515625,-2.515625
50,0.72265625,-0.3345337,-0.6506958,5.828125,8.203125,1.875
51,0.6464844,-0.40533447,-0.6699829,-2.484375,-5.53125,1.71875
52,0.67529297,-0.39215088,-0.5991821,1.140625,-13.109375,-2.0625
53,0.6447754,-0.36505127,-0.5640259,5.453125,-17.3125,0.0
54,0.7390137,-0.41949463,-0.6416626,-1.859375,-25.15625,-0.78125
55,0.7463379,-0.4043579,-0.5352173,5.515625,-8.890625,0.671875
56,0.6176758,-0.43023682,-0.51397705,2.609375,-10.875,3.46875
57,0.7817383,-0.3652954,-0.55718994,0.0625,-3.796875,3.34375
58,0.6999512,-0.3880005,-0.64141846,-2.875,-17.75,11.921875
59,0.8322754,-0.36895752,-0.56988525,-2.1875,2.53125,2.65625
60,0.6413574,-0.43292236,-0.4529419,3.390625,13.765625,10.578125
61,0.62597656,-0.4368286,-0.36773682,-2.296875,5.84375,-4.53125
62,0.58081055,-0.34918213,-0.40142822,-7.109375,-2.828125,-3.6875
63,0.6765137,-0.37530518,-0.54644775,-10.265625,-5.171875,-2.5
64,0.7800293,-0.39752197,-0.5757446,-3.0625,6.171875,-2.625
65,0.81689453,-0.42486572,-0.5889282,-7.1875,-0.203125,-2.359375
66,0.7312012,-0.42437744,-0.5586548,2.140625,6.421875,0.078125
67,0.6801758,-0.39215088,-0.50128174,-0.296875,1.3125,-0.25
68,0.65112305,-0.3826294,-0.53375244,-2.84375,-3.96875,0.25
69,0.70043945,-0.39801025,-0.56207275,-2.703125,1.84375,1.671875
70,0.72314453,-0.4319458,-0.61138916,-6.0,-5.390625,1.46875
71,0.86938477,-0.37408447,-0.659729,-0.78125,1.046875,3.0625
72,0.71972656,-0.364563,-0.47564697,6.28125,21.828125,10.609375
73,0.5410156,-0.4500122,-0.27911377,8.4375,8.96875,0.703125
74,0.47998047,-0.3369751,-0.44854736,-12.125,-17.765625,-4.59375
75,0.6652832,-0.38433838,-0.5615845,-10.796875,6.453125,-1.484375
76,0.8137207,-0.53302,-0.6746216,-0.84375,4.625,-2.21875
77,0.86865234,-0.36920166,-0.67926025,1.0625,-4.859375,-0.640625
78,0.67944336,-0.4265747,-0.54400635,8.40625,3.640625,2.796875
79,0.59155273,-0.37652588,-0.4607544,1.25,-0.578125,0.4375
80,0.6699219,-0.39361572,-0.5952759,-11.0,-9.359375,1.078125
81,0.8051758,-0.37384033,-0.6240845,1.015625,8.15625,0.8125
82,0.670166,-0.4883423,-0.44073486,9.15625,18.359375,3.703125
83,0.5883789,-0.32305908,-0.43170166,-2.9375,-10.84375,-3.171875
84,0.59350586,-0.4138794,-0.56988525,-9.53125,-11.859375,-2.640625
85,0.73706055,-0.41607666,-0.5874634,4.6875,12.234375,-0.390625
86,0.7089844,-0.42877197,-0.5081177,4.5,-2.0625,-4.671875
87,0.58813477,-0.41241455,-0.458313,6.140625,-12.171875,-5.453125
88,0.5407715,-0.37628174,-0.43804932,-2.0,-1.734375,-6.109375
89,0.65283203,-0.44439697,-0.47711182,-5.40625,2.796875,-3.96875
90,0.67700195,-0.40655518,-0.6296997,-8.234375,6.6875,-0.328125
91,0.8708496,-0.42926025,-0.7024536,6.703125,14.234375,3.453125
92,0.7363281,-0.4055786,-0.6567993,6.125,21.96875,6.75
93,0.6503906,-0.42926025,-0.6296997,5.078125,13.578125,-5.078125
94,0.62402344,-0.37677002,-0.5935669,3.09375,11.109375,-9.0625
95,0.5419922,-0.40216064,-0.58306885,6.171875,11.40625,0.5
96,0.61376953,-0.39874268,-0.68756104,4.65625,12.515625,-0.234375
97,0.5773926,-0.3977661,-0.7329712,5.453125,-5.953125,2.640625
98,0.6645508,-0.3838501,-0.7300415,-1.0625,-8.3125,-1.34375
99,0.62280273,-0.39801025,-0.7124634,-2.828125,-22.8125,-2.921875
100,0.69189453,-0.36236572,-0.6223755,3.671875,-26.953125,-0.09375
101,0.66430664,-0.41241455,-0.6201782,5.0,-21.4375,2.140625
102,0.6743164,-0.39971924,-0.58966064,2.578125,-18.84375,3.140625
103,0.6911621,-0.35406494,-0.63238525,1.28125,-17.484375,8.453125
104,0.80029297,-0.36358643,-0.5979614,-0.890625,-3.09375,1.078125
105,0.6376953,-0.32110596,-0.4697876,-3.34375,9.9375,14.5
106,0.62109375,-0.43707275,-0.38775635,-4.125,7.3125,-0.6875
107,0.57250977,-0.3867798,-0.4290161,-9.515625,-5.09375,-0.21875
108,0.5690918,-0.4121704,-0.52667236,-13.046875,-0.78125,-4.8125
109,0.65283203,-0.4343872,-0.43511963,-5.390625,7.734375,-5.125
110,0.7434082,-0.39971924,-0.5178833,-2.703125,9.015625,-3.8125
111,0.6242676,-0.38482666,-0.56915283,1.140625,14.796875,-2.15625
112,0.75878906,-0.35845947,-0.75006104,9.625,36.3125,5.703125
113,0.67407227,-0.37457275,-0.692688,13.828125,30.53125,4.984375
114,0.6281738,-0.38336182,-0.7329712,5.21875,14.796875,1.28125
115,0.6135254,-0.38433838,-0.7107544,1.125,9.21875,-0.890625
116,0.59594727,-0.3567505,-0.73638916,-0.140625,-7.078125,-3.9375
117,0.6166992,-0.32159424,-0.6589966,-3.390625,-9.6875,-1.0
118,0.60424805,-0.35406494,-0.69903564,-1.203125,-16.765625,-4.234375
119,0.65527344,-0.37701416,-0.6843872,-1.296875,-29.828125,-2.453125
120,0.7553711,-0.33428955,-0.74420166,0.390625,-40.71875,0.09375
121,0.7883301,-0.30499268,-0.68829346,9.984375,-39.140625,2.75
122,0.72436523,-0.42266846,-0.48980713,-5.40625,7.15625,9.765625
123,0.5554199,-0.39678955,-0.34552002,-2.46875,9.921875,5.703125
124,0.5373535,-0.33599854,-0.4866333,-12.5625,-10.890625,4.1875
125,0.6164551,-0.4385376,-0.53570557,-7.203125,4.140625,-3.25
126,0.76416016,-0.4282837,-0.59161377,-9.296875,-4.421875,0.25
127,0.79785156,-0.3809204,-0.6502075,-4.171875,-1.546875,-0.6875
128,0.74194336,-0.3538208,-0.5598755,4.296875,3.546875,0.984375
129,0.6765137,-0.36895752,-0.6033325,-3.375,-11.359375,-0.625
130,0.8625488,-0.29571533,-0.64678955,-1.03125,2.328125,-1.625
131,0.64746094,-0.3880005,-0.4163208,7.0625,19.0625,6.703125
132,0.5354004,-0.41241455,-0.32110596,1.890625,2.390625,-2.34375
133,0.49682617,-0.3274536,-0.48614502,-12.234375,-20.09375,-2.9375
134,0.7060547,-0.45880127,-0.5967407,-4.671875,8.9375,-1.890625
135,0.83154297,-0.43927002,-0.6043091,-3.71875,-0.78125,0.75
136,0.7758789,-0.37652588,-0.6460571,2.1875,-0.875,0.828125
137,0.6801758,-0.3760376,-0.55255127,2.3125,1.671875,0.578125
138,0.6574707,-0.3772583,-0.5459595,-1.21875,1.125,2.15625
139,0.73706055,-0.37921143,-0.70684814,-13.640625,-9.484375,-1.53125
140,0.7155762,-0.38580322,-0.53863525,7.0,25.984375,4.5625
141,0.6713867,-0.43243408,-0.40460205,3.203125,8.40625,-0.296875
142,0.532959,-0.33892822,-0.50006104,-10.65625,-18.765625,-1.265625
143,0.63183594,-0.42437744,-0.61138916,-3.453125,1.34375,-0.1875
144,0.76171875,-0.43927002,-0.5708618,1.09375,8.296875,-1.296875
145,0.74780273,-0.394104,-0.57525635,-4.296875,-8.578125,-1.640625
146,0.6442871,-0.40631104,-0.56622314,-4.8125,-3.671875,-3.140625
147,0.61621094,-0.37774658,-0.4697876,4.03125,7.453125,-8.953125
148,0.5588379,-0.43829346,-0.43829346,-2.203125,-3.796875,-6.59375
149,0.6040039,-0.4072876,-0.5388794,-1.09375,-5.125,-4.421875
150,0.65063477,-0.44195557,-0.57598877,-0.421875,0.765625,-0.25
151,0.8095703,-0.38287354,-0.7156372,9.53125,0.203125,-1.796875
152,0.68969727,-0.43341064,-0.6174927,18.46875,23.15625,7.125
153,0.65478516,-0.38189697,-0.66070557,11.453125,33.234375,5.296875
154,0.6113281,-0.36383057,-0.71661377,9.953125,21.40625,3.015625
155,0.5944824,-0.3706665,-0.69610596,4.546875,10.171875,0.8125
156,0.58154297,-0.37774658,-0.6885376,5.28125,6.71875,2.359375
157,0.6303711,-0.3196411,-0.7827759,-0.578125,-3.21875,-0.265625
158,0.6032715,-0.35723877,-0.7156372,-3.59375,-10.546875,-3.765625
159,0.6220703,-0.36065674,-0.7424927,-6.734375,-22.53125,-5.21875
160,0.6953125,-0.34869385,-0.6694946,-1.140625,-32.296875,-4.078125
161,0.6394043,-0.38580322,-0.6692505,1.796875,-30.734375,0.8125
162,0.69384766,-0.3953247,-0.62823486,-2.640625,-20.65625,4.25
163,0.6538086,-0.33599854,-0.6240845,0.84375,-25.046875,6.140625
164,0.75683594,-0.31988525,-0.5786743,-3.875,2.203125,4.203125
165,0.63964844,-0.38311768,-0.4697876,-3.40625,4.0,6.109375
166,0.6340332,-0.4331665,-0.42388916,-6.8125,3.5,-1.4375
167,0.58984375,-0.36505127,-0.47174072,-9.5625,-4.484375,-3.3125
168,0.6616211,-0.3718872,-0.579895,-9.4375,0.265625,-3.390625
169,0.80444336,-0.39874268,-0.6174927,-7.078125,0.875,-1.171875
170,0.74121094,-0.39605713,-0.6091919,-2.046875,2.953125,-2.28125
171,0.7224121,-0.40338135,-0.56573486,0.515625,5.296875,-0.328125
172,0.64404297,-0.38726807,-0.5261841,-1.796875,-3.125,1.859375
173,0.61621094,-0.3899536,-0.5444946,-4.1875,-1.25,-0.09375
174,0.66796875,-0.3862915,-0.5527954,-0.5625,1.96875,1.1875
175,0.7282715,-0.42242432,-0.65289307,-5.9375,-6.375,0.234375
176,0.86743164,-0.36920166,-0.7070923,0.40625,5.859375,0.46875
177,0.60498047,-0.43707275,-0.40899658,11.453125,17.78125,10.359375
178,0.5908203,-0.38653564,-0.38067627,-2.53125,-4.453125,-5.015625
179,0.48339844,-0.33062744,-0.5601196,-14.84375,-19.203125,-0.328125
180,0.69433594,-0.46392822,-0.5984497,1.5625,13.109375,-2.421875
181,0.8979492,-0.43951416,-0.6104126,-0.375,-5.5,0.5625
182,0.68530273,-0.3735962,-0.5779419,4.421875,-7.6875,-2.453125
183,0.5031738,-0.395813,-0.3789673,6.8125,-2.75,-1.765625
184,0.56640625,-0.4602661,-0.45147705,-8.109375,-14.578125,-6.625
185,0.7248535,-0.34747314,-0.58721924,-8.015625,5.75,1.171875
186,0.79785156,-0.4055786,-0.6309204,1.234375,0.25,1.078125
187,0.7988281,-0.51763916,-0.67633057,3.078125,12.765625,1.484375
188,0.782959,-0.35528564,-0.64801025,2.0625,7.625,-2.890625
189,0.70288086,-0.40020752,-0.62457275,5.546875,-2.40625,-2.78125
190,0.6520996,-0.36016846,-0.6069946,-1.984375,-7.34375,-1.46875
191,0.6804199,-0.40777588,-0.57647705,-0.546875,0.75,0.203125
192,0.6791992,-0.4192505,-0.5405884,-0.046875,-4.640625,1.921875
193,0.60839844,-0.39215088,-0.520813,1.125,-8.21875,1.265625
194,0.6062012,-0.38848877,-0.5071411,6.140625,-1.0,1.90625
195,0.6176758,-0.38653564,-0.50250244,3.6875,-3.375,0.421875
196,0.6904297,-0.41119385,-0.5828247,-0.4375,-1.859375,-0.953125
197,0.7524414,-0.3394165,-0.6057739,0.875,1.34375,0.09375
198,0.69384766,-0.35357666,-0.61187744,2.078125,-4.484375,-1.953125
199,0.65625,-0.38189697,-0.5532837,5.484375,-6.921875,-1.71875
200,0.71972656,-0.39141846,-0.5552368,0.140625,-7.21875,-1.609375
201,0.7319336,-0.39630127,-0.6140747,3.734375,-7.46875,0.234375
202,0.7487793,-0.37261963,-0.5979614,2.625,-7.53125,-0.125
203,0.7182617,-0.36920166,-0.5515747,3.515625,-3.5625,2.921875
204,0.703125,-0.37335205,-0.5623169,-1.03125,-5.625,1.734375
205,0.70874023,-0.3447876,-0.57696533,-1.5,-6.453125,2.796875
206,0.8354492,-0.3345337,-0.6199341,-6.78125,-7.078125,1.765625
207,0.68115234,-0.34332275,-0.46759033,-5.046875,8.109375,10.21875
208,0.62109375,-0.46246338,-0.42144775,-7.5625,2.1875,-0.9375
209,0.6447754,-0.3640747,-0.4258423,-10.828125,3.546875,-4.34375
210,0.6586914,-0.4151001,-0.47979736,-11.375,1.09375,-5.0625
211,0.74658203,-0.37921143,-0.4993286,-3.34375,9.15625,-2.359375
212,0.7102051,-0.4524536,-0.5264282,0.84375,14.484375,1.859375
213,0.76464844,-0.38433838,-0.63726807,-5.140625,0.03125,-1.890625
214,0.7229004,-0.3513794,-0.5730591,5.796875,12.703125,-0.765625
215,0.7585449,-0.4336548,-0.6074829,0.921875,-3.65625,-4.75
216,0.6813965,-0.36016846,-0.6008911,1.65625,-5.046875,-1.828125
217,0.6333008,-0.41290283,-0.5718384,3.078125,0.0625,0.1875
218,0.6843262,-0.3538208,-0.53619385,2.25,-2.703125,-0.734375
219,0.6513672,-0.37652588,-0.55474854,-1.234375,-5.0,-0.234375
220,0.6164551,-0.36236572,-0.5396118,-0.09375,-5.390625,-0.984375
221,0.6574707,-0.4072876,-0.54815674,1.671875,-9.78125,-0.84375
222,0.7265625,-0.42510986,-0.5210571,3.203125,-7.171875,0.5625
223,0.7229004,-0.41558838,-0.57818604,0.578125,-13.921875,2.34375
224,0.7697754,-0.37286377,-0.57647705,0.078125,-12.140625,1.03125
225,0.7216797,-0.41485596,-0.538147,1.75,-6.78125,2.46875
226,0.7470703,-0.35333252,-0.57769775,-1.828125,-16.0625,0.421875
227,0.8601074,-0.3484497,-0.6001587,-5.96875,-4.828125,2.90625
228,0.6279297,-0.3652954,-0.46588135,2.3125,23.515625,14.03125
229,0.6862793,-0.4590454,-0.39215088,-1.4375,15.78125,1.765625
230,0.64453125,-0.38824463,-0.37286377,-8.765625,-0.5,-3.765625
231,0.6608887,-0.3904419,-0.4944458,-12.84375,-14.1875,-4.71875
232,0.79345703,-0.3892212,-0.6030884,-7.53125,3.609375,-1.59375
233,0.8071289,-0.44854736,-0.54693604,0.015625,3.140625,1.5
234,0.7531738,-0.37945557,-0.54278564,0.25,0.09375,0.046875
235,0.68188477,-0.37139893,-0.48712158,3.125,3.640625,1.21875
236,0.66259766,-0.38043213,-0.4907837,-4.328125,-1.890625,0.21875
237,0.8664551,-0.38482666,-0.69903564,-13.390625,-12.359375,-1.484375
238,0.76416016,-0.39996338,-0.52545166,8.265625,24.796875,7.234375
239,0.62231445,-0.48223877,-0.34161377,5.484375,11.125,-1.65625
240,0.53637695,-0.3477173,-0.4163208,-8.90625,-12.5625,-3.953125
241,0.6452637,-0.36065674,-0.5796509,-13.703125,-8.96875,-1.53125
242,0.75878906,-0.50201416,-0.5725708,4.46875,7.75,1.234375
243,0.8769531,-0.3970337,-0.59088135,-1.078125,-4.140625,0.46875
244,0.6711426,-0.41412354,-0.5510864,3.828125,0.765625,-0.1875
245,0.64331055,-0.40777588,-0.45977783,0.75,1.1875,-2.765625
246,0.6879883,-0.41949463,-0.4776001,-3.1875,-2.28125,-4.8125
247,0.7114258,-0.42852783,-0.48687744,-1.8125,4.484375,-6.5
248,0.69262695,-0.4439087,-0.53131104,-4.046875,-3.1875,-6.453125
249,0.7307129,-0.40460205,-0.64068604,-6.3125,-8.671875,-2.625
250,0.69921875,-0.45074463,-0.5774536,3.96875,10.625,0.640625
251,0.6208496,-0.46295166,-0.42999268,0.28125,9.546875,1.015625
252,0.5905762,-0.4356079,-0.46929932,-6.671875,0.25,-0.234375
253,0.5908203,-0.4307251,-0.4668579,-1.453125,9.953125,-0.5625
254,0.6179199,-0.46099854,-0.52423096,1.453125,8.921875,1.78125
255,0.73095703,-0.37652588,-0.6018677,12.390625,9.953125,0.484375
256,0.7390137,-0.40948486,-0.7608032,18.125,13.171875,8.171875
257,0.69921875,-0.3862915,-0.68634033,4.84375,-7.09375,2.625
258,0.6804199,-0.3772583,-0.6260376,-1.34375,-7.421875,-0.484375
259,0.66308594,-0.37750244,-0.5869751,-3.78125,-9.5625,-2.53125
260,0.6826172,-0.39996338,-0.5767212,-3.0,-8.46875,-4.28125
261,0.67456055,-0.40386963,-0.5906372,-3.515625,-12.65625,-4.046875
262,0.71484375,-0.41363525,-0.5930786,3.375,-13.328125,-1.125
263,0.74658203,-0.3731079,-0.56866455,5.21875,-12.453125,-0.8125
264,0.7854004,-0.40289307,-0.68634033,6.0,-30.9375,2.421875
265,0.7927246,-0.3484497,-0.56134033,6.078125,0.5625,6.015625
266,0.5930176,-0.39874268,-0.40167236,-5.828125,5.765625,9.15625
267,0.5854492,-0.44854736,-0.3670044,-9.484375,7.640625,1.53125
268,0.5419922,-0.39923096,-0.36016846,-8.71875,7.90625,-4.984375
269,0.6369629,-0.43463135,-0.47320557,-14.015625,2.015625,-7.296875
270,0.7192383,-0.39923096,-0.4500122,0.0,10.421875,-1.234375
271,0.7116699,-0.48614502,-0.56744385,3.34375,11.640625,0.9375
272,0.68115234,-0.40020752,-0.52667236,6.328125,21.65625,-1.421875
273,0.6855469,-0.36431885,-0.7217407,0.734375,13.515625,-2.265625
274,0.7199707,-0.38946533,-0.66900635,10.640625,17.734375,4.953125
275,0.6623535,-0.42095947,-0.7241821,1.640625,8.40625,1.625
276,0.6582031,-0.37701416,-0.6506958,-1.3125,-1.28125,-1.984375
277,0.592041,-0.42071533,-0.5979614,-0.78125,-2.859375,-5.171875
278,0.6130371,-0.3875122,-0.59991455,1.71875,-2.34375,-0.5625
279,0.6320801,-0.38433838,-0.6199341,1.359375,-0.8125,-0.640625
280,0.6594238,-0.36016846,-0.6248169,0.15625,-4.484375,-1.578125
281,0.6357422,-0.41412354,-0.6213989,1.453125,-9.875,-0.9375
282,0.6604004,-0.39971924,-0.6116333,2.515625,-11.75,-0.015625
283,0.6772461,-0.40289307,-0.6199341,3.25,-7.859375,1.59375
284,0.7023926,-0.36187744,-0.6265259,5.125,-17.125,0.78125
285,0.7219238,-0.4126587,-0.6240845,4.25,-20.40625,2.796875
286,0.7609863,-0.31988525,-0.67681885,4.09375,-32.0625,6.515625
287,0.8395996,-0.33770752,-0.567688,0.640625,-4.0,4.296875
288,0.56689453,-0.41436768,-0.43878174,-7.1875,-4.671875,8.171875
289,0.56591797,-0.45074463,-0.4072876,-9.65625,6.8125,-1.390625
290,0.6081543,-0.36871338,-0.42266846,-12.59375,2.1875,-4.328125
291,0.69677734,-0.3706665,-0.5095825,-8.296875,-2.015625,-3.34375
292,0.78149414,-0.4187622,-0.565979,-5.875,-0.953125,-0.984375
293,0.81274414,-0.40875244,-0.60943604,-5.625,-0.921875,-0.15625
294,0.7741699,-0.43218994,-0.5586548,5.828125,6.703125,2.15625
295,0.6711426,-0.39068604,-0.45562744,2.1875,10.109375,4.234375
296,0.6347656,-0.3682251,-0.4553833,0.71875,1.296875,1.640625
297,0.69262695,-0.41729736,-0.56988525,-9.96875,-6.859375,2.046875
298,0.8952637,-0.36187744,-0.7168579,-9.8125,-13.140625,-1.078125
299,0.6970215,-0.331604,-0.4915161,8.1875,24.34375,12.78125
300,0.66796875,-0.47491455,-0.35455322,8.875,14.046875,0.234375
301,0.47973633,-0.3399048,-0.3772583,-9.140625,-13.5625,-0.828125
302,0.7272949,-0.37628174,-0.616272,-18.09375,-10.09375,-7.171875
303,0.8195801,-0.46881104,-0.56500244,4.21875,3.421875,2.4375
304,0.89160156,-0.39190674,-0.6321411,-2.296875,0.578125,0.8125
305,0.6328125,-0.38067627,-0.49298096,9.484375,8.953125,2.375
306,0.75561523,-0.38531494,-0.5947876,-11.171875,-11.78125,-1.859375
307,0.6516113,-0.33380127,-0.51763916,3.96875,6.875,3.640625
308,0.6538086,-0.44317627,-0.44659424,1.765625,7.6875,-2.796875
309,0.5683594,-0.3477173,-0.5039673,-4.4375,-8.296875,1.171875
310,0.8334961,-0.44537354,-0.5928345,-5.765625,0.6875,-3.53125
311,0.7233887,-0.41973877,-0.5454712,3.65625,-1.265625,1.15625
312,0.6894531,-0.3928833,-0.49346924,5.015625,0.875,-0.6875
313,0.55981445,-0.41119385,-0.41583252,6.015625,-0.6875,-1.421875
314,0.58740234,-0.3887329,-0.42437744,0.828125,3.84375,-8.625
315,0.67285156,-0.39923096,-0.548645,-8.8125,3.8125,-0.84375
316,0.7458496,-0.37139893,-0.60040283,7.21875,10.875,3.6875
317,0.8249512,-0.43096924,-0.6921997,16.453125,32.75,13.0
318,0.7426758,-0.3394165,-0.6983032,2.671875,18.703125,5.203125
319,0.6755371,-0.40509033,-0.6802368,-2.578125,9.6875,-1.875
320,0.5817871,-0.40948486,-0.612854,-5.390625,0.046875,-14.140625
321,0.6027832,-0.2913208,-0.553772,3.578125,9.03125,-0.609375
322,0.5905762,-0.38482666,-0.65216064,7.453125,20.0,0.28125
323,0.6166992,-0.37994385,-0.7017212,8.65625,22.859375,3.09375
324,0.58325195,-0.39068604,-0.73809814,9.4375,15.34375,-10.5625
325,0.564209,-0.3826294,-0.71099854,3.078125,8.78125,-7.875
326,0.5427246,-0.364563,-0.7283325,2.34375,8.484375,-5.390625
327,0.5258789,-0.33721924,-0.7185669,3.53125,7.5,-3.859375
328,0.51904297,-0.28692627,-0.756897,3.28125,5.859375,-3.15625
329,0.49316406,-0.33502197,-0.7485962,4.09375,0.96875,-1.65625
330,0.5410156,-0.30621338,-0.7913208,-0.09375,-12.203125,-5.4375
331,0.53100586,-0.34381104,-0.7581177,7.03125,-29.875,-6.21875
332,0.57666016,-0.36724854,-0.7319946,7.921875,-29.953125,-2.984375
333,0.6508789,-0.34527588,-0.77178955,5.15625,-32.8125,-1.046875
334,0.67407227,-0.31402588,-0.82940674,-1.921875,-64.078125,4.046875
335,0.8005371,-0.3291626,-0.5923462,-4.28125,-29.4375,9.25
336,0.46948242,-0.39849854,-0.48931885,-16.515625,-25.921875,10.171875
337,0.5722656,-0.41558838,-0.4031372,-14.546875,2.703125,-4.515625
338,0.6413574,-0.39678955,-0.4727173,-20.359375,4.890625,-3.84375
339,0.68603516,-0.4006958,-0.5095825,-10.53125,13.09375,-0.890625
340,0.6977539,-0.3735962,-0.53009033,-4.3125,25.546875,-0.71875
341,0.66503906,-0.38311768,-0.6243286,12.609375,31.640625,3.453125
342,0.6508789,-0.333313,-0.69317627,13.328125,32.84375,6.625
343,0.6086426,-0.36846924,-0.7058716,9.796875,28.9375,6.0625
344,0.6032715,-0.34796143,-0.7715454,4.40625,18.640625,2.234375
345,0.56347656,-0.33648682,-0.7588501,1.609375,4.5625,-1.515625
346,0.60424805,-0.28009033,-0.72320557,-1.5,-9.34375,-4.890625
347,0.5822754,-0.32696533,-0.7095337,-1.46875,-12.75,-4.265625
348,0.57250977,-0.3406372,-0.7127075,-0.84375,-21.296875,-5.921875
349,0.6340332,-0.3477173,-0.6765747,0.5625,-26.078125,-5.140625
350,0.67749023,-0.34405518,-0.7485962,-0.546875,-39.25,-4.375
351,0.77685547,-0.3081665,-0.6939087,6.625,-45.65625,3.484375
352,0.6501465,-0.34552002,-0.5064087,-4.296875,-20.984375,2.421875
353,0.65844727,-0.3604126,-0.4524536,-5.5625,-5.765625,-2.9375
354,0.5678711,-0.39093018,-0.42218018,-12.5625,-0.4375,-4.625
355,0.6923828,-0.38702393,-0.52301025,-11.75,-2.328125,-4.0625
356,0.7805176,-0.41290283,-0.5808716,-6.40625,-0.5,-1.890625
357,0.76293945,-0.40020752,-0.5835571,-5.0625,0.546875,2.5
358,0.7182617,-0.3789673,-0.5401001,-1.515625,0.984375,0.828125
359,0.68774414,-0.3567505,-0.53741455,-0.546875,-3.453125,-0.515625
360,0.75,-0.3760376,-0.69366455,-10.5,-18.84375,-0.6875
361,0.8195801,-0.3418579,-0.56378174,-4.84375,-1.140625,-0.015625
362,0.66381836,-0.4006958,-0.41046143,4.671875,17.953125,5.359375
363,0.57592773,-0.40997314,-0.30718994,-2.140625,7.796875,1.109375
364,0.5678711,-0.37554932,-0.4746704,-9.578125,-6.859375,-3.640625
365,0.7355957,-0.42681885,-0.5532837,-3.21875,-1.296875,0.25
366,0.82836914,-0.4175415,-0.64385986,-1.828125,-0.859375,2.359375
367,0.7895508,-0.4036255,-0.5745239,3.75,6.59375,0.5625
368,0.6369629,-0.37872314,-0.48199463,4.03125,4.96875,-0.515625
369,0.6064453,-0.38580322,-0.49835205,-3.875,-0.125,-1.4375
370,0.6923828,-0.40875244,-0.53302,-4.84375,1.453125,-1.953125
371,0.7253418,-0.4356079,-0.54034424,-0.578125,8.421875,-2.765625
372,0.7216797,-0.39337158,-0.61309814,-3.546875,6.09375,-1.59375
373,0.7380371,-0.40533447,-0.6135864,-1.015625,2.484375,2.28125
374,0.7011719,-0.4607544,-0.5274048,1.53125,3.90625,-0.1875
375,0.6279297,-0.3562622,-0.489563,-1.671875,-0.59375,-1.796875
376,0.5554199,-0.3550415,-0.49761963,0.109375,5.671875,2.015625
377,0.6779785,-0.42926025,-0.66900635,-2.578125,10.078125,2.671875
378,0.6862793,-0.37554932,-0.65997314,11.578125,4.640625,5.84375
379,0.7207031,-0.37335205,-0.66119385,5.5,2.21875,3.109375
380,0.7060547,-0.36749268,-0.6499634,-2.78125,-6.703125,-3.5
381,0.7043457,-0.3743286,-0.6240845,0.734375,-17.640625,-3.53125
382,0.68774414,-0.3821411,-0.5923462,5.875,-20.921875,0.015625
383,0.72094727,-0.39434814,-0.68096924,-4.296875,-25.109375,-0.546875
384,0.83325195,-0.34259033,-0.54400635,2.453125,-2.5,1.515625
385,0.55810547,-0.4109497,-0.3904419,-4.484375,8.171875,3.484375
386,0.65722656,-0.39093018,-0.4121704,-5.953125,6.140625,-5.3125
387,0.59155273,-0.3953247,-0.5010376,-11.703125,0.078125,-4.140625
388,0.78125,-0.42633057,-0.631897,-11.78125,-1.6875,-4.25
389,0.77246094,-0.43536377,-0.59869385,-1.703125,4.046875,-0.875
390,0.7182617,-0.40704346,-0.54156494,0.9375,5.71875,2.890625
391,0.61083984,-0.39483643,-0.45611572,-0.265625,-3.015625,2.390625
392,0.6335449,-0.41192627,-0.5269165,-2.375,-4.203125,0.28125
393,0.69311523,-0.40899658,-0.5413208,-2.59375,0.171875,1.703125
394,0.7807617,-0.43267822,-0.70758057,-9.4375,-14.5625,-0.921875
395,0.7531738,-0.395813,-0.56695557,4.375,10.875,3.15625
396,0.5913086,-0.4602661,-0.3579712,5.671875,9.359375,4.625
397,0.6159668,-0.37799072,-0.42633057,-5.953125,-7.234375,-1.265625
398,0.59765625,-0.39898682,-0.53741455,-6.328125,-3.6875,-2.3125
399,0.78393555,-0.4463501,-0.52960205,-4.109375,-2.65625,-2.0
400,0.71118164,-0.4290161,-0.50616455,9.984375,2.21875,2.96875
401,0.6008301,-0.44195557,-0.45684814,9.546875,8.828125,-0.46875
402,0.57373047,-0.36773682,-0.4553833,6.453125,11.5625,1.828125
403,0.6743164,-0.42315674,-0.69244385,-8.40625,10.1875,0.5
404,0.8054199,-0.37823486,-0.5930786,15.796875,36.59375,11.234375
405,0.65625,-0.37945557,-0.7617798,10.375,25.421875,7.4375
406,0.62939453,-0.40020752,-0.69244385,2.203125,14.90625,-3.015625
407,0.6113281,-0.3772583,-0.6921997,0.59375,11.21875,-9.453125
408,0.5883789,-0.35186768,-0.6482544,3.53125,9.328125,-4.453125
409,0.57250977,-0.39361572,-0.6860962,3.3125,9.90625,-5.8125
410,0.5683594,-0.3821411,-0.6939087,4.484375,6.125,-5.296875
411,0.56396484,-0.35186768,-0.7241821,6.203125,7.703125,-2.953125
412,0.53222656,-0.35528564,-0.7005005,7.65625,3.0,-4.140625
413,0.5258789,-0.2852173,-0.7354126,6.90625,-0.03125,-1.953125
414,0.51293945,-0.3106079,-0.76226807,2.421875,-1.953125,-0.84375
415,0.5473633,-0.3352661,-0.7383423,4.78125,-17.078125,-5.15625
416,0.5739746,-0.35455322,-0.7366333,5.515625,-32.171875,-3.203125
417,0.66015625,-0.3196411,-0.7000122,5.859375,-30.203125,-4.140625
418,0.6208496,-0.44903564,-0.7739868,-3.484375,-33.296875,1.46875
419,0.8112793,-0.25689697,-0.6716919,-5.015625,-36.953125,7.609375
420,0.62402344,-0.38848877,-0.54693604,-9.5,-27.84375,12.1875
421,0.56884766,-0.3887329,-0.4746704,-12.1875,-11.015625,-1.109375
422,0.61376953,-0.3748169,-0.4668579,-13.78125,-5.9375,-3.171875
423,0.6933594,-0.41241455,-0.50445557,-13.84375,0.046875,-0.234375
424,0.7175293,-0.39190674,-0.53302,-8.515625,12.015625,2.921875
425,0.65283203,-0.39312744,-0.47418213,0.75,30.734375,5.34375
426,0.6677246,-0.36993408,-0.58135986,9.984375,47.1875,9.171875
427,0.6279297,-0.33892822,-0.7124634,12.3125,45.15625,7.203125
428,0.6230469,-0.3357544,-0.75372314,9.625,28.875,5.46875
429,0.60668945,-0.32110596,-0.8115845,1.96875,13.578125,1.515625
430,0.5666504,-0.38287354,-0.7481079,-6.453125,2.765625,-7.6875
431,0.57177734,-0.2876587,-0.736145,-6.421875,-0.984375,-8.234375
432,0.53637695,-0.30352783,-0.704895,-4.484375,-7.0,-2.59375
433,0.5522461,-0.3032837,-0.7210083,-3.921875,-10.703125,-2.421875
434,0.5925293,-0.3460083,-0.70758057,0.8125,-25.484375,-5.828125
435,0.6347656,-0.36236572,-0.6860962,1.984375,-31.21875,-3.5
436,0.63671875,-0.36553955,-0.6865845,0.953125,-36.171875,-1.03125
437,0.7624512,-0.37652588,-0.6760864,-5.40625,-36.6875,1.15625
438,0.6333008,-0.36138916,-0.553772,-9.40625,-21.4375,1.921875
439,0.6022949,-0.37799072,-0.48394775,-9.71875,-7.265625,1.03125
440,0.5974121,-0.42608643,-0.4397583,-10.390625,-1.390625,-5.71875
441,0.6513672,-0.42926025,-0.4944458,-12.609375,2.96875,-2.328125
442,0.71435547,-0.409729,-0.5618286,-2.90625,8.25,0.5
443,0.76416016,-0.4121704,-0.6724243,-0.59375,4.78125,3.1875
444,0.74560547,-0.38531494,-0.61798096,1.671875,-7.71875,-0.734375
445,0.796875,-0.39239502,-0.6553345,-4.4375,-17.390625,0.75
446,0.6311035,-0.36138916,-0.4656372,6.96875,-1.140625,-0.9375
447,0.5891113,-0.4360962,-0.4043579,-3.640625,5.953125,-1.125
448,0.5905762,-0.36871338,-0.42877197,-2.3125,7.984375,-2.640625
449,0.64990234,-0.44586182,-0.5342407,-6.515625,8.390625,-0.4375
450,0.6870117,-0.41705322,-0.5149536,4.21875,25.609375,2.125
451,0.63183594,-0.42193604,-0.64312744,13.140625,44.4375,7.734375
452,0.6359863,-0.3538208,-0.70513916,15.328125,39.46875,8.203125
453,0.5876465,-0.33721924,-0.7737427,10.0625,28.859375,6.828125
454,0.6035156,-0.29888916,-0.7852173,6.84375,12.359375,3.9375
455,0.54418945,-0.39849854,-0.72735596,2.375,1.125,-3.71875
456,0.5378418,-0.34161377,-0.72784424,0.234375,-1.90625,-6.703125
457,0.54907227,-0.31451416,-0.7349243,-0.390625,-5.71875,-3.078125
458,0.5744629,-0.3242798,-0.74542236,-4.609375,-14.90625,-5.25
459,0.5593262,-0.3616333,-0.72369385,-0.421875,-28.53125,-4.8125
460,0.64404297,-0.36090088,-0.6748657,3.9375,-29.96875,-3.203125
461,0.61328125,-0.35943604,-0.6538696,2.921875,-21.984375,0.453125
462,0.6376953,-0.38555908,-0.6470337,-0.171875,-14.328125,1.359375
463,0.6726074,-0.2979126,-0.62457275,-1.84375,-17.859375,3.296875
464,0.71069336,-0.32696533,-0.6675415,-2.234375,-26.609375,0.40625
465,0.65893555,-0.3731079,-0.645813,-16.03125,-22.625,8.1875
466,0.6542969,-0.4133911,-0.47833252,-7.265625,-6.859375,-3.421875
467,0.6315918,-0.41729736,-0.4385376,-12.328125,-2.828125,-2.75
468,0.68237305,-0.36138916,-0.49102783,-11.640625,-3.15625,-3.140625
469,0.72875977,-0.4216919,-0.5562134,0.578125,-0.34375,-0.609375
470,0.7558594,-0.3875122,-0.5640259,-1.21875,0.234375,1.125
471,0.73535156,-0.3574829,-0.52960205,5.015625,5.28125,0.5
472,0.64941406,-0.3718872,-0.50982666,2.03125,4.796875,3.953125
473,0.67456055,-0.38726807,-0.550354,0.328125,-1.484375,-0.359375
474,0.7277832,-0.35650635,-0.70880127,-6.265625,-20.078125,3.0
475,0.92041016,-0.38116455,-0.6704712,-6.0625,-5.5625,2.671875
476,0.69091797,-0.36505127,-0.458313,4.796875,20.71875,14.265625
477,0.5720215,-0.4187622,-0.31573486,3.484375,4.5,0.4375
478,0.5031738,-0.34039307,-0.4024048,-12.640625,-15.390625,-4.703125
479,0.6999512,-0.3562622,-0.61065674,-11.421875,-5.3125,-2.234375
480,0.8935547,-0.5081177,-0.6358032,-13.0625,-6.359375,1.859375
481,0.8442383,-0.38726807,-0.5877075,2.21875,3.90625,3.265625
482,0.6948242,-0.3880005,-0.49127197,4.640625,7.828125,0.234375
483,0.63305664,-0.34405518,-0.4746704,-0.765625,2.296875,-0.65625
484,0.7636719,-0.3862915,-0.6333618,-13.9375,-6.484375,-4.09375
485,0.7910156,-0.39996338,-0.5120239,5.015625,10.859375,-1.28125
486,0.68530273,-0.41778564,-0.43292236,6.609375,9.671875,-1.53125
487,0.54174805,-0.36016846,-0.45806885,0.0,-7.84375,-1.4375
488,0.61865234,-0.4529419,-0.4727173,-0.34375,1.609375,-3.640625
489,0.66308594,-0.39630127,-0.4463501,5.328125,14.328125,-2.515625
490,0.66552734,-0.4343872,-0.55255127,4.953125,22.765625,-0.1875
491,0.7883301,-0.31378174,-0.68048096,10.75,29.46875,1.546875
492,0.66064453,-0.42681885,-0.7666626,19.15625,40.171875,1.421875
493,0.6401367,-0.39874268,-0.79400635,0.921875,9.75,-3.984375
494,0.59350586,-0.33599854,-0.6668091,1.546875,0.765625,-4.75
495,0.5402832,-0.31524658,-0.7029419,-2.40625,-1.125,-1.8125
496,0.5510254,-0.34210205,-0.64190674,1.734375,0.4375,0.8125
497,0.61621094,-0.33135986,-0.7307739,-2.53125,-3.640625,-0.78125
498,0.59399414,-0.35821533,-0.70318604,-0.46875,-15.109375,-1.46875
499,0.63793945,-0.37335205,-0.6868286,-4.15625,-21.6875,-1.578125
500,0.6628418,-0.3880005,-0.6963501,-1.53125,-29.078125,0.875
501,0.7055664,-0.37652588,-0.6428833,-2.984375,-24.09375,3.65625
502,0.68725586,-0.38360596,-0.7229614,-8.46875,-33.328125,5.890625
503,0.810791,-0.34674072,-0.628479,-10.515625,-24.84375,5.734375
504,0.6347656,-0.3242798,-0.47027588,-7.1875,7.6875,12.03125
505,0.6098633,-0.4307251,-0.37408447,-5.9375,3.609375,-1.09375
506,0.55859375,-0.36212158,-0.3735962,-9.375,-4.46875,-2.546875
507,0.6984863,-0.3555298,-0.51568604,-15.1875,-8.59375,-3.5625
508,0.8129883,-0.4649048,-0.59210205,-6.609375,-8.421875,0.765625
509,0.87841797,-0.40216064,-0.60943604,-3.109375,1.046875,0.96875
510,0.704834,-0.38970947,-0.5029907,7.375,6.84375,1.015625
511,0.62158203,-0.38165283,-0.4505005,0.84375,5.765625,1.375
512,0.7224121,-0.39801025,-0.58062744,-13.4375,-6.0625,-0.75
513,0.8000488,-0.36016846,-0.58551025,-3.5625,2.046875,-1.8125
514,0.7019043,-0.42730713,-0.47906494,2.40625,4.03125,-1.71875
515,0.6706543,-0.37408447,-0.43780518,5.765625,9.125,-0.328125
516,0.51416016,-0.39337158,-0.3616333,6.8125,3.859375,-0.28125
517,0.6816406,-0.42559814,-0.48077393,-0.75,-4.015625,-0.25
518,0.623291,-0.37921143,-0.47686768,5.21875,15.53125,0.34375
519,0.61279297,-0.40679932,-0.4680786,2.109375,24.75,0.25
520,0.8510742,-0.35577393,-0.9224243,13.515625,15.609375,2.59375
521,0.6333008,-0.35943604,-0.72052,20.515625,22.53125,8.28125
522,0.6569824,-0.34429932,-0.7415161,8.0,16.578125,6.3125
523,0.6315918,-0.33184814,-0.69317627,2.0625,7.28125,3.75
524,0.5913086,-0.35406494,-0.66656494,0.3125,15.1875,2.1875
525,0.6047363,-0.3057251,-0.67974854,2.140625,15.515625,2.953125
526,0.5830078,-0.3201294,-0.6799927,7.9375,17.515625,3.328125
527,0.5698242,-0.3081665,-0.74005127,8.421875,17.171875,4.15625
528,0.5488281,-0.28961182,-0.78619385,7.671875,10.09375,1.6875
529,0.56396484,-0.25836182,-0.8147583,0.078125,0.125,-0.625
530,0.55615234,-0.28546143,-0.788147,-5.109375,-13.328125,-5.84375
531,0.5666504,-0.29864502,-0.7202759,-4.265625,-26.203125,-6.515625
532,0.5773926,-0.31988525,-0.7095337,-4.640625,-25.40625,-5.25
533,0.6569824,-0.31817627,-0.7276001,-6.265625,-36.671875,-6.171875
534,0.6574707,-0.32720947,-0.661438,-6.453125,-35.09375,-5.03125
535,0.7062988,-0.3484497,-0.6272583,-2.046875,-26.25,-2.484375
536,0.65283203,-0.3394165,-0.52960205,0.96875,-16.25,0.75
537,0.6594238,-0.34381104,-0.55059814,-2.1875,-12.015625,-0.4375
538,0.6958008,-0.35211182,-0.5623169,-1.625,-8.3125,0.734375
539,0.72265625,-0.33868408,-0.5840454,-3.703125,-8.203125,0.171875
540,0.765625,-0.31671143,-0.6240845,-4.453125,-17.203125,2.640625
541,0.76586914,-0.29693604,-0.5274048,-2.453125,-14.46875,-2.53125
542,0.71313477,-0.35650635,-0.5227661,-6.4375,7.1875,3.8125
543,0.6340332,-0.40826416,-0.38433838,-7.984375,7.765625,-3.140625
544,0.62719727,-0.34454346,-0.45513916,-9.96875,-2.421875,-4.59375
545,0.71533203,-0.34698486,-0.5105591,-7.6875,-0.390625,-4.53125
546,0.7080078,-0.42681885,-0.5432739,-2.5,-0.6875,-3.25
547,0.83032227,-0.41607666,-0.6223755,-6.671875,2.265625,-1.46875
548,0.7631836,-0.42510986,-0.58599854,3.078125,6.078125,0.453125
549,0.7084961,-0.364563,-0.5210571,0.265625,7.453125,-0.40625
550,0.6262207,-0.35772705,-0.47662354,4.78125,3.671875,-0.328125
551,0.64868164,-0.3892212,-0.5249634,-3.46875,0.734375,-2.171875
552,0.73291016,-0.39971924,-0.61260986,-1.46875,0.8125,-1.203125
553,0.8083496,-0.41778564,-0.7620239,-10.3125,-13.09375,-1.734375
554,0.767334,-0.38555908,-0.55352783,3.796875,4.203125,0.125
555,0.5944824,-0.41436768,-0.40631104,3.625,8.234375,3.8125
556,0.52368164,-0.37457275,-0.36920166,-0.359375,-0.015625,-1.28125
557,0.5595703,-0.38238525,-0.48931885,-7.0,-9.5625,-1.734375
558,0.6657715,-0.3809204,-0.46246338,3.8125,-1.5,0.125
559,0.7595215,-0.44488525,-0.67144775,0.875,3.8125,2.953125
560,0.65283203,-0.39117432,-0.5405884,5.734375,5.578125,4.03125
561,0.66552734,-0.39337158,-0.65753174,2.75,6.765625,3.984375
562,0.7727051,-0.3098755,-0.50567627,6.734375,26.046875,6.78125
563,0.6254883,-0.36090088,-0.5874634,21.59375,33.765625,8.671875
564,0.6657715,-0.30499268,-0.6929321,20.09375,47.96875,8.421875
565,0.5925293,-0.28863525,-0.7871704,14.9375,35.90625,5.359375
566,0.5715332,-0.28375244,-0.7710571,10.40625,19.296875,0.59375
567,0.5644531,-0.28497314,-0.8230591,2.859375,11.671875,-3.078125
568,0.5444336,-0.2720337,-0.79522705,-6.375,-3.984375,-4.703125
569,0.5605469,-0.300354,-0.8057251,-9.5,-16.84375,-7.25
570,0.5620117,-0.27545166,-0.81427,-11.5,-34.03125,-8.0625
571,0.6142578,-0.33599854,-0.7739868,-11.96875,-43.53125,-7.453125
572,0.63061523,-0.3513794,-0.6987915,-13.1875,-43.984375,-3.671875
573,0.7194824,-0.30426025,-0.6838989,-14.921875,-42.703125,-0.171875
574,0.64453125,-0.3147583,-0.45440674,-3.0625,-8.65625,-0.6875
575,0.57055664,-0.3838501,-0.3928833,-4.859375,-7.625,-2.9375
576,0.60375977,-0.39239502,-0.45391846,-10.90625,1.515625,-3.53125
577,0.7109375,-0.3706665,-0.54766846,-8.328125,1.1875,-1.953125
578,0.76831055,-0.42877197,-0.6453247,-3.40625,-0.859375,0.09375
579,0.80200195,-0.40045166,-0.6326294,-0.703125,4.265625,1.203125
580,0.65234375,-0.3821411,-0.5261841,1.21875,-0.1875,0.34375
581,0.6520996,-0.36798096,-0.5420532,-1.796875,-2.59375,0.234375
582,0.6347656,-0.38116455,-0.5442505,-1.28125,-0.15625,-0.125
583,0.7077637,-0.39215088,-0.5745239,-3.8125,-3.96875,-1.015625
584,0.7531738,-0.38897705,-0.7529907,-8.015625,-19.140625,1.109375
585,0.8457031,-0.34527588,-0.5576782,5.171875,5.953125,1.953125
586,0.62841797,-0.4524536,-0.42315674,7.84375,13.8125,7.34375
587,0.5324707,-0.35186768,-0.32086182,0.625,-1.125,-3.78125
588,0.48510742,-0.33721924,-0.4805298,-13.765625,-15.59375,-2.875
589,0.7807617,-0.41436768,-0.6170044,-4.234375,6.984375,-0.734375
590,0.8713379,-0.46783447,-0.6802368,-6.703125,-7.421875,0.796875
591,0.80126953,-0.38848877,-0.59259033,8.59375,9.875,1.859375
592,0.62280273,-0.41363525,-0.49224854,0.453125,-1.421875,1.109375
593,0.6335449,-0.35284424,-0.63848877,-6.484375,-8.34375,0.390625
594,0.7158203,-0.36846924,-0.55303955,1.96875,14.265625,2.203125
595,0.73876953,-0.43804932,-0.4385376,4.015625,4.6875,-1.234375
596,0.5793457,-0.33868408,-0.5256958,-8.671875,-15.078125,-1.46875
597,0.63720703,-0.3916626,-0.552063,0.25,4.125,1.53125
598,0.76782227,-0.44317627,-0.54400635,-7.53125,-6.375,0.921875
599,0.7631836,-0.41729736,-0.6211548,-0.96875,1.703125,1.828125
600,0.7475586,-0.40704346,-0.6350708,-3.25,-2.0625,0.546875
601,0.72509766,-0.364563,-0.5315552,6.421875,9.75,0.921875
602,0.6569824,-0.46539307,-0.4414673,0.390625,1.890625,-4.78125
603,0.5957031,-0.28448486,-0.4368286,-2.5625,-15.9375,-4.9375
604,0.48535156,-0.36749268,-0.39361572,2.15625,-1.390625,-3.921875
605,0.69140625,-0.458313,-0.5210571,4.46875,-8.34375,-1.171875
606,0.7260742,-0.38848877,-0.5532837,6.3125,6.84375,5.4375
607,0.82470703,-0.4751587,-0.73931885,-1.25,16.28125,2.71875
608,0.8491211,-0.43634033,-0.7461548,0.03125,9.671875,-0.015625
609,0.70947266,-0.32598877,-0.6079712,6.625,-8.1875,-2.875
610,0.59643555,-0.40509033,-0.5564575,-0.953125,-4.390625,1.84375
611,0.6425781,-0.37408447,-0.5186157,-6.765625,-6.546875,-4.328125
612,0.62109375,-0.33770752,-0.49005127,0.359375,0.203125,2.125
613,0.6875,-0.41558838,-0.50665283,1.390625,2.1875,0.453125
614,0.65112305,-0.36358643,-0.506897,8.359375,8.90625,2.828125
615,0.66845703,-0.40826416,-0.57940674,6.296875,6.53125,0.875
616,0.69750977,-0.33258057,-0.63360596,5.578125,8.578125,1.40625
617,0.70654297,-0.33746338,-0.64141846,6.796875,5.125,1.34375
618,0.6435547,-0.3711548,-0.62506104,7.109375,-3.09375,1.015625
619,0.73950195,-0.35650635,-0.69073486,2.78125,-7.421875,1.0625
620,0.6813965,-0.3604126,-0.6524048,-0.5,-14.0625,0.546875
621,0.7409668,-0.32891846,-0.64385986,-5.78125,-20.96875,-1.625
622,0.73828125,-0.34552002,-0.56573486,2.046875,-20.46875,-0.234375
623,0.69970703,-0.32452393,-0.4890747,0.421875,-12.84375,1.09375
624,0.7199707,-0.36480713,-0.4944458,0.0,-8.875,0.359375
625,0.72265625,-0.3718872,-0.48736572,-3.625,-5.4375,0.453125
626,0.76586914,-0.35528564,-0.5640259,-5.046875,-5.8125,0.171875
627,0.81811523,-0.3496704,-0.58258057,-10.375,-6.921875,0.875
628,0.7241211,-0.2805786,-0.4788208,-7.828125,12.421875,8.90625
629,0.638916,-0.44024658,-0.37652588,-4.984375,11.828125,0.859375
630,0.65185547,-0.34918213,-0.3711548,-7.3125,5.3125,-4.359375
631,0.61328125,-0.3682251,-0.43145752,-10.375,2.234375,-4.84375
632,0.71435547,-0.3682251,-0.47906494,-4.578125,2.546875,-4.125
633,0.6899414,-0.43902588,-0.5195923,4.515625,12.546875,1.03125
634,0.77856445,-0.46099854,-0.65948486,-4.765625,18.5625,2.5
635,0.8195801,-0.36065674,-0.74713135,-10.671875,17.046875,1.640625
636,0.703125,-0.38531494,-0.5923462,-1.484375,7.3125,1.703125
637,0.6269531,-0.41949463,-0.552063,-5.15625,0.28125,-1.84375
638,0.6477051,-0.32989502,-0.5667114,-0.546875,0.328125,0.40625
639,0.6542969,-0.39678955,-0.5081177,5.1875,7.90625,0.625
640,0.63671875,-0.40216064,-0.58306885,12.828125,1.96875,-2.609375
641,0.6088867,-0.3447876,-0.6135864,8.21875,-3.046875,1.015625
642,0.7609863,-0.32989502,-0.6392212,2.46875,0.453125,-0.8125
643,0.64868164,-0.37384033,-0.6616821,8.578125,-10.3125,-0.6875
644,0.765625,-0.32647705,-0.6860962,0.375,-20.03125,-0.65625
645,0.79125977,-0.41558838,-0.7280884,2.5,-28.765625,2.203125
646,0.7573242,-0.33502197,-0.57940674,-5.1875,-27.59375,4.0
647,0.65649414,-0.2883911,-0.47418213,5.953125,0.328125,5.90625
648,0.5810547,-0.44805908,-0.32305908,-5.140625,0.3125,-5.25
649,0.57299805,-0.3501587,-0.36676025,-17.171875,-3.375,-5.109375
650,0.72631836,-0.4126587,-0.48614502,-21.421875,0.78125,-2.46875
651,0.80249023,-0.4031372,-0.5166626,-10.265625,12.4375,-0.78125
652,0.74975586,-0.41290283,-0.5252075,4.78125,25.453125,2.203125
653,0.6755371,-0.411438,-0.55914307,-1.0625,36.390625,0.484375
654,0.66015625,-0.3447876,-0.6201782,1.859375,22.96875,-2.078125
655,0.5974121,-0.3867798,-0.5911255,13.171875,27.40625,2.84375
656,0.63671875,-0.3633423,-0.7017212,15.34375,28.296875,4.78125
657,0.62353516,-0.35601807,-0.72735596,16.5,18.171875,4.34375
658,0.6020508,-0.32989502,-0.72491455,15.765625,6.859375,0.546875
659,0.56396484,-0.31500244,-0.7090454,9.59375,4.34375,0.25
660,0.6220703,-0.2805786,-0.7805786,0.859375,-2.90625,-0.09375
661,0.59228516,-0.30426025,-0.723938,-1.03125,-13.421875,-5.453125
662,0.61499023,-0.317688,-0.73809814,-1.125,-23.484375,-6.375
663,0.66625977,-0.315979,-0.7283325,-3.078125,-32.203125,-7.375
664,0.7194824,-0.33502197,-0.7371216,-5.65625,-38.890625,-1.5625
665,0.6611328,-0.33233643,-0.56573486,-2.578125,-33.15625,3.140625
666,0.77978516,-0.32696533,-0.57891846,-9.453125,-28.578125,2.765625
667,0.5805664,-0.27227783,-0.47979736,-3.0625,-2.140625,9.296875
668,0.70825195,-0.46710205,-0.458313,-10.125,1.5625,-3.25
669,0.6230469,-0.31671143,-0.38360596,-6.03125,4.28125,-2.671875
670,0.5786133,-0.3477173,-0.4360962,-9.96875,-2.6875,-3.515625
671,0.7570801,-0.3320923,-0.58551025,-5.4375,-2.703125,-2.25
672,0.77441406,-0.43951416,-0.57403564,-6.234375,0.75,-2.53125
673,0.7961426,-0.39117432,-0.6026001,-1.09375,3.78125,-1.171875
674,0.67333984,-0.3977661,-0.47711182,3.96875,5.234375,0.25
675,0.5949707,-0.35284424,-0.39849854,4.5,14.1875,-1.359375
676,0.5119629,-0.38604736,-0.3994751,5.109375,8.3125,-2.1875
677,0.703125,-0.34625244,-0.7078247,7.625,11.609375,1.8125
678,0.71850586,-0.35650635,-0.7324829,38.953125,48.8125,15.640625
679,0.7102051,-0.2642212,-0.8740845,18.875,31.828125,11.140625
680,0.6269531,-0.27252197,-0.82598877,2.203125,-7.78125,5.296875
681,0.5876465,-0.33087158,-0.6489868,-8.296875,-17.75,-0.578125
682,0.6394043,-0.23272705,-0.6680298,-5.53125,-8.1875,-2.703125
683,0.64868164,-0.27374268,-0.68341064,-5.234375,-6.125,-4.9375
684,0.6647949,-0.3032837,-0.71881104,-12.03125,-21.015625,-8.21875
685,0.7104492,-0.31671143,-0.64971924,-12.6875,-26.65625,-10.796875
686,0.7451172,-0.36431885,-0.6289673,-6.65625,-27.453125,-8.234375
687,0.7036133,-0.36676025,-0.548645,-0.046875,-16.671875,-2.90625
688,0.6843262,-0.30670166,-0.583313,-10.421875,-31.03125,-0.703125
689,0.80249023,-0.31280518,-0.50616455,0.375,-5.125,-2.4375
690,0.64086914,-0.39215088,-0.3850708,0.265625,7.78125,-2.40625
691,0.56103516,-0.35968018,-0.29962158,-1.96875,1.5625,-4.546875
692,0.6525879,-0.3743286,-0.5186157,-13.859375,-7.671875,-3.453125
693,0.76293945,-0.42095947,-0.56866455,-4.4375,1.34375,-0.890625
694,0.8251953,-0.4451294,-0.644104,-6.546875,-0.953125,2.046875
695,0.76342773,-0.35968018,-0.54400635,6.484375,8.796875,1.953125
696,0.67578125,-0.37677002,-0.5117798,-1.0625,2.359375,0.09375
697,0.66674805,-0.33721924,-0.55963135,-1.25,0.5625,-0.1875
698,0.7824707,-0.37091064,-0.65802,-5.65625,-0.953125,-1.71875
699,0.7531738,-0.40875244,-0.50445557,3.90625,6.578125,-0.078125
700,0.63671875,-0.39605713,-0.43267822,2.09375,6.359375,0.640625
701,0.52197266,-0.35650635,-0.45513916,-5.375,-7.234375,-1.875
702,0.6899414,-0.41778564,-0.56451416,-4.078125,1.578125,-1.375
703,0.80981445,-0.4446411,-0.61260986,-5.296875,-2.84375,1.28125
704,0.73657227,-0.3982544,-0.534729,5.03125,7.546875,1.640625
705,0.5739746,-0.39605713,-0.41656494,9.125,1.34375,0.546875
706,0.5378418,-0.30743408,-0.4578247,1.953125,2.03125,-0.890625
707,0.6652832,-0.40777588,-0.55255127,-0.6875,3.21875,2.09375
708,0.9213867,-0.39630127,-0.7468872,13.65625,16.0,11.078125
709,0.72314453,-0.35479736,-0.67510986,3.921875,9.046875,7.0
710,0.73217773,-0.34381104,-0.6626587,-1.625,-2.984375,1.03125
711,0.6682129,-0.38458252,-0.59259033,-9.609375,-4.109375,-3.046875
712,0.6442871,-0.36090088,-0.5166626,-7.078125,1.828125,-1.21875
713,0.66552734,-0.3369751,-0.53448486,2.59375,12.59375,1.890625
714,0.67211914,-0.39117432,-0.5708618,6.578125,18.59375,2.125
715,0.63720703,-0.36773682,-0.63653564,9.59375,21.875,2.21875
716,0.6413574,-0.3262329,-0.6592407,13.0,23.09375,0.234375
717,0.5878906,-0.32330322,-0.72052,11.5625,18.140625,-1.828125
718,0.592041,-0.30230713,-0.73638916,7.109375,5.484375,-0.640625
719,0.6057129,-0.315979,-0.76812744,-0.203125,-1.640625,-3.46875
720,0.60668945,-0.32769775,-0.7901001,-3.640625,-13.96875,-7.796875
721,0.6657715,-0.32843018,-0.79522705,-7.828125,-39.203125,-9.015625
722,0.76904297,-0.3320923,-0.90826416,-21.953125,-71.609375,1.140625
723,0.8210449,-0.37213135,-0.5276489,-1.375,-14.390625,5.515625
724,0.45751953,-0.3838501,-0.33868408,-3.0625,0.171875,1.21875
725,0.51123047,-0.32891846,-0.348938,-4.828125,2.046875,-3.34375
726,0.53100586,-0.37091064,-0.46417236,-15.078125,-4.453125,-5.703125
727,0.79125977,-0.4060669,-0.6567993,-13.078125,-5.265625,-3.625
728,0.9016113,-0.4710083,-0.6904907,-5.921875,-5.515625,-0.46875
729,0.7651367,-0.40631104,-0.60723877,1.953125,0.765625,0.96875
730,0.6347656,-0.39849854,-0.48980713,-2.578125,4.53125,1.6875
731,0.5800781,-0.35992432,-0.43902588,-3.734375,4.984375,-0.640625
732,0.6784668,-0.43829346,-0.5393677,-10.078125,2.328125,-0.25
733,0.7480469,-0.34429932,-0.6265259,-0.9375,4.65625,-1.6875
734,0.72094727,-0.41729736,-0.58721924,0.65625,1.1875,0.828125
735,0.6374512,-0.4414673,-0.5322876,3.40625,1.765625,0.375
736,0.7758789,-0.41534424,-0.68927,-4.234375,-7.03125,-1.421875
737,0.69311523,-0.3928833,-0.53985596,5.640625,6.46875,5.734375
738,0.6503906,-0.4746704,-0.43048096,-0.75,0.671875,-2.75
739,0.43432617,-0.26763916,-0.4607544,-6.84375,-16.640625,3.03125
740,0.671875,-0.47174072,-0.5808716,-5.296875,3.09375,-3.8125
741,0.8339844,-0.42022705,-0.59039307,-0.375,5.140625,2.640625
742,0.78930664,-0.4524536,-0.6680298,-3.1875,-11.625,0.046875
743,0.67089844,-0.4048462,-0.5437622,4.46875,1.359375,1.625
744,0.69433594,-0.38482666,-0.5679321,-3.09375,-12.671875,-0.84375
745,0.64941406,-0.3887329,-0.50177,6.578125,12.078125,7.46875
746,0.66552734,-0.4126587,-0.4734497,-1.171875,0.015625,-4.109375
747,0.5908203,-0.37286377,-0.46636963,-6.34375,-4.59375,-0.859375
748,0.67285156,-0.4121704,-0.5147095,0.03125,-6.578125,-1.65625
749,0.6604004,-0.49176025,-0.5039673,5.625,-4.453125,1.390625
750,0.72387695,-0.37921143,-0.62823486,0.921875,-0.296875,1.015625
751,0.7336426,-0.3904419,-0.565979,0.65625,14.203125,3.859375
752,0.6862793,-0.40704346,-0.59552,-1.171875,11.296875,-0.234375
753,0.73291016,-0.40386963,-0.6411743,-3.828125,7.859375,-2.28125
754,0.6928711,-0.4024048,-0.5750122,2.109375,12.671875,-0.875
755,0.60424805,-0.42242432,-0.5755005,7.84375,13.828125,-2.65625
756,0.6398926,-0.35845947,-0.6421509,5.875,17.5,-1.765625
757,0.59472656,-0.3760376,-0.6174927,14.140625,18.65625,1.5
758,0.56640625,-0.3665161,-0.7005005,14.390625,15.625,5.859375
759,0.60253906,-0.32598877,-0.67510986,17.140625,16.703125,7.21875
