sample_no,accel_x,accel_y,accel_z,gyro_x,gyro_y,gyro_z
0,0.30029297,-0.13726807,-0.850647,-2.75,-3.03125,1.828125
1,0.27294922,-0.15142822,-0.82281494,-0.140625,0.6875,1.9375
2,0.27075195,-0.09576416,-0.77838135,0.40625,4.390625,2.25
3,0.27783203,-0.17803955,-0.91363525,-0.953125,4.5625,1.390625
4,0.30322266,-0.16046143,-0.92926025,1.234375,7.515625,-0.140625
5,0.2788086,-0.1296997,-0.9517212,1.15625,10.96875,-1.6875
6,0.25708008,-0.13604736,-0.9541626,-0.109375,8.90625,-1.875
7,0.2529297,-0.14190674,-0.972229,-0.859375,6.078125,-1.53125
8,0.2409668,-0.13580322,-0.9729614,0.234375,-4.34375,0.3125
9,0.26757812,-0.13604736,-0.95440674,-2.109375,-10.859375,1.21875
10,0.27392578,-0.14801025,-0.90704346,-1.625,-11.40625,1.53125
11,0.2626953,-0.12042236,-0.87286377,-4.28125,-12.328125,1.234375
12,0.27539062,-0.15264893,-0.85284424,-5.15625,-12.1875,1.59375
13,0.32080078,-0.13946533,-0.9212036,-3.484375,-15.5,1.796875
14,0.32983398,-0.15020752,-0.8335571,-1.28125,-5.90625,1.34375
15,0.34472656,-0.13800049,-0.87823486,-1.703125,-0.296875,0.96875
16,0.32983398,-0.13287354,-0.7918091,0.09375,3.921875,1.359375
17,0.30419922,-0.14312744,-0.87164307,-4.421875,9.28125,2.25
18,0.29956055,-0.20098877,-0.8945923,0.890625,9.125,0.859375
19,0.27685547,-0.16802979,-0.94659424,3.765625,11.390625,-1.390625
20,0.26220703,-0.1326294,-0.90997314,3.140625,8.71875,-1.484375
21,0.27294922,-0.13995361,-0.93756104,-0.015625,6.015625,-1.578125
22,0.2619629,-0.14361572,-0.9446411,-0.453125,5.671875,-1.234375
23,0.2541504,-0.14483643,-0.95147705,0.015625,4.28125,-0.78125
24,0.24609375,-0.14068604,-0.92144775,1.28125,-2.78125,0.6875
25,0.25732422,-0.14801025,-0.93707275,1.796875,-6.375,1.25
26,0.26049805,-0.14117432,-0.913147,1.59375,-7.859375,1.265625
27,0.25,-0.1350708,-0.8789673,0.171875,-6.8125,1.015625
28,0.2680664,-0.12896729,-0.8899536,-2.875,-7.25,0.3125
29,0.2722168,-0.13165283,-0.881897,-3.78125,-7.046875,0.28125
30,0.29711914,-0.13946533,-0.9031372,-3.421875,-6.765625,0.234375
31,0.3017578,-0.13360596,-0.9048462,-3.40625,-12.859375,1.53125
32,0.29345703,-0.12628174,-0.83795166,1.140625,-6.96875,2.46875
33,0.32299805,-0.16021729,-0.89678955,0.296875,0.71875,0.453125
34,0.28833008,-0.13848877,-0.79693604,0.96875,4.375,-0.3125
35,0.29370117,-0.128479,-0.8821411,-3.484375,8.125,-1.171875
36,0.29125977,-0.1560669,-0.927063,-0.484375,9.21875,-0.875
37,0.26708984,-0.14923096,-0.9273071,-0.21875,10.515625,-1.21875
38,0.24902344,-0.14923096,-0.9011841,1.3125,8.71875,-1.1875
39,0.26098633,-0.1428833,-0.95513916,1.21875,5.609375,-0.90625
40,0.26049805,-0.15093994,-0.9678345,1.78125,4.90625,-0.703125
41,0.25146484,-0.144104,-0.9495239,1.9375,3.65625,-0.328125
42,0.23852539,-0.13873291,-0.93585205,1.828125,1.5,0.1875
43,0.22753906,-0.13946533,-0.8999634,1.375,0.46875,0.25
44,0.21704102,-0.12823486,-0.8897095,0.578125,0.359375,0.109375
45,0.2121582,-0.12579346,-0.88116455,-0.03125,0.109375,0.09375
46,0.21459961,-0.13311768,-0.89849854,-1.03125,-0.015625,-0.078125
47,0.2265625,-0.12799072,-0.92681885,-1.578125,-0.359375,-0.34375
48,0.22485352,-0.13360596,-0.94732666,-0.609375,-3.53125,0.265625
49,0.25390625,-0.14141846,-0.9639282,-0.25,-6.40625,0.6875
50,0.26049805,-0.14019775,-0.9573364,0.15625,-7.828125,1.109375
51,0.2512207,-0.13116455,-0.911438,0.75,-4.9375,0.90625
52,0.24536133,-0.13067627,-0.9014282,0.25,-5.046875,0.78125
53,0.25854492,-0.12164307,-0.89141846,-0.859375,-5.65625,0.640625
54,0.25146484,-0.12994385,-0.894104,-0.96875,-4.984375,0.375
55,0.2685547,-0.13165283,-0.9163208,-2.234375,-5.875,0.359375
56,0.27563477,-0.124572754,-0.90875244,-3.609375,-6.546875,0.28125
57,0.28100586,-0.14434814,-0.92266846,-4.203125,-7.015625,0.546875
58,0.29858398,-0.12872314,-0.93756104,-4.75,-13.4375,1.53125
59,0.2680664,-0.1326294,-0.86553955,-0.375,-6.890625,2.09375
60,0.33325195,-0.17120361,-0.8994751,0.484375,-0.15625,0.875
61,0.28442383,-0.1675415,-0.8023071,2.8125,3.578125,0.46875
62,0.26660156,-0.10015869,-0.7781372,-0.109375,6.1875,-0.53125
63,0.29345703,-0.14312744,-0.8870239,-3.078125,8.765625,-1.203125
64,0.27490234,-0.14849854,-0.94610596,-1.109375,9.640625,-1.21875
65,0.24926758,-0.14019775,-0.9060669,0.125,8.734375,-1.515625
66,0.26660156,-0.14141846,-0.97613525,-1.296875,6.125,-1.34375
67,0.26611328,-0.1506958,-0.9956665,0.234375,-6.609375,0.453125
68,0.29174805,-0.15704346,-0.99542236,-0.890625,-7.71875,0.859375
69,0.26538086,-0.144104,-0.89141846,0.953125,-8.140625,1.296875
70,0.2734375,-0.14361572,-0.8928833,-1.796875,-9.265625,0.828125
71,0.2783203,-0.13824463,-0.84454346,-2.421875,-8.5625,1.15625
72,0.26879883,-0.13653564,-0.84332275,-2.96875,-7.421875,0.65625
73,0.28930664,-0.117492676,-0.85284424,-2.59375,-9.4375,1.640625
74,0.32885742,-0.16998291,-0.9138794,-1.5,-4.390625,1.078125
75,0.34765625,-0.14996338,-0.91851807,0.0,-1.140625,1.578125
76,0.30371094,-0.17022705,-0.83966064,3.1875,2.390625,1.359375
77,0.27392578,-0.13360596,-0.80352783,2.9375,6.546875,0.84375
78,0.3010254,-0.15411377,-0.92266846,-0.390625,7.265625,-0.6875
79,0.29174805,-0.15411377,-0.9343872,-1.09375,10.921875,-1.640625
80,0.2607422,-0.12554932,-0.91851807,-0.234375,11.359375,-2.0
81,0.2446289,-0.13873291,-0.92803955,-0.609375,8.90625,-1.75
82,0.25585938,-0.14215088,-0.954895,0.640625,5.671875,-0.859375
83,0.2529297,-0.14263916,-0.9627075,1.40625,3.015625,-0.03125
84,0.24438477,-0.14312744,-0.9529419,0.40625,-0.703125,0.65625
85,0.23461914,-0.14971924,-0.9570923,0.25,-10.765625,1.484375
86,0.26049805,-0.1375122,-0.92022705,-0.234375,-11.625,1.65625
87,0.2409668,-0.13775635,-0.85723877,-3.40625,-11.234375,0.78125
88,0.2680664,-0.13970947,-0.88531494,-6.328125,-10.90625,0.09375
89,0.29418945,-0.13604736,-0.8796997,-4.71875,-8.125,0.171875
90,0.30688477,-0.13043213,-0.88726807,-3.296875,-7.796875,0.84375
91,0.36669922,-0.12896729,-0.92633057,-3.375,-5.09375,1.5
92,0.3605957,-0.2156372,-0.9534302,-1.34375,-3.171875,0.953125
93,0.3322754,-0.13287354,-0.94732666,0.234375,0.5,1.0
94,0.2734375,-0.1675415,-0.77667236,3.390625,4.953125,1.015625
95,0.26220703,-0.1272583,-0.7815552,3.875,7.21875,0.484375
96,0.2854004,-0.13824463,-0.87164307,-1.359375,9.953125,-1.25
97,0.29052734,-0.16290283,-0.9561157,-3.09375,10.765625,-1.953125
98,0.2524414,-0.13946533,-0.9258423,-0.234375,9.640625,-2.109375
99,0.25634766,-0.13995361,-0.95977783,0.578125,6.78125,-1.546875
100,0.26220703,-0.14849854,-0.97247314,2.40625,4.015625,-0.578125
101,0.26000977,-0.15142822,-0.9529419,2.984375,2.46875,0.234375
102,0.25268555,-0.15216064,-0.9356079,2.125,0.390625,0.796875
103,0.2290039,-0.13897705,-0.89678955,1.4375,-0.4375,0.59375
104,0.21801758,-0.12677002,-0.861145,0.375,0.25,0.109375
105,0.21020508,-0.12530518,-0.86724854,-0.890625,0.484375,-0.421875
106,0.21801758,-0.12921143,-0.90093994,-2.109375,-0.875,-0.515625
107,0.22949219,-0.13214111,-0.96954346,-2.015625,-8.859375,0.34375
108,0.27319336,-0.13604736,-0.96539307,-2.203125,-12.859375,1.21875
109,0.26831055,-0.14678955,-0.88726807,-4.484375,-13.59375,0.953125
110,0.29003906,-0.16461182,-0.9429321,-7.84375,-12.25,0.421875
111,0.3059082,-0.15045166,-0.8892212,-4.203125,-8.4375,0.546875
112,0.28173828,-0.1531372,-0.8804321,-2.8125,-4.96875,0.3125
113,0.31347656,-0.13922119,-0.9085083,-3.625,-3.984375,0.359375
114,0.30688477,-0.19439697,-0.86968994,-1.15625,-1.921875,0.328125
115,0.3149414,-0.15826416,-0.9024048,0.1875,-1.484375,0.40625
116,0.32617188,-0.16900635,-0.925354,3.234375,-0.359375,1.015625
117,0.29345703,-0.14849854,-0.8596802,7.078125,2.578125,1.234375
118,0.31762695,-0.13214111,-0.98321533,5.265625,-0.890625,1.421875
119,0.30395508,-0.124572754,-0.90411377,-1.046875,-3.5625,0.5
120,0.2644043,-0.11431885,-0.8374634,-4.46875,-7.109375,0.03125
121,0.28955078,-0.12408447,-0.8274536,-5.109375,-9.0625,1.0
122,0.35327148,-0.19244385,-0.86309814,-1.125,-8.15625,2.109375
123,0.3852539,-0.1651001,-0.9109497,-1.546875,-1.765625,0.53125
124,0.36865234,-0.16119385,-0.9246216,1.0625,2.109375,0.578125
125,0.32543945,-0.13360596,-0.8303833,5.125,6.234375,0.78125
126,0.2487793,-0.109680176,-0.8274536,7.8125,7.5,1.078125
127,0.2692871,-0.11651611,-0.8789673,2.984375,3.296875,0.375
128,0.28955078,-0.11505127,-0.9038696,-0.46875,-0.03125,-0.234375
129,0.29907227,-0.12213135,-0.90753174,-3.09375,-2.484375,-0.578125
130,0.33007812,-0.13482666,-0.95513916,-3.828125,-4.921875,-0.015625
131,0.3486328,-0.11138916,-0.9729614,-4.09375,-8.1875,1.421875
132,0.37768555,-0.1807251,-0.9480591,-0.71875,-6.6875,2.96875
133,0.36035156,-0.16265869,-0.9365845,-1.6875,-0.546875,0.609375
134,0.32983398,-0.15997314,-0.8796997,-0.140625,3.03125,0.5625
135,0.26171875,-0.12945557,-0.74713135,2.28125,4.40625,0.703125
136,0.25,-0.105773926,-0.76226807,1.609375,1.859375,0.15625
137,0.2775879,-0.12188721,-0.8242798,3.171875,-0.296875,0.078125
138,0.30688477,-0.12261963,-0.8928833,-2.453125,3.578125,-1.53125
139,0.31713867,-0.14117432,-0.9326782,-4.375,8.78125,-2.5625
140,0.3100586,-0.14117432,-0.9800415,0.0,8.28125,-1.578125
141,0.32055664,-0.15289307,-1.0359497,3.03125,6.671875,-0.453125
142,0.29589844,-0.14923096,-0.98516846,3.1875,4.515625,-0.015625
143,0.27124023,-0.14385986,-0.92755127,2.03125,4.1875,0.0625
144,0.24023438,-0.12628174,-0.85235596,2.078125,5.15625,-0.375
145,0.22827148,-0.10992432,-0.8567505,0.96875,4.484375,-0.59375
146,0.21484375,-0.10675049,-0.8557739,0.921875,4.09375,-0.671875
147,0.21948242,-0.11431885,-0.88946533,-0.109375,2.859375,-0.703125
148,0.23266602,-0.12286377,-0.940979,-0.984375,1.40625,-0.6875
149,0.24169922,-0.13092041,-0.9741821,-0.5625,0.375,-0.53125
150,0.24975586,-0.13726807,-1.0293579,-0.421875,-7.828125,0.625
151,0.265625,-0.12359619,-0.9841919,1.03125,-12.046875,1.53125
152,0.25073242,-0.12774658,-0.9036255,-0.96875,-11.640625,1.484375
153,0.25708008,-0.12554932,-0.8928833,-5.578125,-11.296875,0.859375
154,0.27124023,-0.11968994,-0.87091064,-4.359375,-9.984375,1.0
155,0.29101562,-0.117004395,-0.87335205,-3.859375,-6.859375,0.796875
156,0.30395508,-0.12945557,-0.8875122,-4.421875,-5.96875,0.4375
157,0.3005371,-0.13360596,-0.913147,-2.9375,-7.875,0.921875
158,0.24145508,-0.124572754,-0.7893677,-1.78125,-4.03125,1.140625
159,0.33276367,-0.18878174,-0.9133911,-3.265625,-1.59375,0.078125
160,0.33618164,-0.14996338,-0.9053345,-0.953125,-0.328125,0.171875
161,0.29052734,-0.14703369,-0.79473877,2.921875,2.796875,0.46875
162,0.29174805,-0.09674072,-0.86676025,4.1875,3.96875,0.359375
163,0.31933594,-0.13116455,-0.94073486,3.734375,-0.84375,0.609375
164,0.3137207,-0.12750244,-0.940979,-1.125,-1.859375,0.0
165,0.31591797,-0.13214111,-0.95806885,-2.84375,-3.640625,-0.0625
166,0.31640625,-0.13336182,-0.8843384,-4.59375,-6.109375,0.34375
167,0.30493164,-0.12945557,-0.8633423,-2.390625,-4.125,1.1875
168,0.3557129,-0.17071533,-0.91290283,-3.453125,-0.203125,-0.1875
169,0.3413086,-0.15411377,-0.90460205,-0.46875,2.625,0.28125
170,0.27734375,-0.1404419,-0.79937744,3.265625,3.953125,0.875
171,0.23852539,-0.113342285,-0.7815552,4.40625,2.359375,0.671875
172,0.26293945,-0.117004395,-0.8345337,1.234375,-1.015625,-0.0625
173,0.29541016,-0.113098145,-0.862854,0.65625,-1.671875,-0.234375
174,0.30859375,-0.12677002,-0.9524536,0.921875,-3.609375,0.109375
175,0.35327148,-0.14385986,-0.9939575,-0.09375,-3.75,0.453125
176,0.35375977,-0.1531372,-0.975647,-1.28125,-3.859375,0.578125
177,0.36157227,-0.13238525,-0.972229,-3.75,-5.53125,0.703125
178,0.33398438,-0.1338501,-0.8833618,-7.734375,-1.53125,0.6875
179,0.34570312,-0.19000244,-0.89971924,-3.28125,1.984375,0.125
180,0.30249023,-0.12750244,-0.8184204,-3.59375,3.15625,-0.5
181,0.26123047,-0.12945557,-0.7583618,0.296875,3.703125,-0.1875
182,0.24975586,-0.12237549,-0.7529907,1.234375,2.0,-0.109375
183,0.2685547,-0.1362915,-0.798645,1.703125,-0.453125,0.328125
184,0.32788086,-0.14508057,-0.9524536,2.046875,1.609375,-0.4375
185,0.3293457,-0.15924072,-0.9834595,-1.734375,4.53125,-1.640625
186,0.34204102,-0.15264893,-1.0315552,-1.4375,6.84375,-1.765625
187,0.32055664,-0.16583252,-0.9990845,2.265625,6.0625,-0.578125
188,0.29174805,-0.15142822,-0.95196533,4.4375,3.75,0.359375
189,0.265625,-0.14117432,-0.8999634,3.34375,2.640625,0.546875
190,0.24365234,-0.11798096,-0.8364868,2.4375,2.390625,0.328125
191,0.2368164,-0.108947754,-0.8557739,0.703125,2.15625,-0.21875
192,0.22436523,-0.105773926,-0.8484497,0.6875,2.75,-0.5
193,0.24536133,-0.11383057,-0.9011841,-0.890625,2.75,-0.828125
194,0.25439453,-0.12261963,-0.92633057,-1.046875,2.015625,-0.734375
195,0.2668457,-0.12554932,-0.95806885,-0.53125,3.4375,-0.828125
196,0.26342773,-0.13604736,-0.9783325,-0.25,2.0,-0.34375
197,0.25,-0.13848877,-0.9463501,0.59375,1.890625,-0.296875
198,0.23242188,-0.13067627,-0.9299927,0.1875,1.609375,-0.234375
199,0.21826172,-0.11505127,-0.89630127,-0.109375,0.28125,-0.125
200,0.21679688,-0.10699463,-0.8831177,-0.6875,-0.59375,-0.3125
201,0.21459961,-0.11529541,-0.89630127,-1.5625,-1.125,-0.203125
202,0.22851562,-0.124572754,-0.92022705,-1.34375,-1.375,-0.328125
203,0.23657227,-0.12017822,-0.9360962,-1.484375,-1.515625,-0.265625
204,0.24438477,-0.13433838,-0.95880127,-1.484375,-1.75,-0.03125
205,0.24145508,-0.13360596,-0.9326782,-1.984375,-2.203125,0.078125
206,0.2397461,-0.13677979,-0.93414307,-2.453125,-1.59375,-0.125
207,0.23876953,-0.12237549,-0.927063,-4.328125,-2.515625,-0.125
208,0.23754883,-0.13580322,-0.9077759,-3.53125,-1.171875,-0.296875
209,0.22802734,-0.13848877,-0.90631104,0.4375,-0.609375,0.09375
210,0.22753906,-0.13287354,-0.89801025,2.171875,-1.40625,0.375
211,0.25463867,-0.14508057,-0.97320557,5.59375,-5.296875,0.921875
212,0.2446289,-0.12579346,-0.9602661,3.125,-9.625,1.75
213,0.27856445,-0.1416626,-0.9492798,-1.125,-11.40625,1.21875
214,0.28588867,-0.12750244,-0.91729736,-3.703125,-7.578125,0.921875
215,0.28857422,-0.1260376,-0.9053345,-3.0625,-7.9375,1.078125
216,0.28588867,-0.12506104,-0.89556885,-0.875,-4.015625,0.984375
217,0.2919922,-0.12628174,-0.8557739,-0.609375,-3.375,0.734375
218,0.28076172,-0.124572754,-0.8772583,-0.15625,-2.0,0.5625
219,0.27734375,-0.10992432,-0.8311157,-4.15625,-3.578125,-0.15625
220,0.27856445,-0.11114502,-0.8213501,-2.921875,-1.671875,0.09375
221,0.28344727,-0.1519165,-0.8833618,-3.8125,-1.65625,-0.5625
222,0.31689453,-0.15826416,-0.9397583,-3.0,-1.078125,-0.34375
223,0.31713867,-0.14239502,-0.9495239,-0.703125,-0.296875,0.375
224,0.32739258,-0.14678955,-0.99713135,1.671875,2.484375,0.546875
225,0.28222656,-0.128479,-0.8699341,2.5625,3.5,0.578125
226,0.29223633,-0.12945557,-0.8467407,1.296875,2.234375,0.1875
227,0.27685547,-0.13140869,-0.8809204,-1.0625,-1.28125,0.21875
228,0.23852539,-0.11383057,-0.81622314,-1.96875,-4.5,0.28125
229,0.25,-0.11431885,-0.8567505,-4.28125,-4.90625,0.25
230,0.33398438,-0.20172119,-0.98028564,-4.484375,-2.5625,-0.609375
231,0.33276367,-0.14923096,-0.9234009,-1.546875,-1.984375,0.359375
232,0.31396484,-0.13238525,-0.86187744,2.609375,0.6875,1.140625
233,0.2746582,-0.12652588,-0.85113525,4.203125,1.921875,1.0625
234,0.2668457,-0.12164307,-0.83184814,2.703125,0.765625,0.609375
235,0.27270508,-0.12799072,-0.89508057,2.53125,1.578125,0.078125
236,0.29296875,-0.13604736,-0.90509033,1.90625,-0.5,-0.015625
237,0.30541992,-0.1404419,-0.93463135,2.109375,-1.71875,0.140625
238,0.33032227,-0.12774658,-0.97662354,1.25,-1.765625,0.25
239,0.31298828,-0.120666504,-0.94903564,0.59375,-2.65625,0.65625
240,0.31640625,-0.11065674,-0.9319458,-0.96875,-4.0,0.46875
241,0.3149414,-0.11993408,-0.9053345,-3.296875,-8.5625,0.609375
242,0.26782227,-0.09893799,-0.8567505,-4.140625,-2.703125,0.671875
243,0.30688477,-0.15631104,-0.8106079,-1.171875,0.28125,0.875
244,0.2932129,-0.15826416,-0.8591919,-1.875,2.109375,-0.40625
245,0.26464844,-0.112854004,-0.7715454,-2.453125,2.296875,-0.984375
246,0.26611328,-0.13092041,-0.8257446,-2.28125,0.171875,-0.765625
247,0.29956055,-0.13360596,-0.89849854,3.375,3.71875,-0.015625
248,0.3005371,-0.14459229,-0.94903564,2.765625,5.71875,-0.734375
249,0.31567383,-0.13458252,-0.9951782,0.828125,6.8125,-1.140625
250,0.30444336,-0.13238525,-1.0025024,1.78125,5.875,-0.71875
251,0.2915039,-0.13336182,-0.9788208,2.828125,2.265625,0.234375
252,0.28222656,-0.12823486,-0.9451294,3.28125,1.609375,0.640625
253,0.25732422,-0.11505127,-0.89434814,2.125,2.390625,0.578125
254,0.24121094,-0.11114502,-0.8521118,0.921875,2.21875,0.140625
255,0.22827148,-0.10479736,-0.85162354,-0.53125,2.0625,-0.46875
256,0.22607422,-0.10015869,-0.87677,-2.34375,1.0625,-0.6875
257,0.24267578,-0.128479,-0.9038696,-3.78125,0.921875,-0.828125
258,0.24633789,-0.12652588,-0.92559814,-4.765625,2.0,-0.984375
259,0.25463867,-0.14459229,-0.96221924,-2.53125,1.484375,-0.390625
260,0.2475586,-0.14385986,-0.95684814,-1.0625,0.96875,0.015625
261,0.25610352,-0.14605713,-0.96295166,-0.328125,0.25,0.140625
262,0.22875977,-0.12530518,-0.927063,1.5625,-2.46875,0.578125
263,0.22216797,-0.11456299,-0.90093994,0.71875,-3.359375,0.6875
264,0.24194336,-0.12872314,-0.92315674,-0.484375,-5.28125,0.53125
265,0.23999023,-0.12237549,-0.9116821,0.5,-4.234375,0.609375
266,0.24560547,-0.12628174,-0.9182739,1.46875,-4.84375,0.84375
267,0.26342773,-0.11920166,-0.92755127,1.65625,-3.921875,0.71875
268,0.26464844,-0.121154785,-0.9246216,0.265625,-4.796875,0.578125
269,0.27246094,-0.117248535,-0.9380493,0.03125,-5.59375,0.65625
270,0.27490234,-0.10455322,-0.9126587,-1.59375,-6.296875,0.59375
271,0.28125,-0.11846924,-0.91290283,-1.84375,-4.546875,0.453125
272,0.27783203,-0.1182251,-0.8843384,-3.84375,-4.5,0.125
273,0.28881836,-0.12335205,-0.8740845,-4.40625,-5.296875,0.265625
274,0.29248047,-0.12652588,-0.90753174,-6.015625,-9.6875,0.46875
275,0.30932617,-0.09820557,-0.83673096,-3.59375,-3.484375,0.15625
276,0.3161621,-0.17364502,-0.87994385,-1.9375,-0.140625,0.25
277,0.3010254,-0.16363525,-0.87677,-0.296875,2.8125,-0.109375
278,0.24633789,-0.13677979,-0.7625122,-0.625,5.375,-0.78125
279,0.28759766,-0.12213135,-0.8870239,-5.890625,5.4375,-2.0
280,0.28735352,-0.14849854,-0.9480591,-0.53125,7.65625,-0.84375
281,0.25634766,-0.14971924,-0.92926025,2.515625,5.484375,-0.265625
282,0.27197266,-0.14508057,-0.9507446,2.5,6.046875,-0.609375
283,0.26660156,-0.14312744,-0.96710205,2.3125,4.03125,-0.40625
284,0.26953125,-0.13677979,-0.958313,2.125,0.5625,0.15625
285,0.25952148,-0.13653564,-0.93536377,1.875,-1.21875,0.578125
286,0.24902344,-0.1296997,-0.90509033,1.46875,-1.234375,0.484375
287,0.24633789,-0.12774658,-0.8987427,1.234375,-2.65625,0.609375
288,0.23876953,-0.11968994,-0.89849854,-0.125,-3.546875,0.328125
289,0.25830078,-0.11212158,-0.8936157,-0.28125,-4.484375,0.4375
290,0.26611328,-0.1194458,-0.8987427,-0.171875,-4.234375,0.46875
291,0.27416992,-0.11651611,-0.90997314,-0.28125,-3.65625,0.546875
292,0.27807617,-0.12164307,-0.9487915,-2.015625,-3.859375,0.3125
293,0.27929688,-0.13433838,-0.93927,-3.9375,-3.90625,-0.015625
294,0.27612305,-0.13189697,-0.90826416,-3.546875,-3.90625,-0.1875
295,0.28051758,-0.1350708,-0.9126587,-3.59375,-4.03125,0.078125
296,0.28198242,-0.1338501,-0.9209595,-4.21875,-8.484375,0.5625
297,0.28393555,-0.12310791,-0.8977661,-6.1875,-3.03125,-0.25
298,0.32641602,-0.18682861,-0.9175415,-2.84375,-1.765625,0.125
299,0.29882812,-0.1663208,-0.87213135,-0.484375,0.5,0.203125
300,0.2553711,-0.1416626,-0.76031494,1.15625,2.71875,-0.046875
301,0.27197266,-0.13482666,-0.8640747,-2.3125,3.046875,-0.71875
302,0.30004883,-0.14996338,-0.9480591,-0.1875,4.71875,-0.546875
303,0.27978516,-0.15704346,-0.93536377,1.328125,6.09375,-0.765625
304,0.28393555,-0.15484619,-0.9636841,2.5,5.703125,-0.578125
305,0.27929688,-0.13922119,-0.9619751,3.078125,4.15625,-0.203125
306,0.27270508,-0.14434814,-0.97442627,2.046875,1.953125,-0.109375
307,0.2578125,-0.13677979,-0.9175415,1.328125,0.828125,0.3125
308,0.24365234,-0.12994385,-0.89019775,0.5625,0.375,0.171875
309,0.24121094,-0.11968994,-0.8743286,0.046875,0.546875,0.0625
310,0.23754883,-0.12628174,-0.89849854,-0.953125,0.484375,-0.03125
311,0.23217773,-0.13189697,-0.8870239,-0.9375,-0.4375,-0.21875
312,0.23950195,-0.1296997,-0.9065552,-0.59375,-1.703125,-0.0625
313,0.2590332,-0.13604736,-0.95269775,-0.4375,-2.53125,0.0
314,0.27514648,-0.13702393,-0.95147705,-0.5,-2.5,0.125
315,0.25683594,-0.13531494,-0.9421997,-0.0625,-3.203125,0.5625
316,0.26782227,-0.1338501,-0.9348755,0.109375,-3.859375,0.59375
317,0.25512695,-0.12701416,-0.90411377,0.359375,-4.453125,0.78125
318,0.25952148,-0.13165283,-0.88848877,-0.21875,-4.734375,0.609375
319,0.26538086,-0.12261963,-0.89434814,-2.359375,-5.328125,0.34375
320,0.27368164,-0.12945557,-0.9116821,-3.265625,-5.703125,0.15625
321,0.29174805,-0.13897705,-0.91119385,-2.53125,-4.75,0.3125
322,0.29101562,-0.1362915,-0.925354,-2.109375,-5.09375,0.4375
323,0.30517578,-0.14361572,-0.9229126,-3.03125,-8.859375,0.65625
324,0.32739258,-0.13043213,-0.9373169,-4.46875,-3.828125,-0.03125
325,0.32495117,-0.1675415,-0.9336548,-2.15625,-0.65625,0.21875
326,0.296875,-0.16314697,-0.85040283,-0.546875,1.75,-0.03125
327,0.24511719,-0.12652588,-0.74053955,1.1875,3.625,-0.265625
328,0.28881836,-0.1362915,-0.87823486,-3.8125,4.546875,-1.296875
329,0.2932129,-0.16241455,-0.9277954,-1.609375,7.125,-1.109375
330,0.28442383,-0.16290283,-0.96881104,1.96875,6.40625,-0.25
331,0.28515625,-0.1519165,-0.96588135,3.296875,6.40625,-0.1875
332,0.28222656,-0.14239502,-0.9649048,2.96875,3.609375,-0.125
333,0.26660156,-0.14239502,-0.95391846,2.03125,1.84375,0.109375
334,0.24853516,-0.13897705,-0.91778564,0.984375,0.421875,0.078125
335,0.24780273,-0.13165283,-0.88946533,0.28125,0.296875,0.1875
336,0.23608398,-0.124572754,-0.8687134,-0.25,-0.0625,-0.078125
337,0.22460938,-0.12823486,-0.8731079,0.25,-1.328125,0.15625
338,0.24731445,-0.13165283,-0.9014282,-0.421875,-3.21875,0.1875
339,0.25390625,-0.12945557,-0.93292236,-0.421875,-3.203125,0.265625
340,0.2709961,-0.13580322,-0.9541626,-0.40625,-4.359375,0.3125
341,0.27514648,-0.13458252,-0.95391846,-0.03125,-3.046875,0.40625
342,0.27612305,-0.12677002,-0.92681885,-0.671875,-3.0625,0.34375
343,0.26367188,-0.12872314,-0.90411377,-0.734375,-3.484375,0.53125
344,0.25463867,-0.12164307,-0.88897705,-1.515625,-4.609375,0.3125
345,0.26757812,-0.12310791,-0.87579346,-1.59375,-4.75,0.34375
346,0.2788086,-0.13336182,-0.8862915,-1.671875,-5.0,0.421875
347,0.28588867,-0.13067627,-0.89971924,-2.078125,-5.96875,0.421875
348,0.3017578,-0.14141846,-0.94000244,-3.796875,-8.53125,0.4375
349,0.32006836,-0.14117432,-0.9151001,-5.9375,-6.078125,-0.203125
350,0.34326172,-0.17266846,-0.9678345,-4.09375,-2.75,-0.296875
351,0.31933594,-0.1585083,-0.87091064,-2.1875,0.375,-0.25
352,0.2927246,-0.15240479,-0.8123169,0.46875,2.546875,-0.015625
353,0.24829102,-0.13043213,-0.77423096,1.96875,4.578125,-0.03125
354,0.28881836,-0.14556885,-0.90338135,-1.40625,4.75,-0.6875
355,0.2849121,-0.15533447,-0.92681885,0.5625,6.8125,-0.53125
356,0.28857422,-0.15338135,-0.9636841,2.171875,3.90625,-0.046875
357,0.28930664,-0.15093994,-0.98101807,2.0,3.4375,-0.25
358,0.27905273,-0.1416626,-0.9717407,2.5,2.125,0.09375
359,0.26733398,-0.13800049,-0.93707275,2.1875,1.125,0.359375
360,0.25952148,-0.13067627,-0.89019775,1.84375,0.578125,0.453125
361,0.24389648,-0.12872314,-0.88360596,0.71875,0.25,0.34375
362,0.23535156,-0.120910645,-0.8648071,-0.015625,-0.390625,0.234375
363,0.24023438,-0.12408447,-0.8689575,-0.234375,-1.265625,0.046875
364,0.24902344,-0.12213135,-0.9026489,-0.4375,-3.5,-0.046875
365,0.2763672,-0.13531494,-0.9512329,-1.796875,-3.375,-0.203125
366,0.2854004,-0.1350708,-0.9607544,-0.765625,-2.640625,0.109375
367,0.27905273,-0.12994385,-0.9468384,-0.546875,-2.515625,0.453125
368,0.2746582,-0.12872314,-0.9212036,-0.1875,-1.921875,0.421875
369,0.2631836,-0.1338501,-0.90216064,-0.828125,-2.140625,0.28125
370,0.26245117,-0.13531494,-0.8855591,-1.546875,-2.703125,0.046875
371,0.26733398,-0.128479,-0.8875122,-1.90625,-2.875,0.15625
372,0.28198242,-0.12945557,-0.91534424,-2.390625,-3.421875,0.109375
373,0.28759766,-0.1350708,-0.9290161,-2.5625,-4.1875,0.265625
374,0.29296875,-0.14190674,-0.93170166,-2.65625,-4.546875,0.28125
375,0.29663086,-0.14019775,-0.9414673,-5.125,-8.359375,0.25
376,0.32299805,-0.1494751,-0.95391846,-5.640625,-4.515625,-0.234375
377,0.34545898,-0.17364502,-0.95269775,-3.9375,-2.296875,-0.171875
378,0.3034668,-0.17340088,-0.8320923,-1.0625,0.21875,0.09375
379,0.27490234,-0.14898682,-0.77227783,0.546875,3.328125,-0.3125
380,0.26660156,-0.14190674,-0.8272095,-1.046875,3.03125,-0.78125
381,0.2927246,-0.15557861,-0.89508057,0.046875,5.234375,-0.578125
382,0.28833008,-0.16290283,-0.9702759,2.125,5.8125,-0.21875
383,0.2939453,-0.15753174,-0.95562744,2.6875,4.203125,-0.234375
384,0.29614258,-0.14898682,-0.9944458,2.71875,3.625,-0.171875
385,0.2758789,-0.14605713,-0.9612427,2.609375,1.9375,0.078125
386,0.2680664,-0.13165283,-0.93048096,1.75,0.53125,0.421875
387,0.25317383,-0.13946533,-0.8982544,1.03125,0.3125,0.265625
388,0.24487305,-0.13116455,-0.87384033,1.0625,0.109375,0.171875
389,0.24633789,-0.1272583,-0.8748169,0.375,0.0625,0.046875
390,0.24511719,-0.1272583,-0.8875122,-0.671875,0.421875,-0.15625
391,0.25683594,-0.13311768,-0.90411377,-1.0,0.3125,0.015625
392,0.25585938,-0.13336182,-0.9290161,0.28125,-0.578125,0.125
393,0.26416016,-0.13555908,-0.95098877,0.875,-1.828125,0.328125
394,0.26513672,-0.13116455,-0.95391846,0.25,-3.1875,0.4375
395,0.26757812,-0.12530518,-0.9307251,-1.0,-3.984375,0.328125
396,0.2602539,-0.13189697,-0.9143677,-0.84375,-3.71875,0.25
397,0.26098633,-0.120666504,-0.8850708,-1.046875,-4.0,0.328125
398,0.26660156,-0.12530518,-0.8977661,-1.296875,-3.25,0.359375
399,0.2709961,-0.13067627,-0.892395,-0.8125,-3.6875,0.5
400,0.28271484,-0.12384033,-0.90802,-1.578125,-3.53125,0.296875
401,0.29248047,-0.14141846,-0.9248657,-1.71875,-3.515625,0.296875
402,0.28955078,-0.13726807,-0.91534424,-1.625,-3.03125,0.21875
403,0.28955078,-0.13702393,-0.91534424,-1.75,-2.734375,0.078125
404,0.28466797,-0.13531494,-0.90875244,-2.734375,-5.9375,0.40625
405,0.30981445,-0.12554932,-0.8921509,-3.25,-5.71875,0.328125
406,0.32910156,-0.14190674,-0.8584595,-0.453125,-2.65625,0.5
407,0.2902832,-0.15264893,-0.8526001,-0.328125,1.046875,0.21875
408,0.25341797,-0.13800049,-0.77716064,-1.265625,3.171875,-0.40625
409,0.27514648,-0.13775635,-0.8723755,-6.640625,4.046875,-1.90625
410,0.28808594,-0.16168213,-0.9180298,-2.1875,5.359375,-0.96875
411,0.26879883,-0.16339111,-0.94781494,1.890625,5.109375,-0.28125
412,0.2836914,-0.15826416,-0.9627075,3.140625,2.390625,0.15625
413,0.28198242,-0.1531372,-0.9661255,3.09375,2.25,0.125
414,0.2722168,-0.1482544,-0.95098877,2.5,0.703125,0.265625
415,0.26708984,-0.13653564,-0.9187622,1.78125,-0.09375,0.4375
416,0.2553711,-0.13189697,-0.8965454,1.546875,0.28125,0.453125
417,0.24682617,-0.124572754,-0.88165283,0.734375,0.0,0.28125
418,0.24682617,-0.12359619,-0.8753052,-0.03125,0.09375,0.0625
419,0.24487305,-0.12628174,-0.878479,-0.484375,-0.15625,-0.109375
420,0.2644043,-0.09625244,-0.90826416,-3.21875,-3.265625,0.203125
421,0.27441406,-0.11236572,-0.97320557,-6.765625,-8.171875,0.265625
422,0.29858398,-0.10772705,-0.95977783,-8.59375,-6.328125,-0.296875
423,0.25439453,-0.10748291,-0.8208618,-4.234375,-3.09375,0.1875
424,0.26879883,-0.13531494,-0.8796997,-5.109375,-2.75,-0.078125
425,0.2849121,-0.1375122,-0.87872314,-2.640625,-0.96875,-0.015625
426,0.29589844,-0.1482544,-0.8892212,0.75,0.734375,0.5625
427,0.2548828,-0.12359619,-0.8118286,2.390625,2.046875,0.59375
428,0.2956543,-0.13336182,-0.97198486,1.8125,2.375,0.28125
429,0.28515625,-0.13287354,-0.97979736,0.671875,0.546875,0.25
430,0.28930664,-0.113342285,-0.97320557,-2.65625,-4.125,0.359375
431,0.28442383,-0.1326294,-0.8933716,-7.703125,-4.46875,-0.890625
432,0.2553711,-0.13214111,-0.7979126,-6.0,-6.375,-0.078125
433,0.30859375,-0.18804932,-0.91485596,-6.125,-1.984375,-0.78125
434,0.30322266,-0.16558838,-0.9092407,-1.3125,0.328125,0.0
435,0.2614746,-0.12823486,-0.78741455,3.1875,1.296875,1.078125
436,0.24853516,-0.11383057,-0.82598877,3.59375,0.625,1.046875
437,0.2685547,-0.13360596,-0.8530884,2.359375,1.90625,0.3125
438,0.27026367,-0.13653564,-0.9302368,2.609375,1.953125,0.375
439,0.29614258,-0.13946533,-0.9763794,3.15625,0.296875,0.484375
440,0.29003906,-0.14678955,-0.9807739,2.84375,-2.34375,0.625
441,0.30737305,-0.12554932,-0.97662354,1.265625,-2.625,0.359375
442,0.29003906,-0.12750244,-0.92388916,0.5,-2.546875,0.546875
443,0.27856445,-0.1182251,-0.9036255,-2.328125,-6.0625,0.53125
444,0.27856445,-0.11065674,-0.85601807,-3.015625,-8.5625,0.375
445,0.30541992,-0.14019775,-0.8726196,-1.015625,1.953125,-0.21875
446,0.26733398,-0.12359619,-0.8032837,-3.296875,1.953125,-1.03125
447,0.28198242,-0.13726807,-0.88946533,-2.84375,3.203125,-0.796875
448,0.2763672,-0.13897705,-0.90045166,3.203125,5.875,-0.21875
449,0.28686523,-0.14239502,-0.9788208,2.28125,4.84375,-0.421875
450,0.27954102,-0.12921143,-0.960022,2.84375,5.15625,-0.46875
451,0.27539062,-0.12872314,-0.96588135,3.328125,3.8125,-0.21875
452,0.26367188,-0.0947876,-0.93927,0.484375,-2.21875,0.515625
453,0.2607422,-0.097717285,-0.9216919,-0.109375,-2.625,0.609375
454,0.27148438,-0.089660645,-0.9212036,-1.921875,-4.125,0.5
455,0.2836914,-0.10797119,-0.972229,-5.421875,-9.46875,0.609375
456,0.33251953,-0.10211182,-1.0308228,-5.296875,-4.015625,0.328125
457,0.2775879,-0.10015869,-0.9295044,-3.234375,-0.46875,0.515625
458,0.26000977,-0.12188721,-0.84454346,-4.359375,-0.78125,0.078125
459,0.27612305,-0.11798096,-0.86260986,-2.765625,0.796875,-0.09375
460,0.26782227,-0.11212158,-0.8401489,-1.046875,2.03125,-0.25
461,0.23461914,-0.1038208,-0.7827759,0.84375,2.234375,-0.015625
462,0.24414062,-0.09918213,-0.7979126,1.734375,5.203125,-0.4375
463,0.27929688,-0.12530518,-0.96417236,4.96875,8.171875,-0.515625
464,0.27416992,-0.11798096,-1.0471802,2.546875,0.3125,0.015625
465,0.27270508,-0.11407471,-1.034729,-1.59375,-3.421875,-0.5
466,0.2854004,-0.10797119,-0.98321533,-3.828125,-5.796875,-0.015625
467,0.3017578,-0.11920166,-1.0327759,-8.515625,-17.796875,0.859375
468,0.2919922,-0.09893799,-0.89849854,-11.515625,-8.953125,-0.03125
469,0.31567383,-0.1116333,-0.850647,-0.9375,-3.5,1.484375
470,0.28027344,-0.16168213,-0.8008423,-3.90625,-0.578125,0.65625
471,0.2607422,-0.15875244,-0.78619385,-1.640625,1.203125,-0.53125
472,0.23950195,-0.08843994,-0.7529907,-0.71875,1.84375,-0.546875
473,0.2631836,-0.12823486,-0.8596802,2.0625,1.484375,0.015625
474,0.29858398,-0.12237549,-0.92315674,4.40625,5.78125,-0.03125
475,0.30688477,-0.13970947,-1.0200806,2.375,4.671875,-0.484375
476,0.29418945,-0.1428833,-1.0557251,2.03125,-0.984375,0.21875
477,0.31298828,-0.13580322,-1.029602,0.34375,-4.53125,0.453125
478,0.30322266,-0.11871338,-0.96051025,-0.765625,-4.234375,0.59375
479,0.28076172,-0.11529541,-0.8858032,-3.546875,-5.578125,0.109375
480,0.2602539,-0.11773682,-0.8484497,-6.921875,-11.234375,-0.0625
481,0.28198242,-0.11456299,-0.8110962,-10.796875,-6.0,-1.1875
482,0.33618164,-0.15216064,-0.9024048,-2.953125,-3.4375,0.34375
483,0.30419922,-0.16851807,-0.83795166,-2.171875,0.421875,0.0
484,0.2944336,-0.14630127,-0.8201294,-0.578125,2.21875,-0.296875
485,0.26904297,-0.13287354,-0.8255005,0.203125,2.375,-0.171875
486,0.29516602,-0.1506958,-0.90826416,2.375,3.328125,0.25
487,0.30249023,-0.1519165,-0.9331665,3.15625,6.375,0.046875
488,0.2878418,-0.14874268,-0.97491455,1.09375,5.21875,-0.578125
489,0.29467773,-0.13897705,-0.9558716,0.5625,4.0,-0.453125
490,0.2866211,-0.1416626,-0.9585571,2.0625,3.03125,0.046875
491,0.27685547,-0.12310791,-0.9397583,2.953125,1.5625,0.359375
492,0.26611328,-0.12921143,-0.91192627,2.140625,0.90625,0.46875
493,0.33081055,-0.11968994,-0.98223877,-5.671875,-4.0625,-0.09375
494,0.31591797,-0.17120361,-0.92437744,-3.65625,-1.609375,0.265625
495,0.32373047,-0.15460205,-0.90093994,-1.890625,-1.015625,0.40625
496,0.27124023,-0.1531372,-0.81915283,0.046875,1.9375,0.125
497,0.25073242,-0.09552002,-0.76690674,0.078125,3.453125,-0.265625
498,0.2734375,-0.1260376,-0.85723877,-2.046875,2.078125,-0.734375
499,0.28393555,-0.1260376,-0.90826416,0.984375,7.421875,-0.640625
500,0.28955078,-0.14385986,-0.9834595,0.65625,5.921875,-0.859375
501,0.29248047,-0.14508057,-0.9902954,0.859375,5.421875,-0.875
502,0.2878418,-0.13604736,-0.9866333,1.453125,3.609375,-0.328125
503,0.27001953,-0.13287354,-0.97906494,1.90625,1.5,0.125
504,0.25561523,-0.12921143,-0.9133911,2.09375,0.921875,0.40625
505,0.23168945,-0.120666504,-0.8804321,1.609375,-1.015625,0.5625
506,0.2409668,-0.109191895,-0.89068604,1.15625,-7.5625,0.984375
507,0.25610352,-0.11407471,-0.881897,-1.625,-7.265625,0.484375
508,0.26293945,-0.11383057,-0.8804321,-3.59375,-6.046875,0.125
509,0.29370117,-0.124572754,-0.9326782,-5.65625,-6.671875,-0.109375
510,0.30688477,-0.13336182,-0.93707275,-4.09375,-5.71875,-0.171875
511,0.3112793,-0.14068604,-0.9326782,-4.71875,-4.265625,-0.109375
512,0.296875,-0.14678955,-0.9319458,-4.390625,-4.625,0.1875
513,0.32885742,-0.124816895,-0.9277954,-6.078125,-3.109375,-0.296875
514,0.2998047,-0.19146729,-0.8545532,-3.46875,-1.625,-0.375
515,0.2775879,-0.16534424,-0.8526001,-1.40625,0.109375,-0.046875
516,0.29248047,-0.1494751,-0.85723877,1.03125,0.0625,0.578125
517,0.2614746,-0.13067627,-0.7930298,3.75,2.28125,0.671875
518,0.28979492,-0.14923096,-0.8772583,2.5,1.15625,0.390625
519,0.31689453,-0.14923096,-0.96221924,2.015625,2.890625,0.09375
520,0.29296875,-0.144104,-0.9299927,1.375,4.890625,-0.5
521,0.2939453,-0.15045166,-0.9644165,0.46875,5.46875,-0.65625
522,0.28295898,-0.144104,-0.9663696,1.78125,3.1875,-0.1875
523,0.27197266,-0.13409424,-0.9248657,2.84375,2.0,0.171875
524,0.2631836,-0.13458252,-0.89727783,2.125,0.390625,0.609375
525,0.24951172,-0.12628174,-0.87286377,1.671875,-0.3125,0.59375
526,0.25170898,-0.120666504,-0.8845825,0.296875,-0.171875,0.15625
527,0.25097656,-0.1116333,-0.8862915,0.203125,-3.140625,0.28125
528,0.2709961,-0.12359619,-0.9102173,-1.21875,-3.265625,0.09375
529,0.27783203,-0.12310791,-0.9331665,-1.265625,-3.53125,0.125
530,0.2861328,-0.13140869,-0.94610596,-0.21875,-2.953125,0.421875
531,0.2775879,-0.1260376,-0.9246216,0.171875,-2.96875,0.546875
532,0.27490234,-0.12677002,-0.9102173,-0.25,-2.640625,0.515625
533,0.27294922,-0.12213135,-0.90509033,-2.8125,-2.453125,-0.171875
534,0.27075195,-0.12628174,-0.8870239,-4.0625,-3.0,-0.421875
535,0.27490234,-0.13067627,-0.87701416,-2.890625,-3.796875,0.109375
536,0.2763672,-0.124816895,-0.9065552,-4.234375,-6.953125,0.25
537,0.30786133,-0.12994385,-0.87994385,-5.984375,-8.09375,0.15625
538,0.33398438,-0.13555908,-0.8796997,-3.09375,-6.078125,0.453125
539,0.30932617,-0.17486572,-0.8875122,-1.171875,-0.796875,0.234375
540,0.30297852,-0.1506958,-0.85772705,0.515625,1.640625,0.203125
541,0.25439453,-0.12799072,-0.7913208,0.578125,2.765625,0.0
542,0.29663086,-0.14581299,-0.9026489,-1.046875,2.5625,-0.5625
543,0.28808594,-0.13995361,-0.89141846,2.0625,4.28125,0.046875
544,0.29589844,-0.1506958,-0.95318604,1.40625,4.28125,0.078125
545,0.29418945,-0.15655518,-0.9612427,1.390625,5.3125,-0.46875
546,0.2927246,-0.13800049,-0.97076416,1.84375,3.046875,-0.171875
547,0.2841797,-0.1482544,-0.9458618,1.390625,1.34375,0.140625
548,0.26708984,-0.13116455,-0.9065552,1.140625,0.90625,0.1875
549,0.25317383,-0.13067627,-0.88238525,0.984375,0.84375,0.109375
550,0.24926758,-0.12384033,-0.8826294,0.484375,0.40625,0.171875
551,0.23901367,-0.11773682,-0.87213135,0.0,-0.46875,0.15625
552,0.24829102,-0.121398926,-0.89434814,-0.125,-1.625,0.203125
553,0.26293945,-0.13018799,-0.92681885,0.3125,-1.734375,0.203125
554,0.2849121,-0.12823486,-0.9458618,-0.28125,-3.59375,0.375
555,0.2763672,-0.13116455,-0.94732666,-0.421875,-2.59375,0.3125
556,0.28198242,-0.12945557,-0.93292236,-0.453125,-2.84375,0.375
557,0.26220703,-0.124572754,-0.9163208,-0.546875,-2.953125,0.421875
558,0.27075195,-0.12310791,-0.8953247,-0.375,-2.890625,0.359375
559,0.2746582,-0.12261963,-0.8953247,-1.828125,-2.890625,0.296875
560,0.27441406,-0.12359619,-0.8850708,-1.703125,-3.28125,0.3125
561,0.28442383,-0.12750244,-0.9168091,-2.1875,-3.484375,0.140625
562,0.28759766,-0.13311768,-0.9060669,-2.140625,-3.15625,0.125
563,0.2944336,-0.13067627,-0.91534424,-2.375,-3.515625,0.015625
564,0.2956543,-0.13995361,-0.956604,-4.09375,-7.65625,0.203125
565,0.31958008,-0.14019775,-0.9273071,-5.90625,-4.875,-0.4375
566,0.33666992,-0.16778564,-0.93878174,-2.3125,-2.171875,-0.21875
567,0.28686523,-0.1572876,-0.8284302,-0.46875,0.5625,0.0625
568,0.25756836,-0.13140869,-0.7944946,0.796875,2.453125,-0.171875
569,0.25854492,-0.13311768,-0.8296509,-1.140625,2.28125,-0.375
570,0.28930664,-0.1519165,-0.90997314,-0.6875,2.625,-0.421875
571,0.29345703,-0.14556885,-0.9182739,1.6875,4.078125,0.015625
572,0.30444336,-0.15386963,-0.96832275,1.8125,4.609375,-0.203125
573,0.29760742,-0.14874268,-0.9800415,2.53125,4.078125,-0.046875
574,0.28173828,-0.13922119,-0.96417236,2.84375,2.6875,0.0625
575,0.2644043,-0.14312744,-0.9241333,1.90625,1.3125,0.328125
576,0.24951172,-0.13043213,-0.8826294,1.015625,0.359375,0.265625
577,0.24267578,-0.11798096,-0.87213135,0.375,0.671875,0.0
578,0.24365234,-0.120666504,-0.8699341,-0.109375,-0.703125,0.109375
579,0.24511719,-0.12677002,-0.8887329,0.03125,-2.4375,0.109375
580,0.26635742,-0.12335205,-0.9182739,-0.265625,-3.375,0.359375
581,0.2800293,-0.12896729,-0.942688,-0.5,-3.140625,0.421875
582,0.28125,-0.13702393,-0.96343994,-0.265625,-2.703125,0.40625
583,0.2788086,-0.13140869,-0.9343872,0.015625,-2.125,0.515625
584,0.27319336,-0.12506104,-0.90631104,0.375,-2.03125,0.484375
585,0.2626953,-0.112854004,-0.8821411,0.15625,-1.828125,0.390625
586,0.26464844,-0.1182251,-0.8779907,-0.859375,-2.109375,0.1875
587,0.27026367,-0.11895752,-0.8904419,-1.015625,-2.328125,0.15625
588,0.27783203,-0.12554932,-0.90802,-1.359375,-2.6875,0.234375
589,0.28710938,-0.12530518,-0.92193604,-1.078125,-2.859375,0.234375
590,0.2866211,-0.1326294,-0.92926025,-1.078125,-2.09375,0.25
591,0.2932129,-0.12408447,-0.9182739,-1.65625,-2.40625,0.046875
592,0.28735352,-0.13116455,-0.91290283,-1.578125,-3.171875,0.140625
593,0.27783203,-0.12408447,-0.90216064,-3.6875,-7.15625,0.203125
594,0.30151367,-0.12994385,-0.8713989,-3.6875,-6.390625,0.1875
595,0.2705078,-0.12652588,-0.8401489,-1.1875,-3.5625,0.625
596,0.29736328,-0.14703369,-0.8621216,1.34375,-0.34375,0.640625
597,0.2956543,-0.14581299,-0.862854,0.640625,0.71875,0.53125
598,0.26733398,-0.13433838,-0.8435669,-2.421875,1.34375,-0.484375
599,0.29492188,-0.13702393,-0.9019165,-2.890625,1.734375,-0.609375
600,0.3034668,-0.14093018,-0.93170166,-0.09375,2.890625,-0.1875
601,0.29907227,-0.14483643,-0.93218994,0.265625,2.421875,-0.171875
602,0.30419922,-0.13677979,-0.9439087,0.265625,3.1875,-0.234375
603,0.29370117,-0.14019775,-0.9338989,0.78125,2.96875,-0.109375
604,0.28735352,-0.13800049,-0.9229126,1.671875,2.5,0.125
605,0.27172852,-0.13702393,-0.9089966,1.515625,1.875,0.125
606,0.26049805,-0.12408447,-0.8845825,0.671875,1.609375,-0.03125
607,0.25463867,-0.12823486,-0.88238525,-0.265625,1.359375,-0.21875
608,0.26098633,-0.12164307,-0.88946533,-0.625,1.390625,-0.25
609,0.2614746,-0.1272583,-0.9126587,-0.671875,1.28125,-0.265625
610,0.26391602,-0.12506104,-0.93878174,-0.578125,0.78125,-0.109375
611,0.26123047,-0.12921143,-0.9439087,0.125,-0.609375,0.140625
612,0.2590332,-0.13018799,-0.92633057,0.9375,-2.3125,0.4375
613,0.2578125,-0.1326294,-0.928772,0.359375,-1.59375,0.28125
614,0.2529297,-0.124572754,-0.90338135,0.390625,-2.421875,0.3125
615,0.25341797,-0.12335205,-0.9031372,-0.046875,-2.265625,0.265625
616,0.26293945,-0.12164307,-0.9089966,-0.328125,-2.515625,0.21875
617,0.2697754,-0.11895752,-0.9060669,-0.765625,-2.03125,0.109375
618,0.2705078,-0.1194458,-0.91607666,-0.796875,-1.765625,0.1875
619,0.27270508,-0.12554932,-0.92803955,-0.46875,-1.1875,-0.03125
620,0.27416992,-0.12579346,-0.92510986,-0.4375,-1.75,0.375
621,0.26879883,-0.12652588,-0.92510986,-0.421875,-1.78125,0.3125
622,0.27246094,-0.12213135,-0.9151001,0.078125,-2.421875,0.21875
623,0.27416992,-0.11968994,-0.90411377,0.234375,-2.703125,0.53125
624,0.27685547,-0.12188721,-0.8982544,-0.03125,-2.796875,0.484375
625,0.27392578,-0.12237549,-0.9089966,-0.296875,-2.796875,0.375
626,0.28271484,-0.11871338,-0.92193604,-0.796875,-3.21875,0.375
627,0.2866211,-0.12261963,-0.90875244,-0.40625,-3.625,0.421875
628,0.29663086,-0.11993408,-0.94488525,-0.421875,-3.96875,0.5625
629,0.29101562,-0.11846924,-0.9175415,0.15625,-5.625,1.03125
630,0.30200195,-0.10748291,-0.9019165,0.15625,-6.765625,1.3125
631,0.3334961,-0.101379395,-0.9602661,-0.640625,-1.140625,0.953125
632,0.296875,-0.16827393,-0.87457275,0.265625,0.890625,0.359375
633,0.27783203,-0.12359619,-0.8303833,-1.96875,2.109375,-0.53125
634,0.26708984,-0.1026001,-0.82232666,-6.3125,1.921875,-1.390625
635,0.28198242,-0.12261963,-0.91778564,-4.578125,2.578125,-1.46875
636,0.29125977,-0.12945557,-0.9180298,-1.0,3.359375,-0.78125
637,0.29541016,-0.13409424,-0.9314575,-0.359375,2.453125,-0.296875
638,0.30615234,-0.13800049,-0.97003174,-0.53125,2.71875,-0.4375
639,0.3046875,-0.13775635,-0.96051025,0.109375,2.84375,-0.296875
640,0.28979492,-0.14117432,-0.9356079,1.375,2.921875,-0.125
641,0.26464844,-0.13018799,-0.9258423,1.390625,2.015625,0.140625
642,0.25634766,-0.1182251,-0.8731079,1.53125,1.609375,0.28125
643,0.24267578,-0.11407471,-0.8699341,0.484375,1.1875,0.15625
644,0.24243164,-0.11138916,-0.8777466,-0.515625,1.171875,-0.28125
645,0.24975586,-0.12432861,-0.91070557,-1.171875,1.078125,-0.46875
646,0.2619629,-0.12286377,-0.9368286,-1.0,0.53125,-0.34375
647,0.26367188,-0.12823486,-0.94659424,-0.21875,0.765625,-0.0625
648,0.2553711,-0.12628174,-0.93927,0.453125,0.1875,0.15625
649,0.25708008,-0.120910645,-0.9368286,0.234375,0.75,0.015625
650,0.27514648,-0.11456299,-0.9065552,-1.453125,-2.359375,0.28125
651,0.2763672,-0.10772705,-0.9102173,-2.203125,-2.234375,0.140625
652,0.27294922,-0.12286377,-0.9031372,-3.53125,-4.75,0.25
653,0.29052734,-0.1296997,-0.95635986,-7.375,-4.28125,-0.640625
654,0.26757812,-0.10626221,-0.8467407,-3.328125,-4.25,0.25
655,0.28515625,-0.14703369,-0.8948364,-4.984375,-2.703125,-0.171875
656,0.28857422,-0.13604736,-0.892395,-2.109375,-1.5,0.484375
657,0.30371094,-0.1560669,-0.8377075,0.453125,0.359375,0.59375
658,0.29785156,-0.1687622,-0.9639282,0.296875,2.15625,0.171875
659,0.26464844,-0.11016846,-0.89556885,-0.34375,3.75,-0.078125
660,0.2866211,-0.112854004,-0.9155884,1.953125,2.0,0.265625
661,0.27807617,-0.12310791,-0.9155884,-2.296875,-1.328125,-0.203125
662,0.26171875,-0.10992432,-0.87335205,-2.546875,-4.859375,0.15625
663,0.28125,-0.14752197,-0.96099854,-9.078125,-5.890625,-0.671875
664,0.3659668,-0.17120361,-0.9871216,-5.421875,-4.046875,-0.328125
665,0.31567383,-0.13140869,-0.89849854,-2.671875,-3.859375,0.796875
666,0.35351562,-0.1873169,-0.9898071,-0.546875,-0.296875,0.984375
667,0.30566406,-0.15093994,-0.9221802,0.28125,1.59375,0.953125
668,0.27661133,-0.14385986,-0.861145,-0.890625,1.34375,0.265625
669,0.27490234,-0.14263916,-0.8657837,-1.03125,0.796875,-0.109375
670,0.26245117,-0.13873291,-0.8406372,-2.390625,-0.78125,-0.40625
671,0.27856445,-0.15484619,-0.8567505,-2.15625,-1.46875,-0.15625
672,0.27734375,-0.14239502,-0.8562622,-1.5625,-2.609375,-0.046875
673,0.29418945,-0.1651001,-0.90460205,-2.1875,-4.71875,0.375
674,0.2939453,-0.1296997,-0.9680786,0.25,-3.828125,0.53125
675,0.33740234,-0.17926025,-0.944397,1.203125,-2.796875,0.78125
676,0.34277344,-0.16851807,-1.005188,1.40625,0.09375,0.640625
677,0.34326172,-0.16656494,-0.95391846,0.1875,0.96875,0.53125
678,0.3190918,-0.1729126,-0.9351196,-2.578125,2.5625,0.71875
679,0.29248047,-0.12408447,-0.89849854,-4.328125,4.046875,2.953125
680,0.27075195,-0.16949463,-0.87823486,-5.6875,3.25,6.328125
681,0.25097656,-0.16583252,-0.8101196,-1.125,-0.78125,6.1875
682,0.23852539,-0.1675415,-0.79815674,0.515625,-2.984375,1.46875
683,0.26953125,-0.16534424,-0.8621216,-0.171875,-3.71875,0.375
684,0.29833984,-0.14703369,-0.8530884,0.40625,-5.484375,0.8125
685,0.33007812,-0.12872314,-0.96051025,0.875,-4.53125,0.8125
686,0.36254883,-0.16851807,-0.9890747,-0.296875,-2.546875,-0.046875
687,0.3503418,-0.16363525,-0.9824829,0.296875,-1.46875,0.84375
688,0.3395996,-0.16412354,-0.9692993,-0.109375,1.875,0.234375
689,0.31933594,-0.14385986,-0.9282837,-0.4375,2.328125,0.796875
690,0.2866211,-0.14581299,-0.8718872,1.390625,1.828125,3.640625
691,0.2619629,-0.15362549,-0.82476807,2.328125,0.890625,1.421875
692,0.26342773,-0.13970947,-0.8357544,0.71875,-2.234375,0.734375
693,0.28027344,-0.12750244,-0.8369751,0.3125,-3.53125,0.390625
694,0.29614258,-0.13165283,-0.85601807,-0.578125,-5.671875,0.375
695,0.3310547,-0.14385986,-0.92755127,-1.09375,-5.640625,-0.015625
696,0.3725586,-0.13653564,-0.9356079,-2.828125,-3.5,-0.453125
697,0.34716797,-0.16534424,-0.9439087,-2.234375,-0.671875,-0.578125
698,0.3161621,-0.15386963,-0.85357666,-0.921875,0.46875,-0.59375
699,0.30078125,-0.1350708,-0.83013916,1.875,3.921875,-0.0625
700,0.28515625,-0.12921143,-0.83843994,1.21875,5.703125,-0.21875
701,0.2866211,-0.1338501,-0.87945557,0.65625,4.5,-0.609375
702,0.29418945,-0.13116455,-0.9324341,0.234375,3.546875,-0.609375
703,0.3088379,-0.14434814,-0.9570923,1.578125,2.0625,-0.125
704,0.31884766,-0.14752197,-0.9873657,2.921875,1.859375,0.359375
705,0.3112793,-0.13702393,-0.9697876,3.140625,1.453125,0.625
706,0.30249023,-0.12799072,-0.91412354,3.390625,2.390625,0.5625
707,0.27734375,-0.121398926,-0.9085083,1.796875,1.828125,0.25
708,0.2524414,-0.11260986,-0.86016846,0.96875,1.25,0.046875
709,0.24438477,-0.11065674,-0.8513794,0.390625,0.9375,-0.09375
710,0.24511719,-0.113586426,-0.8753052,0.171875,0.328125,-0.125
711,0.26757812,-0.12042236,-0.91485596,0.3125,1.09375,-0.125
712,0.2783203,-0.12213135,-0.9451294,0.203125,0.65625,-0.046875
713,0.28515625,-0.11993408,-0.9585571,0.203125,0.265625,-0.015625
714,0.2692871,-0.11993408,-0.9480591,0.15625,0.46875,0.109375
715,0.25952148,-0.11529541,-0.91607666,0.484375,0.40625,0.1875
716,0.24951172,-0.11627197,-0.9065552,0.03125,0.4375,-0.03125
717,0.24536133,-0.10015869,-0.88848877,-0.5,-0.125,0.0
718,0.24194336,-0.11407471,-0.8882446,-0.453125,-0.6875,0.015625
719,0.25854492,-0.1026001,-0.9209595,-3.203125,-2.078125,0.046875
720,0.25708008,-0.10870361,-0.91900635,-3.25,-2.203125,0.09375
721,0.27270508,-0.11871338,-0.9741821,-4.859375,-5.109375,0.046875
722,0.31103516,-0.11260986,-0.9902954,-8.25,-1.515625,-0.75
723,0.2685547,-0.12799072,-0.8928833,-7.515625,-0.234375,-0.578125
724,0.24731445,-0.15264893,-0.892395,-6.328125,0.640625,-0.6875
725,0.23779297,-0.13018799,-0.81866455,-3.078125,-0.203125,0.046875
726,0.24731445,-0.13946533,-0.8652954,-1.078125,0.53125,0.046875
727,0.24047852,-0.13531494,-0.8308716,0.21875,-0.3125,0.375
728,0.2409668,-0.12872314,-0.8118286,5.125,1.234375,0.859375
729,0.27954102,-0.13800049,-0.9890747,5.546875,3.921875,0.609375
730,0.25830078,-0.13897705,-0.97613525,1.65625,1.109375,0.046875
731,0.27368164,-0.13702393,-1.0022583,1.0625,-0.328125,-0.03125
732,0.2734375,-0.1260376,-0.9795532,2.515625,-0.375,0.4375
733,0.2619629,-0.12286377,-0.9649048,1.515625,-2.078125,0.84375
734,0.2475586,-0.117004395,-0.9151001,0.484375,-2.0,0.640625
735,0.22680664,-0.108947754,-0.86187744,-0.984375,-3.28125,0.53125
736,0.22851562,-0.1182251,-0.8753052,-2.484375,-5.171875,0.234375
737,0.26171875,-0.12628174,-0.9307251,-8.671875,-14.5,-0.046875
738,0.29345703,-0.13848877,-0.96881104,-11.9375,-6.453125,-1.140625
739,0.34277344,-0.15557861,-0.98028564,-1.71875,-2.96875,0.65625
740,0.30029297,-0.12335205,-0.8882446,0.875,-0.90625,0.734375
741,0.25708008,-0.12677002,-0.79400635,0.046875,1.46875,0.03125
742,0.2763672,-0.13116455,-0.8596802,-0.34375,2.53125,-0.015625
743,0.27734375,-0.14385986,-0.9053345,3.109375,2.84375,0.40625
744,0.26245117,-0.13580322,-0.90509033,1.625,3.5,-0.390625
745,0.2697754,-0.14385986,-0.95880127,1.484375,3.734375,-0.59375
746,0.28808594,-0.13555908,-0.9612427,1.5625,1.796875,-0.3125
747,0.28588867,-0.1296997,-0.9795532,2.234375,0.1875,0.34375
748,0.27416992,-0.13067627,-0.94903564,1.0625,-0.765625,0.46875
749,0.25830078,-0.124816895,-0.9104614,-0.21875,-2.140625,0.546875
750,0.25439453,-0.124816895,-0.8909302,-0.953125,-2.875,0.421875
