sample_no,accel_x,accel_y,accel_z,gyro_x,gyro_y,gyro_z
0,0.13500977,-0.35528564,-0.9143677,1.65625,1.0,0.765625
1,0.13330078,-0.35308838,-0.9295044,1.03125,1.421875,0.5
2,0.14208984,-0.364563,-0.9356079,-1.203125,0.65625,0.0625
3,0.14086914,-0.35113525,-0.92852783,-2.890625,0.4375,-0.1875
4,0.13891602,-0.34405518,-0.90704346,-2.03125,0.203125,0.09375
5,0.13208008,-0.3394165,-0.8887329,-1.28125,-0.359375,0.5
6,0.14233398,-0.35357666,-0.9170532,0.109375,-0.125,0.578125
7,0.14355469,-0.34405518,-0.9121704,0.84375,0.453125,0.8125
8,0.14672852,-0.35479736,-0.9192505,-0.15625,0.15625,0.484375
9,0.14428711,-0.3555298,-0.91851807,-1.203125,1.234375,0.0
10,0.14428711,-0.34820557,-0.9146118,-2.421875,1.21875,-0.375
11,0.14379883,-0.3574829,-0.91241455,-2.28125,0.671875,-0.234375
12,0.14453125,-0.35064697,-0.91290283,-1.34375,1.1875,0.046875
13,0.13964844,-0.347229,-0.8875122,0.109375,0.453125,0.625
14,0.14379883,-0.35455322,-0.91607666,0.203125,0.734375,0.46875
15,0.13867188,-0.35333252,-0.9067993,-0.859375,0.5625,0.28125
16,0.15551758,-0.3665161,-0.9421997,-3.125,1.4375,-0.296875
17,0.13916016,-0.35333252,-0.89556885,-3.515625,0.53125,-0.34375
18,0.14575195,-0.36480713,-0.9043579,-1.703125,1.0,-0.234375
19,0.14233398,-0.35650635,-0.88360596,-0.703125,0.875,0.125
20,0.13891602,-0.36236572,-0.90753174,-0.1875,1.109375,0.296875
21,0.13745117,-0.3550415,-0.9014282,0.03125,0.875,0.375
22,0.13867188,-0.3640747,-0.9151001,-1.078125,1.15625,0.078125
23,0.1430664,-0.364563,-0.9072876,-1.796875,0.71875,-0.15625
24,0.13793945,-0.3579712,-0.8843384,-1.25,0.78125,0.078125
25,0.13696289,-0.3587036,-0.8792114,0.03125,0.578125,0.28125
26,0.13623047,-0.3640747,-0.909729,1.265625,0.78125,0.71875
27,0.13842773,-0.37017822,-0.91192627,1.0625,0.421875,0.9375
28,0.14404297,-0.3694458,-0.92193604,0.140625,0.34375,0.78125
29,0.13842773,-0.3657837,-0.9168091,-0.296875,0.671875,0.484375
30,0.14257812,-0.35894775,-0.89385986,0.921875,1.46875,0.546875
31,0.14331055,-0.34381104,-0.88482666,3.09375,2.46875,0.59375
32,0.13427734,-0.3430786,-0.90093994,3.609375,2.359375,0.75
33,0.13696289,-0.35040283,-0.94122314,2.671875,1.828125,1.015625
34,0.14257812,-0.35357666,-0.9483032,0.875,1.015625,0.625
35,0.14233398,-0.35772705,-0.9458618,-1.1875,1.515625,0.03125
36,0.12695312,-0.3430786,-0.9216919,-1.515625,1.125,-0.015625
37,0.13085938,-0.3435669,-0.895813,-1.265625,0.390625,0.09375
38,0.13964844,-0.33477783,-0.8948364,-0.96875,0.3125,0.421875
39,0.13330078,-0.34381104,-0.90216064,-0.546875,0.734375,0.515625
40,0.1274414,-0.34210205,-0.90875244,-0.34375,0.78125,0.359375
41,0.13916016,-0.35455322,-0.9204712,-0.53125,0.78125,0.34375
42,0.1340332,-0.35284424,-0.92193604,0.53125,0.4375,0.375
43,0.12036133,-0.32354736,-0.86846924,0.9375,-0.875,0.515625
44,0.14477539,-0.33258057,-0.92633057,-1.578125,-2.25,0.25
45,0.1538086,-0.37701416,-0.9631958,-0.453125,1.21875,-0.125
46,0.13720703,-0.31402588,-0.8875122,-0.09375,-0.28125,0.484375
47,0.13867188,-0.34747314,-0.91485596,0.875,1.6875,0.578125
48,0.13354492,-0.3411255,-0.91290283,0.640625,1.875,0.609375
49,0.13696289,-0.33624268,-0.91070557,-1.34375,0.5625,0.09375
50,0.14453125,-0.3423462,-0.913147,-3.453125,0.8125,-0.421875
51,0.1496582,-0.34332275,-0.90875244,-3.9375,-0.375,-0.25
52,0.14672852,-0.34503174,-0.9019165,-1.96875,0.3125,0.171875
53,0.13305664,-0.3477173,-0.85040283,-0.578125,-0.265625,0.53125
54,0.14331055,-0.3567505,-0.9212036,2.25,0.8125,0.859375
55,0.14550781,-0.3670044,-0.9343872,2.5625,1.6875,0.875
56,0.13989258,-0.3616333,-0.9324341,0.046875,0.953125,0.40625
57,0.14770508,-0.36016846,-0.9451294,-3.21875,0.640625,-0.390625
58,0.14990234,-0.3496704,-0.9085083,-3.546875,0.203125,-0.375
59,0.140625,-0.34088135,-0.8792114,-2.15625,0.4375,0.015625
60,0.13598633,-0.33380127,-0.86920166,-1.1875,0.421875,0.515625
61,0.13842773,-0.34527588,-0.89141846,1.078125,0.609375,0.9375
62,0.14819336,-0.35894775,-0.9204712,1.5,1.140625,0.796875
63,0.13964844,-0.3665161,-0.928772,0.390625,0.484375,0.734375
64,0.15576172,-0.37408447,-0.95391846,-1.71875,0.578125,0.171875
65,0.14233398,-0.35723877,-0.944397,-3.234375,1.140625,-0.453125
66,0.1340332,-0.33843994,-0.8809204,-2.21875,0.53125,-0.1875
67,0.14331055,-0.33746338,-0.8562622,-1.359375,0.328125,0.40625
68,0.15161133,-0.35162354,-0.86846924,0.75,0.390625,0.6875
69,0.140625,-0.35821533,-0.8953247,1.84375,0.6875,0.859375
70,0.14013672,-0.3591919,-0.9204712,1.234375,0.609375,0.75
71,0.15185547,-0.38409424,-0.96343994,-0.4375,1.296875,0.125
72,0.14038086,-0.36505127,-0.9475708,-1.71875,0.359375,0.21875
73,0.1472168,-0.35113525,-0.9092407,-1.671875,0.671875,-0.140625
74,0.14941406,-0.33111572,-0.87506104,-0.90625,0.765625,0.21875
75,0.13598633,-0.3352661,-0.85894775,-0.296875,0.078125,0.53125
76,0.13500977,-0.34210205,-0.8814087,-0.078125,-0.828125,0.6875
77,0.15136719,-0.36114502,-0.90997314,-0.171875,-0.890625,0.9375
78,0.14624023,-0.36236572,-0.9006958,-0.03125,-0.1875,0.765625
79,0.14794922,-0.3574829,-0.9116821,-0.203125,-0.015625,0.421875
80,0.16113281,-0.3574829,-0.9138794,-0.21875,0.46875,0.203125
81,0.15332031,-0.36260986,-0.9307251,-0.25,0.6875,0.453125
82,0.16210938,-0.3579712,-0.91290283,0.125,1.015625,0.703125
83,0.16308594,-0.35333252,-0.9246216,0.625,1.34375,0.546875
84,0.15161133,-0.34942627,-0.89727783,2.640625,2.046875,0.84375
85,0.13452148,-0.3357544,-0.8994751,2.671875,2.625,0.65625
86,0.16601562,-0.3340454,-0.93218994,-0.5,0.859375,0.4375
87,0.19799805,-0.35357666,-0.94073486,-1.921875,1.453125,-0.34375
88,0.1784668,-0.3274536,-0.92388916,-4.46875,-0.671875,-0.296875
89,0.15576172,-0.3147583,-0.84552,-3.046875,-2.09375,0.234375
90,0.06591797,-0.3513794,-0.8748169,-2.859375,-4.078125,1.890625
91,0.15112305,-0.3538208,-0.80596924,2.125,-4.0,2.671875
92,0.18725586,-0.35064697,-0.8550415,4.9375,-4.671875,3.875
93,0.13623047,-0.36431885,-0.9883423,3.125,-5.046875,3.65625
94,0.18579102,-0.36773682,-0.97540283,2.34375,-4.609375,3.171875
95,0.21582031,-0.37139893,-0.9702759,0.3125,-2.828125,2.03125
96,0.22485352,-0.34625244,-0.96221924,-1.421875,-0.890625,0.828125
97,0.23706055,-0.32281494,-0.8862915,-0.25,0.125,0.3125
98,0.20703125,-0.32452393,-0.8621216,0.890625,1.765625,0.234375
99,0.1953125,-0.2991333,-0.850647,0.78125,2.015625,0.3125
100,0.17358398,-0.29229736,-0.8584595,-0.78125,2.515625,-0.015625
101,0.2175293,-0.32159424,-0.9019165,-3.046875,2.25,-0.890625
102,0.19677734,-0.3237915,-0.9109497,-4.09375,1.171875,-1.125
103,0.17700195,-0.31280518,-0.8428345,-3.3125,-0.671875,-0.859375
104,0.2097168,-0.37042236,-0.94244385,-0.859375,2.390625,-0.5625
105,0.17504883,-0.331604,-0.86505127,1.109375,-0.015625,0.625
106,0.18017578,-0.36309814,-0.9299927,1.21875,-0.421875,1.171875
107,0.18041992,-0.34576416,-0.93218994,1.125,-0.4375,1.609375
108,0.18823242,-0.34210205,-0.89678955,0.171875,-3.5625,1.859375
109,0.20043945,-0.33721924,-0.90704346,-0.359375,-2.28125,1.6875
110,0.2241211,-0.32989502,-0.88409424,0.0625,-2.0,1.71875
111,0.21777344,-0.3147583,-0.88653564,0.109375,-1.671875,1.296875
112,0.19433594,-0.29962158,-0.8530884,-0.421875,-3.0625,2.640625
113,0.27490234,-0.33111572,-0.88238525,-1.125,-0.796875,1.859375
114,0.23901367,-0.33013916,-0.82403564,3.140625,0.71875,2.34375
115,0.2644043,-0.31524658,-0.92926025,2.0625,2.921875,1.078125
116,0.2265625,-0.35821533,-0.9524536,-0.1875,2.765625,0.1875
117,0.23535156,-0.34796143,-0.94488525,1.359375,5.234375,-0.578125
118,0.2241211,-0.35601807,-0.95318604,-0.8125,5.359375,-1.484375
119,0.1862793,-0.33721924,-0.9258423,-1.65625,2.5625,-0.875
120,0.1772461,-0.31939697,-0.8779907,-0.765625,2.4375,-0.328125
121,0.1977539,-0.3098755,-0.8735962,-0.390625,0.640625,0.375
122,0.19360352,-0.2930298,-0.87506104,0.359375,-0.8125,0.96875
123,0.20263672,-0.31500244,-0.9209595,-0.328125,-1.5,0.984375
124,0.21923828,-0.33135986,-0.923645,-0.9375,-0.71875,0.578125
125,0.22290039,-0.34210205,-0.93463135,-1.078125,0.3125,0.140625
126,0.23046875,-0.3381958,-0.9216919,-1.9375,0.375,-0.328125
127,0.21435547,-0.32110596,-0.9182739,-2.640625,0.890625,-0.5
128,0.20947266,-0.32110596,-0.8970337,-2.75,0.78125,-0.40625
129,0.19970703,-0.33233643,-0.87286377,-2.65625,0.375,0.140625
130,0.20214844,-0.3262329,-0.86187744,-1.734375,0.46875,0.578125
131,0.19628906,-0.3340454,-0.86187744,-0.03125,-0.09375,0.96875
132,0.20751953,-0.3394165,-0.8899536,-0.4375,0.390625,0.84375
133,0.22167969,-0.33746338,-0.9067993,-0.25,0.6875,0.375
134,0.22167969,-0.35992432,-0.928772,-0.734375,1.53125,-0.28125
135,0.22021484,-0.34332275,-0.9314575,-1.15625,1.84375,-0.53125
136,0.21777344,-0.3369751,-0.9060669,-1.328125,1.53125,-0.234375
137,0.20410156,-0.32891846,-0.88897705,-0.84375,0.71875,0.1875
138,0.20092773,-0.31695557,-0.8855591,-1.109375,0.53125,0.546875
139,0.21020508,-0.32989502,-0.8845825,-0.890625,0.0625,0.515625
140,0.21118164,-0.3435669,-0.8977661,-0.90625,0.484375,0.4375
141,0.2133789,-0.3562622,-0.91656494,-0.84375,0.765625,0.265625
142,0.21264648,-0.34429932,-0.8911743,1.078125,1.03125,0.34375
143,0.21020508,-0.33673096,-0.8909302,2.5625,1.421875,0.65625
144,0.20825195,-0.32647705,-0.8999634,3.15625,1.34375,1.078125
145,0.2121582,-0.3242798,-0.89678955,3.09375,1.953125,1.15625
146,0.203125,-0.3369751,-0.9221802,2.0625,2.03125,0.921875
147,0.21606445,-0.32452393,-0.9277954,1.03125,1.921875,0.46875
148,0.21166992,-0.32110596,-0.9282837,-0.046875,2.734375,0.015625
149,0.20996094,-0.31280518,-0.9155884,-0.328125,2.828125,-0.25
150,0.20092773,-0.32110596,-0.90826416,-0.875,3.015625,-0.46875
151,0.1953125,-0.3184204,-0.91534424,-1.3125,2.234375,-0.34375
152,0.18798828,-0.31280518,-0.8977661,-2.015625,1.09375,-0.25
153,0.18920898,-0.31817627,-0.89068604,-1.5625,0.28125,0.078125
154,0.19140625,-0.31866455,-0.8977661,-1.328125,0.125,0.328125
155,0.19921875,-0.3274536,-0.8953247,-1.078125,0.21875,0.390625
156,0.19726562,-0.3320923,-0.9011841,-0.703125,0.109375,0.53125
157,0.20214844,-0.33013916,-0.89923096,-0.328125,0.546875,0.3125
158,0.20239258,-0.32354736,-0.90460205,-0.1875,0.734375,0.390625
159,0.2019043,-0.3171997,-0.8999634,-0.03125,0.828125,0.28125
160,0.19433594,-0.31988525,-0.9024048,0.359375,1.3125,0.375
161,0.19458008,-0.32574463,-0.89312744,0.734375,1.5,0.453125
162,0.19555664,-0.32208252,-0.8982544,0.40625,1.21875,0.4375
163,0.19897461,-0.32208252,-0.9192505,0.125,1.328125,0.28125
164,0.20092773,-0.32354736,-0.9060669,0.15625,1.15625,0.453125
165,0.19946289,-0.3196411,-0.90948486,-0.09375,0.8125,0.3125
166,0.18945312,-0.31304932,-0.9048462,-1.0,0.421875,0.1875
167,0.1784668,-0.29888916,-0.86676025,-2.890625,-2.96875,0.171875
168,0.20947266,-0.33673096,-0.9307251,-2.71875,-2.453125,0.25
169,0.21875,-0.32769775,-0.925354,-1.421875,-2.1875,0.609375
170,0.2133789,-0.33624268,-0.90802,-0.90625,-0.328125,0.1875
171,0.21411133,-0.33428955,-0.89556885,-0.484375,1.15625,0.203125
172,0.20239258,-0.3147583,-0.88238525,-0.75,0.453125,0.234375
173,0.21240234,-0.32965088,-0.9048462,-1.53125,0.03125,0.125
174,0.2290039,-0.34039307,-0.9365845,-2.84375,-0.25,-0.09375
175,0.21435547,-0.33502197,-0.9085083,-0.578125,0.859375,0.28125
176,0.2097168,-0.33184814,-0.8948364,-1.015625,1.328125,0.125
177,0.21557617,-0.32476807,-0.8989868,-0.546875,2.125,0.15625
178,0.19921875,-0.33111572,-0.8845825,0.34375,1.671875,0.421875
179,0.20092773,-0.32159424,-0.8880005,-0.015625,0.734375,0.359375
180,0.20825195,-0.33673096,-0.91070557,-0.796875,0.390625,0.203125
181,0.21655273,-0.34552002,-0.9182739,-1.1875,0.828125,0.0625
182,0.21508789,-0.3320923,-0.9036255,-0.46875,0.265625,0.34375
183,0.21069336,-0.33428955,-0.9151001,-0.609375,1.28125,0.1875
184,0.20898438,-0.33306885,-0.9067993,0.0625,1.234375,0.25
185,0.20727539,-0.3262329,-0.8916626,-0.875,1.015625,0.203125
186,0.20166016,-0.3320923,-0.8911743,-0.71875,0.546875,0.140625
187,0.20947266,-0.33624268,-0.9011841,-1.40625,0.71875,0.0
188,0.2043457,-0.33062744,-0.90411377,-0.546875,0.5625,0.359375
189,0.21191406,-0.3406372,-0.9002075,-0.796875,0.84375,0.234375
190,0.2109375,-0.33502197,-0.90338135,-0.765625,0.65625,0.328125
191,0.21264648,-0.3279419,-0.89141846,-1.25,0.515625,0.125
192,0.21411133,-0.33843994,-0.90802,-1.84375,0.609375,-0.046875
193,0.21679688,-0.3430786,-0.9116821,-2.21875,0.015625,0.15625
194,0.21386719,-0.3423462,-0.90093994,-1.34375,0.03125,0.234375
195,0.20385742,-0.34503174,-0.90167236,-1.71875,1.296875,-0.1875
196,0.20336914,-0.33428955,-0.88067627,-0.78125,1.78125,0.078125
197,0.20800781,-0.3399048,-0.8706665,-0.40625,1.15625,0.109375
198,0.20263672,-0.3411255,-0.8945923,-0.875,0.71875,0.21875
199,0.2133789,-0.3501587,-0.9077759,-0.78125,0.6875,0.328125
200,0.20483398,-0.3501587,-0.9077759,-0.140625,1.09375,0.296875
201,0.20288086,-0.34747314,-0.9092407,-0.09375,1.234375,0.328125
202,0.20483398,-0.33599854,-0.89385986,-0.015625,1.125,0.484375
203,0.20751953,-0.3381958,-0.8792114,0.578125,1.84375,0.609375
204,0.20654297,-0.34014893,-0.8987427,1.21875,1.734375,0.625
205,0.20019531,-0.32647705,-0.8809204,2.78125,1.421875,1.15625
206,0.19702148,-0.3291626,-0.892395,2.921875,0.984375,1.34375
207,0.20727539,-0.33380127,-0.9163208,2.453125,0.9375,1.03125
208,0.20263672,-0.32330322,-0.90997314,1.796875,0.734375,0.796875
209,0.21069336,-0.32891846,-0.92388916,1.53125,1.0,0.6875
210,0.20678711,-0.32769775,-0.92755127,1.125,1.265625,0.546875
211,0.2175293,-0.32110596,-0.91607666,0.875,1.46875,0.390625
212,0.20629883,-0.3135376,-0.9089966,0.734375,1.5625,0.375
213,0.20458984,-0.31304932,-0.91363525,-0.109375,1.625,0.171875
214,0.20239258,-0.3098755,-0.8999634,-0.484375,1.640625,0.171875
215,0.1965332,-0.31207275,-0.89801025,-0.78125,1.234375,0.046875
216,0.18896484,-0.3135376,-0.90411377,-0.90625,0.796875,0.21875
217,0.19702148,-0.31500244,-0.9116821,-0.921875,0.546875,0.078125
218,0.2043457,-0.31524658,-0.91778564,-1.09375,0.625,0.1875
219,0.20727539,-0.32696533,-0.9146118,-0.875,0.4375,0.15625
220,0.20483398,-0.32598877,-0.9192505,-1.6875,0.640625,0.03125
221,0.20727539,-0.32281494,-0.9192505,-1.6875,0.484375,-0.078125
222,0.20214844,-0.32574463,-0.90704346,-1.78125,0.859375,-0.015625
223,0.20727539,-0.32354736,-0.90826416,-1.671875,0.734375,0.09375
224,0.19091797,-0.3237915,-0.8897095,-1.59375,0.640625,0.125
225,0.19799805,-0.3201294,-0.8987427,-2.03125,0.453125,0.015625
226,0.19482422,-0.32354736,-0.89508057,-1.921875,0.28125,0.21875
227,0.203125,-0.33380127,-0.90802,-2.234375,0.015625,0.046875
228,0.20458984,-0.3291626,-0.9019165,-2.59375,-0.46875,0.015625
229,0.20410156,-0.33306885,-0.9014282,-2.734375,-0.46875,-0.0625
230,0.2043457,-0.34161377,-0.90802,-2.734375,-0.65625,0.140625
231,0.20800781,-0.34405518,-0.90289307,-2.984375,-0.6875,0.109375
232,0.20678711,-0.3484497,-0.89019775,-2.734375,-0.8125,0.234375
233,0.21582031,-0.3477173,-0.8953247,-2.625,-0.34375,-0.09375
234,0.21166992,-0.3567505,-0.8833618,-1.375,0.625,0.234375
235,0.21142578,-0.35943604,-0.8867798,0.453125,2.21875,0.296875
236,0.1940918,-0.33062744,-0.8452759,0.28125,0.984375,0.4375
237,0.20410156,-0.3477173,-0.8936157,-0.859375,0.921875,0.015625
238,0.2199707,-0.35601807,-0.90753174,-0.328125,0.796875,0.453125
239,0.21557617,-0.36016846,-0.9085083,0.125,1.09375,0.40625
240,0.21313477,-0.35650635,-0.8999634,1.0625,1.5625,0.5625
241,0.2019043,-0.3526001,-0.87579346,1.8125,2.375,0.828125
242,0.19433594,-0.3237915,-0.8674927,2.453125,2.1875,0.859375
243,0.20825195,-0.33551025,-0.90216064,0.359375,1.75,0.265625
244,0.20776367,-0.34552002,-0.9168091,-0.203125,2.390625,0.0
245,0.20019531,-0.33428955,-0.9002075,0.859375,2.125,0.15625
246,0.19335938,-0.33892822,-0.89190674,-0.15625,0.671875,0.453125
247,0.19995117,-0.33746338,-0.9133911,-0.984375,0.734375,0.359375
248,0.20385742,-0.33892822,-0.91656494,0.390625,0.921875,0.578125
249,0.19824219,-0.3369751,-0.89434814,0.484375,1.421875,0.578125
250,0.19604492,-0.33770752,-0.89727783,1.421875,1.5625,0.6875
251,0.19018555,-0.32696533,-0.8777466,1.96875,1.75,0.71875
252,0.19091797,-0.32305908,-0.88946533,0.75,1.390625,0.5
253,0.19580078,-0.31744385,-0.8921509,-0.078125,1.234375,0.171875
254,0.20654297,-0.3242798,-0.91485596,-0.125,1.125,0.078125
255,0.19995117,-0.33599854,-0.93048096,0.453125,1.078125,0.484375
256,0.20239258,-0.33746338,-0.94244385,0.40625,0.6875,0.609375
257,0.2133789,-0.34088135,-0.9463501,-0.15625,0.890625,0.421875
258,0.20166016,-0.31793213,-0.88604736,-0.046875,0.9375,0.390625
259,0.18798828,-0.3081665,-0.8760376,-0.25,0.875,0.25
260,0.1850586,-0.30889893,-0.8713989,-0.25,0.75,0.265625
261,0.1862793,-0.3110962,-0.8740845,0.203125,1.28125,0.390625
262,0.20336914,-0.32110596,-0.9260864,0.640625,1.375,0.546875
263,0.20825195,-0.33428955,-0.95147705,0.5,1.28125,0.46875
264,0.20996094,-0.3447876,-0.96417236,-0.359375,0.90625,0.40625
265,0.19970703,-0.32330322,-0.90753174,-0.6875,0.734375,0.21875
266,0.19018555,-0.30767822,-0.90460205,-1.34375,0.859375,0.125
267,0.19335938,-0.31158447,-0.9168091,-1.640625,0.65625,0.09375
268,0.18945312,-0.31158447,-0.89312744,-1.0,0.671875,0.15625
269,0.18798828,-0.32061768,-0.87750244,-0.046875,0.59375,0.328125
270,0.18530273,-0.32525635,-0.8989868,-0.21875,0.671875,0.28125
271,0.19750977,-0.33184814,-0.91851807,-0.515625,1.0,0.265625
272,0.20092773,-0.3267212,-0.91729736,-0.484375,0.640625,0.25
273,0.19946289,-0.32525635,-0.923645,-0.359375,0.5,0.515625
274,0.1940918,-0.3320923,-0.91729736,-0.015625,0.78125,0.53125
275,0.19555664,-0.32061768,-0.9026489,0.171875,0.96875,0.453125
276,0.18847656,-0.3123169,-0.9006958,0.3125,0.84375,0.453125
277,0.1965332,-0.31158447,-0.8989868,0.046875,0.828125,0.140625
278,0.19262695,-0.31671143,-0.90216064,-0.296875,1.09375,0.28125
279,0.1940918,-0.32305908,-0.91485596,-0.453125,0.9375,0.078125
280,0.2006836,-0.32525635,-0.92144775,-0.703125,0.734375,0.09375
281,0.19311523,-0.31915283,-0.9092407,-0.328125,0.546875,0.359375
282,0.1940918,-0.31793213,-0.92388916,-0.96875,0.59375,0.140625
283,0.19750977,-0.32159424,-0.90948486,-1.234375,0.453125,0.109375
284,0.19091797,-0.31988525,-0.90411377,-1.234375,0.3125,0.234375
285,0.19702148,-0.32574463,-0.90509033,-1.75,0.21875,0.015625
286,0.19482422,-0.3123169,-0.9006958,-1.34375,0.34375,0.140625
287,0.19335938,-0.32769775,-0.897522,-1.46875,0.390625,0.125
288,0.20019531,-0.3255005,-0.9043579,-1.09375,0.40625,0.265625
289,0.19702148,-0.331604,-0.91778564,-1.078125,0.390625,0.171875
290,0.20507812,-0.3328247,-0.9121704,-0.78125,0.671875,0.15625
291,0.19970703,-0.333313,-0.91241455,-0.75,0.765625,0.3125
292,0.1977539,-0.32989502,-0.90509033,-0.59375,0.921875,0.203125
293,0.19116211,-0.32720947,-0.897522,-0.203125,1.234375,0.25
294,0.19165039,-0.3184204,-0.88946533,-0.671875,0.9375,0.234375
295,0.18359375,-0.30889893,-0.8821411,-2.65625,-1.828125,0.03125
296,0.21679688,-0.3399048,-0.91363525,-5.546875,-4.484375,-0.34375
297,0.23046875,-0.37017822,-0.96881104,-0.984375,1.078125,0.21875
298,0.19970703,-0.32867432,-0.86138916,-1.71875,0.359375,0.109375
299,0.20361328,-0.3411255,-0.89508057,-1.234375,1.484375,-0.03125
300,0.20239258,-0.32647705,-0.881897,-0.40625,0.984375,0.0625
301,0.20654297,-0.33746338,-0.8928833,-0.28125,1.0625,0.296875
302,0.19628906,-0.33673096,-0.8838501,-0.125,0.859375,0.40625
303,0.20507812,-0.32891846,-0.894104,0.671875,1.203125,0.5
304,0.20800781,-0.333313,-0.894104,-0.09375,1.0,0.296875
305,0.20507812,-0.35211182,-0.91534424,-0.921875,1.09375,0.203125
306,0.20996094,-0.34259033,-0.92193604,-0.96875,1.6875,-0.109375
307,0.20214844,-0.3369751,-0.8982544,-0.75,1.515625,0.015625
308,0.19018555,-0.3357544,-0.8779907,-0.546875,0.578125,0.484375
309,0.19482422,-0.3430786,-0.8858032,-0.796875,-0.03125,0.328125
310,0.21069336,-0.348938,-0.91534424,-0.6875,0.578125,0.359375
311,0.19848633,-0.33721924,-0.8953247,-0.578125,0.8125,0.15625
312,0.1977539,-0.35235596,-0.9072876,-0.765625,1.46875,0.125
313,0.20214844,-0.32989502,-0.9055786,-0.6875,1.625,0.1875
314,0.19848633,-0.33966064,-0.8765259,-0.28125,1.15625,0.15625
315,0.19311523,-0.33599854,-0.8960571,-0.046875,0.703125,0.328125
316,0.20581055,-0.331604,-0.911438,-0.734375,0.59375,0.34375
317,0.21069336,-0.35699463,-0.9299927,-0.53125,0.875,0.515625
318,0.20410156,-0.35186768,-0.90093994,-0.203125,1.03125,0.28125
319,0.1928711,-0.3394165,-0.88897705,-0.078125,1.25,0.484375
320,0.19067383,-0.33673096,-0.89068604,-0.515625,0.59375,0.453125
321,0.19360352,-0.33428955,-0.8870239,-0.53125,0.859375,0.40625
322,0.19750977,-0.33892822,-0.8887329,-0.484375,0.578125,0.296875
323,0.20458984,-0.3435669,-0.90997314,-0.234375,0.53125,0.515625
324,0.203125,-0.34820557,-0.911438,-0.515625,0.828125,0.328125
325,0.19824219,-0.3399048,-0.90338135,-0.78125,0.9375,0.234375
326,0.20410156,-0.33892822,-0.8904419,-1.09375,0.671875,0.015625
327,0.20385742,-0.3423462,-0.90167236,-1.421875,0.484375,0.203125
328,0.19873047,-0.34136963,-0.8928833,-0.734375,1.03125,0.265625
329,0.1953125,-0.3399048,-0.88897705,-0.34375,0.765625,0.390625
330,0.19702148,-0.34576416,-0.8977661,-0.5,0.53125,0.28125
331,0.20581055,-0.34454346,-0.9006958,-0.859375,0.90625,0.1875
332,0.20043945,-0.3411255,-0.89434814,-0.890625,0.78125,0.203125
333,0.20141602,-0.3418579,-0.88946533,-0.640625,0.84375,0.328125
334,0.20629883,-0.34991455,-0.9011841,-0.578125,0.828125,0.3125
335,0.19970703,-0.35162354,-0.90045166,-0.625,0.65625,0.15625
336,0.19433594,-0.3477173,-0.90582275,-0.65625,0.65625,0.40625
337,0.20410156,-0.34576416,-0.90045166,-0.203125,0.96875,0.375
338,0.20239258,-0.34552002,-0.8970337,0.625,1.3125,0.296875
339,0.20043945,-0.34454346,-0.88360596,3.234375,1.671875,0.953125
340,0.18823242,-0.32769775,-0.8726196,4.5,1.359375,1.453125
341,0.19750977,-0.32696533,-0.8821411,4.25,0.765625,1.546875
342,0.20629883,-0.3225708,-0.91070557,3.234375,1.234375,1.1875
343,0.21166992,-0.3303833,-0.9505005,0.71875,1.09375,0.8125
344,0.20898438,-0.32720947,-0.9368286,-0.21875,1.421875,0.0
345,0.20629883,-0.32598877,-0.9212036,-0.25,1.546875,0.15625
346,0.20458984,-0.3225708,-0.9170532,-0.484375,1.453125,0.28125
347,0.18969727,-0.31378174,-0.89556885,-0.546875,1.359375,0.125
348,0.18798828,-0.31280518,-0.89508057,-0.28125,0.84375,0.328125
349,0.1953125,-0.31011963,-0.9002075,-0.203125,0.984375,0.171875
350,0.1940918,-0.3164673,-0.9036255,-0.359375,0.78125,0.296875
351,0.19555664,-0.3213501,-0.909729,-0.453125,0.71875,0.28125
352,0.19604492,-0.32183838,-0.9212036,-0.703125,0.625,0.25
353,0.1965332,-0.32183838,-0.9212036,-0.5,0.625,0.296875
354,0.20166016,-0.3189087,-0.9146118,-0.515625,0.4375,0.328125
355,0.20166016,-0.3184204,-0.90704346,-0.015625,0.671875,0.46875
356,0.19946289,-0.30841064,-0.89923096,0.125,0.734375,0.515625
357,0.1953125,-0.31427002,-0.8989868,0.03125,0.875,0.359375
358,0.19458008,-0.3196411,-0.9126587,-0.359375,1.015625,0.25
359,0.19580078,-0.31671143,-0.9065552,-0.40625,0.84375,0.3125
360,0.20019531,-0.31427002,-0.9085083,-0.640625,0.859375,0.15625
361,0.1965332,-0.3189087,-0.9146118,-0.390625,0.6875,0.3125
362,0.20141602,-0.31817627,-0.9212036,-0.484375,0.8125,0.421875
363,0.18408203,-0.30377197,-0.8867798,-1.578125,0.234375,0.203125
364,0.18701172,-0.3027954,-0.8855591,-5.046875,-2.984375,-0.25
365,0.22460938,-0.3562622,-0.9651489,-5.46875,-0.8125,-0.6875
366,0.2109375,-0.33062744,-0.9109497,-2.578125,0.515625,-0.125
367,0.1977539,-0.3418579,-0.88409424,-1.859375,1.3125,-0.1875
368,0.19604492,-0.333313,-0.894104,-0.703125,1.640625,0.0
369,0.2006836,-0.3237915,-0.8735962,-0.9375,0.703125,0.234375
370,0.19750977,-0.32989502,-0.8987427,-0.875,0.453125,0.265625
371,0.20776367,-0.34259033,-0.92388916,-1.40625,0.296875,0.09375
372,0.21728516,-0.35772705,-0.9302368,-0.4375,1.09375,0.34375
373,0.19165039,-0.33795166,-0.89508057,0.203125,0.921875,0.53125
374,0.20483398,-0.33721924,-0.89727783,0.5,1.28125,0.484375
375,0.19165039,-0.32183838,-0.88360596,0.015625,0.625,0.640625
376,0.19140625,-0.3213501,-0.8838501,-0.515625,0.75,0.390625
377,0.20214844,-0.3352661,-0.8970337,-0.984375,0.671875,0.265625
378,0.20800781,-0.35479736,-0.92974854,-1.15625,1.25,0.15625
379,0.19970703,-0.34014893,-0.89678955,-0.875,1.15625,0.015625
380,0.19628906,-0.34454346,-0.9067993,-1.40625,0.359375,-0.21875
381,0.20605469,-0.31549072,-0.8965454,-2.09375,-0.75,-0.140625
382,0.21850586,-0.33770752,-0.8897095,-0.703125,0.296875,0.15625
383,0.18432617,-0.3242798,-0.8657837,-1.171875,1.375,0.109375
384,0.2055664,-0.35284424,-0.91656494,1.109375,1.109375,0.828125
385,0.2019043,-0.35040283,-0.9024048,0.125,0.625,0.578125
386,0.20825195,-0.34136963,-0.909729,-0.640625,-0.1875,0.625
387,0.2043457,-0.34381104,-0.9019165,-1.21875,-0.09375,0.328125
388,0.2109375,-0.3477173,-0.9170532,-2.1875,-0.0625,-0.171875
389,0.21362305,-0.34332275,-0.9192505,-2.75,0.546875,-0.390625
390,0.21289062,-0.3567505,-0.91070557,-2.5,1.71875,-0.328125
391,0.20678711,-0.34429932,-0.87750244,-3.53125,1.703125,-0.734375
392,0.21240234,-0.35357666,-0.9138794,-4.140625,2.1875,-1.078125
393,0.1940918,-0.3562622,-0.8753052,-3.171875,1.953125,-0.9375
394,0.19824219,-0.34332275,-0.85601807,-1.921875,2.5625,-0.734375
395,0.1875,-0.35357666,-0.85113525,-0.03125,2.6875,-0.28125
396,0.1784668,-0.3567505,-0.878479,0.9375,1.359375,0.5
397,0.19506836,-0.36602783,-0.90167236,1.71875,1.375,0.921875
398,0.19189453,-0.37872314,-0.90093994,2.453125,1.046875,1.171875
399,0.19482422,-0.36065674,-0.91412354,2.359375,1.296875,0.96875
400,0.20410156,-0.35650635,-0.9143677,1.453125,1.234375,1.0
401,0.20458984,-0.34381104,-0.913147,0.46875,1.296875,0.5625
402,0.1850586,-0.33721924,-0.9053345,0.0625,0.984375,0.578125
403,0.19116211,-0.33428955,-0.89434814,-0.3125,0.234375,0.578125
404,0.18774414,-0.33233643,-0.8880005,-0.359375,0.359375,0.46875
405,0.19628906,-0.3411255,-0.86846924,-0.359375,0.40625,0.453125
406,0.19116211,-0.34454346,-0.8916626,-0.265625,0.359375,0.5
407,0.19897461,-0.33868408,-0.8882446,0.0625,-0.15625,0.828125
408,0.19628906,-0.34454346,-0.9014282,-0.09375,-1.0,0.859375
409,0.18945312,-0.3538208,-0.8882446,-1.09375,-2.953125,0.953125
410,0.24658203,-0.36676025,-0.90509033,-0.546875,-2.78125,1.046875
411,0.21386719,-0.35528564,-0.93414307,0.3125,-0.28125,1.0
412,0.21850586,-0.35845947,-0.87579346,-0.25,1.0625,0.21875
413,0.2199707,-0.34918213,-0.9380493,-0.53125,2.640625,-0.296875
414,0.20532227,-0.33184814,-0.8948364,-1.90625,2.59375,-0.875
415,0.19335938,-0.32574463,-0.86846924,-2.234375,1.765625,-0.6875
416,0.20141602,-0.32574463,-0.8677368,-2.21875,1.3125,-0.203125
417,0.20727539,-0.36846924,-0.8982544,-1.28125,0.96875,0.046875
418,0.18896484,-0.3411255,-0.88604736,-0.078125,0.390625,0.6875
419,0.20605469,-0.35650635,-0.9194946,0.109375,0.453125,0.84375
420,0.21508789,-0.34674072,-0.90167236,0.8125,0.671875,0.671875
421,0.1887207,-0.37628174,-0.9092407,-1.109375,2.25,-0.171875
422,0.21142578,-0.37335205,-0.93927,-2.203125,2.8125,-0.625
423,0.20678711,-0.3567505,-0.9234009,-3.4375,2.796875,-0.9375
424,0.18115234,-0.33868408,-0.848938,-2.0625,1.9375,-0.234375
425,0.18457031,-0.32403564,-0.85284424,-0.890625,1.1875,0.234375
426,0.18286133,-0.3423462,-0.8718872,0.28125,0.328125,0.8125
427,0.18554688,-0.36676025,-0.9006958,0.71875,-0.203125,0.921875
428,0.22167969,-0.35455322,-0.928772,0.859375,-0.53125,1.265625
429,0.19702148,-0.38311768,-0.927063,-0.734375,-0.671875,0.75
430,0.21508789,-0.36676025,-0.9180298,-0.859375,1.515625,-0.125
431,0.19726562,-0.36724854,-0.90875244,-1.9375,1.71875,-0.609375
432,0.2006836,-0.33770752,-0.86846924,-1.453125,1.875,-0.375
433,0.18432617,-0.33892822,-0.8648071,-1.09375,1.34375,0.015625
434,0.18359375,-0.34405518,-0.8599243,-0.0625,0.484375,0.375
435,0.19799805,-0.36016846,-0.9002075,0.625,0.140625,0.734375
436,0.19482422,-0.35845947,-0.90289307,0.640625,-0.546875,1.03125
437,0.20996094,-0.3562622,-0.928772,0.203125,-0.625,1.0
438,0.18896484,-0.37042236,-0.90875244,-0.265625,0.234375,0.78125
439,0.20629883,-0.37017822,-0.9019165,-0.109375,1.546875,0.03125
440,0.19677734,-0.3633423,-0.927063,-0.578125,1.609375,-0.078125
441,0.1940918,-0.33673096,-0.8777466,-0.5,0.953125,0.265625
442,0.19555664,-0.3345337,-0.8694458,0.0625,0.78125,0.375
443,0.19360352,-0.34381104,-0.8850708,0.75,0.953125,0.578125
444,0.20751953,-0.35455322,-0.8831177,1.265625,1.0625,0.734375
445,0.20410156,-0.3538208,-0.90289307,1.515625,1.671875,0.65625
446,0.19580078,-0.35186768,-0.9104614,0.796875,1.078125,0.828125
447,0.21704102,-0.33428955,-0.9143677,1.09375,0.984375,0.890625
448,0.19628906,-0.3526001,-0.9180298,0.671875,0.75,0.859375
449,0.20825195,-0.35211182,-0.8858032,0.109375,0.421875,0.71875
450,0.18383789,-0.34014893,-0.927063,-0.59375,1.078125,0.0
451,0.19384766,-0.32891846,-0.90093994,-0.65625,1.765625,-0.4375
452,0.20043945,-0.3357544,-0.88946533,-1.0625,1.3125,0.078125
453,0.19189453,-0.33184814,-0.88116455,-0.53125,0.34375,0.5
454,0.19165039,-0.33551025,-0.8953247,0.015625,0.46875,0.53125
455,0.18945312,-0.35284424,-0.9072876,0.609375,0.390625,0.703125
456,0.19750977,-0.33966064,-0.9209595,0.515625,0.640625,0.890625
457,0.20288086,-0.33673096,-0.9116821,0.109375,0.25,0.796875
458,0.19702148,-0.33599854,-0.89385986,-0.078125,0.1875,0.59375
459,0.20605469,-0.33599854,-0.90093994,0.0,1.140625,0.25
460,0.19384766,-0.34259033,-0.90631104,-0.8125,1.375,-0.140625
461,0.1977539,-0.3303833,-0.89849854,-1.046875,1.15625,-0.125
462,0.1965332,-0.317688,-0.87994385,-1.328125,-0.3125,0.109375
463,0.19897461,-0.3279419,-0.88287354,-0.09375,-2.015625,0.78125
464,0.21508789,-0.3411255,-0.8982544,0.078125,-1.296875,0.59375
465,0.2175293,-0.34161377,-0.94659424,-0.140625,0.828125,0.40625
466,0.20483398,-0.3291626,-0.91070557,-0.4375,-0.75,0.90625
467,0.19750977,-0.3460083,-0.89923096,-1.6875,0.46875,-0.046875
468,0.2043457,-0.35284424,-0.9168091,-1.875,1.890625,-0.28125
469,0.20678711,-0.3345337,-0.88604736,-1.484375,2.125,-0.40625
470,0.2055664,-0.32843018,-0.8748169,-1.515625,1.46875,-0.15625
471,0.20458984,-0.33551025,-0.8826294,-0.40625,0.765625,0.390625
472,0.1977539,-0.32891846,-0.8796997,-0.28125,0.046875,0.765625
473,0.2109375,-0.3447876,-0.91607666,0.125,-0.5,1.0
474,0.20581055,-0.34698486,-0.895813,0.28125,0.703125,0.578125
475,0.20800781,-0.36260986,-0.93292236,-0.21875,2.171875,0.203125
476,0.21777344,-0.3423462,-0.9168091,-1.234375,2.390625,-0.296875
477,0.20043945,-0.34576416,-0.89556885,-2.234375,2.4375,-0.59375
478,0.18652344,-0.31866455,-0.87677,-2.09375,2.921875,-0.859375
479,0.18847656,-0.32305908,-0.86968994,-1.140625,2.765625,-0.4375
480,0.18237305,-0.3201294,-0.864563,0.390625,2.578125,-0.140625
481,0.17871094,-0.34014893,-0.8928833,1.6875,2.265625,0.46875
482,0.18774414,-0.35162354,-0.91973877,2.171875,1.546875,0.765625
483,0.18920898,-0.3591919,-0.9414673,1.765625,0.9375,0.921875
484,0.19335938,-0.3579712,-0.940979,0.21875,0.53125,0.84375
485,0.18579102,-0.3447876,-0.9229126,-0.375,0.90625,0.296875
486,0.1809082,-0.33502197,-0.90289307,-0.625,1.015625,0.359375
487,0.17797852,-0.32305908,-0.88482666,-0.5625,0.546875,0.46875
488,0.18066406,-0.31378174,-0.8718872,-0.53125,0.265625,0.75
489,0.18310547,-0.31793213,-0.8760376,-0.046875,0.375,0.609375
490,0.18554688,-0.3201294,-0.89434814,0.03125,0.453125,0.484375
491,0.20239258,-0.34283447,-0.91851807,0.09375,0.84375,0.5
492,0.20507812,-0.34454346,-0.9343872,-0.171875,1.3125,0.28125
493,0.20043945,-0.34454346,-0.9351196,-0.84375,1.328125,0.0625
494,0.1940918,-0.33843994,-0.9234009,-1.4375,1.390625,0.03125
495,0.18017578,-0.331604,-0.8867798,-0.921875,1.203125,-0.0625
496,0.17749023,-0.317688,-0.8753052,-0.375,1.09375,0.265625
497,0.17822266,-0.3267212,-0.8779907,0.0,0.875,0.421875
498,0.1899414,-0.331604,-0.8994751,0.1875,0.515625,0.578125
499,0.18261719,-0.33013916,-0.90338135,-0.1875,-0.28125,0.484375
500,0.19897461,-0.3430786,-0.93218994,-1.28125,0.125,0.15625
501,0.20092773,-0.34210205,-0.9187622,-0.390625,1.0,0.21875
502,0.1977539,-0.3352661,-0.89801025,-0.5625,1.09375,0.0625
503,0.19067383,-0.33013916,-0.897522,-0.375,0.453125,0.21875
504,0.18286133,-0.33673096,-0.89068604,1.0,0.0,0.59375
505,0.19042969,-0.32208252,-0.89727783,1.984375,0.5625,0.796875
506,0.19555664,-0.33233643,-0.9102173,1.140625,0.359375,0.75
507,0.19604492,-0.35430908,-0.95269775,-1.234375,-0.34375,0.34375
508,0.19946289,-0.3411255,-0.94244385,-2.203125,0.015625,0.390625
509,0.19482422,-0.32159424,-0.8977661,-3.40625,0.390625,-0.1875
510,0.18334961,-0.3106079,-0.87506104,-3.703125,0.265625,-0.359375
511,0.1772461,-0.31036377,-0.8567505,-2.484375,-0.234375,0.125
512,0.18554688,-0.32305908,-0.8699341,-1.640625,-1.21875,0.8125
513,0.2019043,-0.33721924,-0.8674927,-0.109375,-1.859375,1.375
514,0.21777344,-0.3633423,-0.93707275,-0.390625,-1.328125,1.015625
515,0.22314453,-0.36920166,-0.9351196,0.4375,0.453125,0.796875
516,0.2253418,-0.36016846,-0.9212036,-0.1875,1.8125,0.078125
517,0.20825195,-0.3423462,-0.89727783,-0.4375,1.796875,-0.25
518,0.19213867,-0.32330322,-0.87701416,-0.984375,2.078125,-0.125
519,0.18603516,-0.30718994,-0.861145,-0.015625,1.296875,0.296875
520,0.19506836,-0.32159424,-0.866272,0.328125,0.8125,0.703125
521,0.19873047,-0.3369751,-0.9092407,0.671875,0.484375,0.78125
522,0.2097168,-0.34503174,-0.93341064,0.046875,0.328125,0.65625
523,0.20751953,-0.3550415,-0.925354,-0.734375,0.65625,0.03125
524,0.2133789,-0.35406494,-0.93707275,-2.046875,1.6875,-0.453125
525,0.21386719,-0.3418579,-0.9180298,-2.328125,1.4375,-0.328125
526,0.19140625,-0.3352661,-0.85772705,-1.65625,0.3125,0.0
527,0.19067383,-0.3267212,-0.8718872,-0.578125,0.015625,0.5
528,0.19458008,-0.33062744,-0.8640747,0.359375,-0.328125,1.28125
529,0.20947266,-0.34869385,-0.9002075,-0.03125,0.078125,0.796875
530,0.2006836,-0.34625244,-0.9126587,-0.0625,0.640625,0.3125
531,0.2133789,-0.35772705,-0.9299927,-0.265625,1.140625,-0.015625
532,0.21411133,-0.34796143,-0.909729,-0.046875,1.046875,0.375
533,0.20629883,-0.32965088,-0.89556885,0.640625,1.03125,0.5625
534,0.19458008,-0.32574463,-0.88165283,2.421875,0.78125,0.9375
535,0.19604492,-0.32989502,-0.8814087,4.0,1.140625,1.40625
536,0.20605469,-0.32525635,-0.9146118,3.40625,1.40625,1.359375
537,0.20532227,-0.33111572,-0.92681885,1.46875,1.65625,0.609375
538,0.2084961,-0.32647705,-0.93170166,-0.0625,1.84375,0.0
539,0.20629883,-0.31671143,-0.9265747,-1.28125,1.765625,-0.140625
540,0.19604492,-0.3171997,-0.90753174,-1.0625,1.703125,-0.171875
541,0.19970703,-0.32037354,-0.90045166,-0.703125,1.25,0.078125
542,0.19726562,-0.31671143,-0.9060669,-0.484375,1.140625,0.21875
543,0.2019043,-0.3201294,-0.90582275,-0.296875,0.921875,0.296875
544,0.19604492,-0.3237915,-0.90997314,-0.734375,1.078125,0.234375
545,0.19897461,-0.317688,-0.90802,-0.96875,0.765625,0.109375
546,0.19360352,-0.3189087,-0.88897705,-1.0625,0.8125,0.25
547,0.19677734,-0.32476807,-0.9055786,-0.640625,0.828125,0.1875
548,0.19360352,-0.32403564,-0.9077759,-0.640625,1.0,0.296875
549,0.20043945,-0.32891846,-0.9067993,-0.328125,1.046875,0.390625
550,0.20043945,-0.3279419,-0.91192627,-0.03125,0.6875,0.546875
551,0.18920898,-0.3171997,-0.9102173,-0.0625,0.8125,0.28125
552,0.19360352,-0.33062744,-0.909729,-0.296875,0.890625,0.296875
553,0.20043945,-0.3267212,-0.90411377,-0.25,0.734375,0.234375
554,0.19506836,-0.32354736,-0.90631104,-0.328125,0.65625,0.421875
555,0.19311523,-0.31524658,-0.90167236,-0.421875,0.6875,0.4375
556,0.20214844,-0.32281494,-0.90338135,-0.28125,0.890625,0.359375
557,0.20141602,-0.3267212,-0.9104614,-0.3125,0.78125,0.359375
558,0.19506836,-0.32208252,-0.9019165,-0.234375,1.015625,0.390625
559,0.2006836,-0.31549072,-0.9143677,-0.421875,0.9375,0.21875
560,0.19946289,-0.3171997,-0.90875244,-0.796875,1.03125,0.203125
561,0.19726562,-0.32037354,-0.89801025,-0.21875,0.859375,0.5
562,0.1965332,-0.31549072,-0.90509033,0.046875,0.6875,0.40625
563,0.20263672,-0.31304932,-0.9060669,-0.484375,0.9375,0.3125
564,0.19360352,-0.31817627,-0.9031372,-0.640625,0.890625,0.296875
565,0.19873047,-0.32525635,-0.9102173,-0.4375,0.71875,0.25
566,0.20214844,-0.32696533,-0.9138794,-0.203125,0.8125,0.328125
567,0.20898438,-0.32208252,-0.9209595,-0.328125,0.84375,0.296875
568,0.19458008,-0.32574463,-0.9085083,-0.234375,0.921875,0.3125
569,0.1977539,-0.32037354,-0.9092407,-0.375,0.703125,0.265625
570,0.19897461,-0.30767822,-0.89385986,-0.5625,0.984375,0.28125
571,0.18701172,-0.3123169,-0.9019165,-0.515625,0.921875,0.203125
572,0.20141602,-0.31915283,-0.9146118,-0.34375,0.875,0.296875
573,0.19165039,-0.3189087,-0.90338135,-0.203125,0.84375,0.21875
574,0.20019531,-0.31671143,-0.90802,-0.890625,0.90625,0.15625
575,0.20117188,-0.31524658,-0.89923096,-1.078125,0.390625,0.28125
576,0.19677734,-0.31866455,-0.9014282,-1.515625,-0.296875,0.09375
577,0.20288086,-0.33111572,-0.9163208,-2.53125,-0.5,0.140625
578,0.20214844,-0.32769775,-0.9182739,-0.921875,0.65625,0.234375
579,0.19458008,-0.31915283,-0.8833618,-0.0625,0.71875,0.484375
580,0.19506836,-0.31988525,-0.8723755,0.5625,0.59375,0.671875
581,0.19995117,-0.32305908,-0.892395,1.09375,0.71875,0.71875
582,0.20336914,-0.33233643,-0.92681885,0.5,0.328125,0.703125
583,0.21069336,-0.3345337,-0.9439087,0.0,0.84375,0.359375
584,0.20141602,-0.33428955,-0.9380493,-0.359375,1.40625,0.09375
585,0.21313477,-0.32720947,-0.92926025,-1.84375,1.703125,-0.3125
586,0.203125,-0.315979,-0.8999634,-2.140625,1.4375,-0.203125
587,0.19091797,-0.31329346,-0.87213135,-0.65625,1.375,0.296875
588,0.17797852,-0.29522705,-0.8479614,0.21875,0.71875,0.734375
589,0.18554688,-0.30743408,-0.8513794,0.53125,0.140625,0.96875
590,0.20581055,-0.32476807,-0.9204712,-0.640625,-0.46875,0.6875
591,0.21142578,-0.34161377,-0.95928955,-1.0625,-0.078125,0.3125
592,0.2109375,-0.35772705,-0.94903564,-0.875,0.8125,-0.109375
593,0.22949219,-0.34283447,-0.9590454,-2.109375,2.1875,-0.71875
594,0.20117188,-0.3237915,-0.90411377,-1.671875,1.46875,-0.21875
595,0.1899414,-0.30621338,-0.864563,-0.984375,0.859375,0.359375
596,0.18774414,-0.30133057,-0.85284424,-0.515625,0.703125,0.671875
597,0.18603516,-0.31329346,-0.85528564,-0.171875,0.703125,0.46875
598,0.19702148,-0.31988525,-0.8875122,-0.484375,0.078125,0.46875
599,0.2084961,-0.33917236,-0.9365845,-1.140625,0.453125,0.046875
600,0.21533203,-0.3538208,-0.93878174,-1.71875,0.53125,-0.265625
601,0.21020508,-0.35455322,-0.94781494,-1.234375,1.578125,-0.234375
602,0.21264648,-0.33355713,-0.91656494,-1.203125,1.4375,-0.03125
603,0.19970703,-0.3184204,-0.8862915,-0.703125,1.25,0.109375
604,0.18481445,-0.31573486,-0.8545532,0.09375,0.90625,0.484375
605,0.18261719,-0.31402588,-0.8616333,0.515625,0.65625,0.671875
606,0.19116211,-0.32208252,-0.87677,0.46875,0.171875,0.703125
607,0.19921875,-0.33306885,-0.92437744,-1.03125,-0.71875,0.46875
608,0.21118164,-0.3508911,-0.95440674,-1.5,-0.21875,0.21875
609,0.21728516,-0.35284424,-0.9378052,-1.3125,0.921875,-0.140625
610,0.21679688,-0.34576416,-0.93536377,-1.25,1.46875,-0.078125
611,0.20581055,-0.3328247,-0.90509033,-1.015625,1.34375,0.171875
612,0.19433594,-0.317688,-0.878479,-0.515625,1.5,0.328125
613,0.19067383,-0.31866455,-0.8623657,0.53125,1.71875,0.578125
614,0.19628906,-0.3250122,-0.8711548,0.859375,1.40625,0.5
615,0.19091797,-0.33062744,-0.8909302,1.203125,1.765625,0.421875
616,0.18945312,-0.32452393,-0.89190674,1.734375,2.125,0.40625
617,0.19165039,-0.33502197,-0.925354,1.875,2.28125,0.59375
618,0.19384766,-0.3340454,-0.95513916,0.890625,1.71875,0.484375
619,0.20385742,-0.33087158,-0.94415283,0.40625,1.03125,0.578125
620,0.20043945,-0.32110596,-0.923645,0.046875,0.609375,0.609375
621,0.19824219,-0.317688,-0.9138794,-0.125,0.625,0.4375
622,0.18920898,-0.30889893,-0.8899536,-0.6875,0.734375,0.265625
623,0.19116211,-0.30426025,-0.89068604,-1.375,0.40625,0.1875
624,0.18969727,-0.31915283,-0.8945923,-1.5625,0.296875,0.03125
625,0.19189453,-0.32769775,-0.91070557,-2.015625,0.515625,0.046875
626,0.19384766,-0.33062744,-0.91412354,-2.09375,0.484375,0.078125
627,0.20336914,-0.33502197,-0.9248657,-2.15625,0.71875,-0.140625
628,0.2019043,-0.33380127,-0.91973877,-1.921875,0.9375,-0.046875
629,0.1928711,-0.33551025,-0.909729,-1.390625,1.125,0.171875
630,0.19433594,-0.32818604,-0.89312744,-0.671875,1.46875,0.078125
631,0.17456055,-0.3225708,-0.86553955,0.03125,1.171875,0.265625
632,0.17480469,-0.30377197,-0.83843994,0.703125,0.328125,0.609375
633,0.17749023,-0.31085205,-0.8633423,1.015625,0.0625,0.734375
634,0.20092773,-0.33770752,-0.91900635,2.265625,0.796875,0.921875
635,0.2084961,-0.3291626,-0.9380493,1.890625,1.546875,0.71875
636,0.20019531,-0.34552002,-0.94903564,1.515625,0.984375,0.625
637,0.20043945,-0.33258057,-0.9714966,-0.8125,1.421875,0.109375
638,0.20385742,-0.3237915,-0.93878174,-2.390625,1.296875,-0.390625
639,0.1875,-0.31524658,-0.8858032,-2.078125,0.953125,-0.15625
640,0.18115234,-0.30963135,-0.8623657,-0.625,0.4375,0.515625
641,0.17602539,-0.2954712,-0.83380127,1.046875,-0.25,1.0625
642,0.1875,-0.31134033,-0.85479736,2.390625,-0.390625,1.359375
643,0.1862793,-0.32989502,-0.9368286,0.671875,-1.265625,0.9375
644,0.19116211,-0.34796143,-0.94537354,0.703125,0.421875,0.3125
645,0.22583008,-0.34918213,-0.9829712,-0.609375,1.6875,-0.65625
646,0.21606445,-0.33428955,-0.9788208,-2.78125,2.671875,-0.921875
647,0.19848633,-0.30718994,-0.9168091,-2.59375,1.765625,-0.453125
648,0.18774414,-0.29351807,-0.866272,-1.625,0.34375,0.234375
649,0.17553711,-0.2805786,-0.8233032,0.078125,0.671875,0.6875
650,0.1821289,-0.31158447,-0.8706665,1.296875,0.703125,1.015625
651,0.19140625,-0.31500244,-0.9053345,0.703125,0.15625,0.921875
652,0.20458984,-0.34454346,-0.9546509,-0.59375,0.609375,0.171875
653,0.20776367,-0.364563,-0.97003174,-2.5625,0.828125,-0.4375
654,0.20678711,-0.3418579,-0.972229,-3.4375,1.609375,-0.78125
655,0.20092773,-0.3274536,-0.91778564,-2.40625,1.21875,-0.484375
656,0.19165039,-0.31256104,-0.8804321,-0.546875,0.640625,0.359375
657,0.1821289,-0.3057251,-0.8491821,1.171875,0.421875,1.0
658,0.18359375,-0.30377197,-0.84747314,1.875,-0.296875,1.484375
659,0.18579102,-0.31793213,-0.8989868,0.40625,-1.109375,1.171875
660,0.20532227,-0.33355713,-0.94122314,-1.28125,-0.171875,0.421875
661,0.20288086,-0.348938,-0.95928955,-2.359375,0.328125,-0.4375
662,0.21240234,-0.34503174,-0.9607544,-3.375,2.046875,-1.125
663,0.20703125,-0.34405518,-0.93756104,-2.75,2.25,-1.078125
664,0.20581055,-0.33135986,-0.90045166,-2.8125,2.125,-0.53125
665,0.19433594,-0.3242798,-0.8352661,-1.203125,1.546875,0.453125
666,0.16967773,-0.3032837,-0.81329346,0.984375,0.875,0.9375
667,0.17529297,-0.29766846,-0.8328247,1.6875,1.015625,0.828125
668,0.18554688,-0.32208252,-0.90997314,1.046875,0.5,0.5
669,0.17138672,-0.3423462,-0.9312134,0.703125,0.953125,0.375
670,0.20727539,-0.36187744,-0.97540283,-1.359375,1.453125,-0.3125
671,0.22265625,-0.3670044,-0.9819946,-2.578125,1.21875,-0.609375
672,0.19628906,-0.3435669,-0.927063,-2.34375,0.5,-0.171875
673,0.19067383,-0.317688,-0.8921509,-0.96875,0.015625,0.5625
674,0.18310547,-0.2962036,-0.8374634,0.875,-0.59375,1.234375
675,0.17480469,-0.30548096,-0.8428345,0.671875,-1.078125,1.265625
676,0.17529297,-0.31378174,-0.8648071,0.015625,-0.84375,0.859375
677,0.19921875,-0.33111572,-0.9170532,-0.53125,-0.34375,0.484375
678,0.21948242,-0.364563,-0.942688,-0.96875,0.578125,-0.109375
679,0.22314453,-0.35406494,-0.95147705,-1.1875,1.046875,-0.15625
680,0.20751953,-0.34014893,-0.92681885,0.140625,1.234375,0.296875
681,0.20605469,-0.32037354,-0.9065552,1.859375,1.328125,0.875
682,0.19262695,-0.31256104,-0.89068604,2.71875,1.171875,1.078125
683,0.19018555,-0.3147583,-0.8899536,2.296875,1.375,1.125
684,0.19750977,-0.30474854,-0.89556885,1.15625,1.21875,0.671875
685,0.20043945,-0.31500244,-0.8987427,-0.09375,1.25,0.140625
686,0.19360352,-0.32452393,-0.91534424,-0.84375,1.46875,-0.140625
687,0.19213867,-0.31695557,-0.91607666,-1.203125,1.390625,-0.203125
688,0.1965332,-0.31817627,-0.9151001,-0.875,0.90625,0.078125
689,0.1928711,-0.31988525,-0.9151001,0.078125,0.609375,0.484375
690,0.19995117,-0.32110596,-0.9187622,0.328125,0.78125,0.734375
691,0.20385742,-0.3189087,-0.90875244,0.734375,0.828125,0.5625
692,0.19873047,-0.3213501,-0.90509033,-0.265625,1.03125,0.28125
693,0.20166016,-0.31158447,-0.91070557,-0.765625,1.453125,0.046875
694,0.18774414,-0.3040161,-0.89385986,-1.28125,1.109375,0.0
695,0.19018555,-0.31329346,-0.88897705,-1.078125,0.421875,-0.03125
696,0.19750977,-0.31744385,-0.90167236,-1.71875,0.71875,-0.03125
697,0.20092773,-0.33306885,-0.92559814,-1.4375,1.390625,-0.171875
698,0.20288086,-0.3345337,-0.93218994,-0.6875,3.125,-0.171875
699,0.18969727,-0.31939697,-0.9048462,-0.015625,2.046875,0.15625
700,0.17773438,-0.31671143,-0.8933716,0.203125,0.234375,0.9375
701,0.18139648,-0.31671143,-0.91192627,-0.375,-0.390625,0.734375
702,0.18432617,-0.32598877,-0.9121704,-0.171875,-0.0625,0.546875
703,0.19824219,-0.33062744,-0.9282837,-0.53125,0.21875,0.328125
704,0.20458984,-0.3274536,-0.94366455,-1.796875,1.328125,-0.1875
705,0.203125,-0.31939697,-0.9089966,-1.65625,1.140625,-0.171875
706,0.19116211,-0.31280518,-0.8899536,-1.15625,1.015625,0.109375
707,0.18041992,-0.31207275,-0.87823486,-0.296875,0.125,0.546875
708,0.1899414,-0.30255127,-0.88360596,0.15625,-0.578125,0.90625
709,0.19458008,-0.32647705,-0.923645,0.015625,-1.1875,1.109375
710,0.19067383,-0.33868408,-0.927063,-0.109375,-0.34375,0.59375
711,0.20800781,-0.3411255,-0.9282837,-0.8125,1.09375,0.09375
712,0.21142578,-0.3352661,-0.9385376,-1.75,1.5,-0.421875
713,0.20751953,-0.32598877,-0.90631104,-1.984375,1.171875,-0.34375
714,0.20288086,-0.32525635,-0.8911743,-1.140625,1.390625,0.125
715,0.19116211,-0.30596924,-0.87579346,-0.34375,0.65625,0.59375
716,0.18603516,-0.315979,-0.88653564,0.40625,0.03125,0.6875
717,0.2019043,-0.3274536,-0.9092407,-0.234375,0.09375,0.5625
718,0.19628906,-0.33795166,-0.9151001,-0.921875,0.28125,0.453125
719,0.2043457,-0.34381104,-0.9221802,-1.359375,0.84375,-0.09375
720,0.2084961,-0.3345337,-0.9116821,-1.421875,1.046875,-0.1875
721,0.19677734,-0.32818604,-0.8982544,-1.609375,0.8125,-0.03125
722,0.19750977,-0.32476807,-0.89556885,-0.8125,0.90625,0.109375
723,0.19335938,-0.3262329,-0.89019775,0.328125,0.65625,0.53125
724,0.19555664,-0.32867432,-0.90045166,0.265625,0.328125,0.625
725,0.20776367,-0.32598877,-0.91973877,-0.5625,0.28125,0.34375
726,0.20166016,-0.33599854,-0.91241455,-0.828125,0.84375,0.109375
727,0.20336914,-0.3352661,-0.9102173,-1.09375,1.109375,-0.1875
728,0.20727539,-0.33721924,-0.913147,-1.09375,1.125,0.03125
729,0.19750977,-0.3279419,-0.8999634,-0.703125,0.984375,0.109375
730,0.1940918,-0.3225708,-0.8953247,0.140625,0.6875,0.796875
731,0.19702148,-0.32281494,-0.894104,0.390625,0.25,0.75
732,0.20581055,-0.32867432,-0.9065552,-0.234375,0.03125,0.640625
733,0.19921875,-0.33551025,-0.91778564,-0.421875,0.203125,0.421875
734,0.20336914,-0.33355713,-0.9011841,-0.375,0.5625,0.296875
735,0.20141602,-0.32818604,-0.90338135,-0.546875,0.890625,0.203125
736,0.19921875,-0.32452393,-0.9036255,-0.640625,0.6875,0.328125
737,0.20727539,-0.3291626,-0.90460205,-1.125,0.921875,0.328125
738,0.19824219,-0.3328247,-0.9036255,-0.90625,0.8125,0.109375
739,0.2055664,-0.3394165,-0.90802,-1.078125,0.53125,0.234375
740,0.20092773,-0.34088135,-0.91851807,-0.984375,0.53125,0.265625
741,0.19873047,-0.33355713,-0.9072876,-0.71875,0.640625,0.3125
742,0.20288086,-0.32891846,-0.9055786,-0.640625,0.671875,0.28125
743,0.20947266,-0.33648682,-0.89678955,-0.53125,0.9375,0.265625
744,0.20263672,-0.3303833,-0.8945923,-0.15625,1.078125,0.140625
745,0.2097168,-0.33966064,-0.90338135,0.015625,0.90625,0.5
746,0.20288086,-0.3328247,-0.90875244,0.453125,0.796875,0.640625
747,0.203125,-0.33624268,-0.90753174,1.359375,0.65625,0.703125
748,0.20214844,-0.3291626,-0.89801025,1.875,0.359375,0.796875
749,0.20678711,-0.3189087,-0.8999634,1.9375,0.46875,0.890625
