sample_no,accel_x,accel_y,accel_z,gyro_x,gyro_y,gyro_z
0,-0.8742676,0.018249512,-0.3604126,-1.53125,1.953125,-2.1875
1,-0.9387207,-0.046691895,-0.53082275,-1.890625,3.796875,2.46875
2,-0.982666,-0.055236816,-0.4229126,-2.46875,1.78125,0.515625
3,-0.7429199,-0.00592041,-0.43780518,-3.015625,-1.8125,1.8125
4,-0.9067383,-0.042785645,-0.5088501,-2.046875,-3.671875,4.65625
5,-0.91845703,-0.085510254,-0.5081177,1.125,-6.875,-0.75
6,-0.8845215,-0.06451416,-0.54278564,-0.09375,-2.46875,0.484375
7,-0.8937988,-0.12017822,-0.62506104,0.296875,-3.390625,-1.5625
8,-0.8144531,0.101501465,-0.32525635,-8.484375,14.4375,-5.875
9,-0.8852539,-0.050354004,-0.42974854,-4.796875,8.375,-0.015625
10,-0.92456055,-0.00982666,-0.489563,-16.109375,10.921875,-0.71875
11,-0.70458984,-0.04888916,-0.3279419,6.734375,4.640625,0.328125
12,-1.0766602,-0.06866455,-0.522522,2.484375,4.84375,0.359375
13,-0.85961914,-0.07525635,-0.38653564,1.0625,-0.34375,0.359375
14,-0.8522949,-0.027160645,-0.40533447,-1.5,-5.46875,0.8125
15,-0.9248047,-0.059631348,-0.4824829,-8.5625,-9.421875,1.421875
16,-0.90112305,-0.047912598,-0.520813,0.4375,-8.25,1.5625
17,-0.91918945,-0.070617676,-0.50982666,2.515625,5.21875,-0.75
18,-0.8781738,-0.042297363,-0.44439697,1.703125,9.015625,-0.140625
19,-0.8796387,-0.1038208,-0.5256958,9.5625,2.78125,2.0
20,-0.9406738,-0.089904785,-0.553772,0.046875,15.640625,-3.5
21,-0.97802734,-0.06695557,-0.33551025,-6.453125,5.375,-2.015625
22,-0.8901367,-0.018371582,-0.36676025,3.09375,8.4375,-0.796875
23,-0.9580078,-0.043518066,-0.38409424,6.015625,4.453125,0.109375
24,-0.9711914,-0.053527832,-0.44610596,-1.40625,-3.8125,-0.078125
25,-0.85546875,-0.027893066,-0.4368286,0.453125,-2.109375,-0.34375
26,-0.8840332,-0.0569458,-0.41241455,2.609375,-0.640625,0.59375
27,-0.9152832,-0.027160645,-0.45611572,-5.53125,-7.453125,1.765625
28,-0.8659668,-0.05987549,-0.43341064,4.21875,-2.453125,2.375
29,-0.91259766,-0.062561035,-0.49517822,2.765625,-3.0625,1.9375
30,-0.88964844,-0.06304932,-0.46783447,3.234375,8.6875,-0.75
31,-0.87841797,-0.02520752,-0.42999268,4.859375,8.71875,0.640625
32,-0.9589844,-0.07208252,-0.45367432,3.578125,3.671875,2.90625
33,-0.88623047,-0.07672119,-0.51812744,0.328125,2.453125,-0.125
34,-0.859375,0.050476074,-0.34283447,-1.703125,9.765625,-1.578125
35,-0.94262695,-0.0713501,-0.37579346,-0.78125,6.78125,1.015625
36,-0.85009766,-0.0068969727,-0.38067627,-1.6875,5.890625,-2.140625
37,-0.93310547,-0.034973145,-0.40777588,5.125,-4.046875,0.671875
38,-1.0112305,-0.04083252,-0.43096924,-1.640625,-6.984375,-0.421875
39,-0.86816406,-0.05230713,-0.3809204,-0.421875,2.390625,1.296875
40,-0.9211426,-0.016418457,-0.45684814,0.796875,-4.265625,1.78125
41,-0.87524414,-0.0491333,-0.45220947,-1.59375,-2.90625,1.296875
42,-0.89624023,-0.04425049,-0.47711182,-2.75,0.703125,1.703125
43,-0.93359375,-0.069885254,-0.44000244,-0.53125,5.921875,1.265625
44,-0.91552734,-0.050109863,-0.43829346,4.1875,1.59375,0.953125
45,-0.87280273,-0.1038208,-0.51226807,10.53125,1.375,1.28125
46,-0.92211914,-0.05279541,-0.47711182,-8.984375,8.078125,-2.40625
47,-1.0480957,-0.04107666,-0.3694458,-10.96875,1.578125,-3.78125
48,-0.80810547,0.04852295,-0.39630127,-10.71875,8.703125,-2.421875
49,-0.9086914,-0.026916504,-0.35528564,1.25,5.0625,2.046875
50,-0.96240234,-0.08502197,-0.38848877,2.515625,1.0,1.015625
51,-0.97094727,-0.0725708,-0.3916626,-1.84375,-1.453125,-1.171875
52,-0.83813477,-0.06939697,-0.43048096,1.109375,-4.9375,0.390625
53,-0.9238281,-0.043029785,-0.4668579,-0.65625,-3.921875,0.625
54,-0.9343262,-0.047180176,-0.427063,0.03125,0.09375,0.5625
55,-0.94091797,-0.030334473,-0.42071533,0.1875,3.078125,1.875
56,-0.97143555,-0.06793213,-0.4319458,5.390625,1.6875,3.03125
57,-0.92993164,-0.08306885,-0.4656372,0.359375,-1.84375,2.203125
58,-0.8803711,-0.07965088,-0.47662354,-4.890625,-1.59375,0.234375
59,-0.81396484,-0.011047363,-0.38946533,-7.5,12.921875,-2.875
60,-0.923584,-0.0881958,-0.42974854,-13.53125,3.53125,-1.578125
61,-0.9411621,-0.069885254,-0.37677002,-11.90625,11.71875,-0.90625
62,-0.8937988,-0.13482666,-0.29083252,8.703125,6.078125,-1.515625
63,-1.0185547,-0.023010254,-0.42022705,-3.5625,-3.65625,0.734375
64,-0.9121094,-0.05328369,-0.35186768,0.78125,7.359375,-3.3125
65,-0.9199219,-0.09259033,-0.37750244,3.953125,-0.40625,-0.265625
66,-0.99902344,-0.0015258789,-0.43389893,-2.046875,-2.890625,-0.84375
67,-0.8659668,-0.059143066,-0.39215088,0.796875,0.4375,-0.203125
68,-0.95410156,-0.039855957,-0.42608643,-1.953125,2.140625,0.109375
69,-0.90722656,-0.054748535,-0.3640747,1.765625,5.671875,0.46875
70,-0.96484375,-0.053527832,-0.43829346,-1.328125,-7.0625,2.765625
71,-0.8864746,-0.07159424,-0.4019165,-6.484375,6.921875,0.453125
72,-1.0009766,-0.07598877,-0.35772705,-4.765625,1.671875,-0.328125
73,-0.90185547,-0.038635254,-0.33233643,0.9375,6.65625,-0.953125
74,-0.9921875,-0.11260986,-0.4187622,-7.765625,5.953125,-3.546875
75,-0.9272461,-0.0020141602,-0.33868408,-0.9375,11.171875,-1.984375
76,-0.9584961,-0.069885254,-0.3735962,0.21875,-1.703125,-1.75
77,-0.9875488,-0.037902832,-0.36773682,2.96875,-5.5625,1.15625
78,-0.8881836,-0.05230713,-0.3809204,-0.09375,-1.828125,0.125
79,-0.96484375,-0.043762207,-0.39483643,-1.5,-3.609375,1.25
80,-0.92578125,-0.06573486,-0.4204712,-0.4375,-1.328125,1.234375
81,-0.9465332,-0.07965088,-0.37530518,3.59375,3.4375,0.359375
82,-0.9584961,-0.06549072,-0.37042236,-1.171875,-6.140625,1.671875
83,-0.93481445,-0.09649658,-0.6321411,-16.765625,-7.6875,2.9375
84,-0.96484375,-0.13140869,-0.26031494,-2.1875,5.734375,-2.90625
85,-0.9182129,0.0211792,-0.32183838,6.90625,14.484375,-1.890625
86,-0.9645996,-0.07086182,-0.27227783,7.3125,1.953125,-0.046875
87,-1.0290527,-0.074035645,-0.44293213,-3.03125,0.265625,-1.8125
88,-0.8828125,-0.047180176,-0.34014893,-4.0,1.3125,-2.484375
89,-0.95214844,-0.043762207,-0.34747314,1.421875,-9.625,0.859375
90,-0.9165039,-0.034729004,-0.40802002,-2.09375,-9.796875,1.15625
91,-0.93725586,-0.081848145,-0.42242432,-1.921875,-5.546875,2.484375
92,-0.92700195,-0.069885254,-0.44708252,-1.78125,-2.46875,1.375
93,-0.8874512,-0.08502197,-0.44439697,2.84375,3.0625,0.59375
94,-0.9379883,-0.062561035,-0.37921143,6.578125,6.890625,0.921875
95,-0.907959,-0.08526611,-0.4590454,1.265625,2.453125,3.5625
96,-0.9343262,-0.1375122,-0.4446411,-1.21875,5.640625,1.09375
97,-1.0109863,-0.037902832,-0.27667236,1.828125,7.140625,-1.171875
98,-0.9008789,-0.042297363,-0.39337158,-1.59375,4.921875,0.53125
99,-0.9753418,-0.10040283,-0.34210205,4.734375,3.515625,-2.0
100,-0.91308594,-0.03643799,-0.40045166,-3.953125,1.828125,-1.890625
101,-0.9477539,-0.031799316,-0.3657837,-4.6875,-5.515625,-2.140625
102,-0.92041016,-0.04815674,-0.33551025,1.265625,-8.5,1.0
103,-0.9526367,-0.04840088,-0.48321533,-3.609375,-12.9375,3.09375
104,-0.9074707,-0.09527588,-0.4776001,-3.03125,-8.703125,3.34375
105,-0.8847656,-0.059143066,-0.47906494,-3.078125,-2.453125,1.46875
106,-0.9020996,-0.09918213,-0.45465088,0.078125,4.109375,0.28125
107,-0.9226074,-0.06793213,-0.39117432,2.65625,-1.546875,0.390625
108,-0.90478516,-0.055480957,-0.5112915,7.8125,-6.796875,2.859375
109,-0.99780273,-0.10626221,-0.4517212,6.703125,0.71875,2.140625
110,-0.8120117,-0.06304932,-0.4241333,-6.734375,14.078125,0.28125
111,-0.9055176,-0.08648682,-0.43096924,-3.515625,3.328125,1.78125
112,-0.8972168,-0.07476807,-0.36968994,6.3125,5.3125,-1.921875
113,-0.93188477,-0.04498291,-0.36627197,2.03125,2.15625,-0.390625
114,-0.9824219,-0.0335083,-0.45318604,-7.265625,-2.96875,-0.796875
115,-0.8696289,-0.08892822,-0.40167236,-3.4375,-2.03125,-0.65625
116,-0.8823242,-0.053771973,-0.45513916,-0.921875,-7.453125,1.421875
117,-0.8967285,-0.06939697,-0.46661377,-3.5625,-6.46875,1.578125
118,-0.8840332,-0.07550049,-0.473938,2.328125,-4.234375,1.4375
119,-0.89038086,-0.09698486,-0.4661255,1.6875,4.234375,0.765625
120,-0.8942871,-0.06939697,-0.45758057,3.375,10.109375,0.609375
121,-0.9628906,-0.089660645,-0.43634033,1.625,3.53125,1.453125
122,-0.89941406,-0.13311768,-0.5706177,0.21875,7.5625,2.796875
123,-0.9770508,-0.058410645,-0.2678833,1.09375,8.53125,-3.046875
124,-0.84106445,-0.065979004,-0.4204712,4.171875,11.671875,0.296875
125,-0.94799805,-0.08868408,-0.4138794,8.84375,-6.328125,-0.765625
126,-0.97680664,-0.07281494,-0.37652588,-1.140625,3.6875,-2.6875
127,-0.939209,-0.07965088,-0.41949463,-6.65625,-3.90625,-0.796875
128,-0.8869629,-0.06036377,-0.43170166,-1.9375,-6.90625,0.703125
129,-0.9279785,-0.09112549,-0.46661377,-3.140625,-5.453125,0.390625
130,-0.9133301,-0.06768799,-0.4421997,-1.140625,-1.015625,0.65625
131,-0.91015625,-0.073791504,-0.4595337,0.40625,3.796875,0.53125
132,-0.89746094,-0.077697754,-0.5015259,-0.25,1.328125,0.71875
133,-0.9104004,-0.093811035,-0.4619751,6.359375,6.1875,0.109375
134,-0.9226074,-0.08331299,-0.41583252,4.765625,3.6875,0.390625
135,-0.8701172,-0.010559082,-0.33966064,-4.40625,2.796875,0.546875
136,-1.1040039,-0.10284424,-0.30523682,-0.625,0.40625,2.171875
137,-0.83569336,-0.0647583,-0.3953247,-0.171875,11.640625,1.046875
138,-0.8071289,-0.10015869,-0.43756104,4.4375,12.515625,-0.015625
139,-0.93310547,-0.05670166,-0.4727173,3.5625,-2.375,-0.9375
140,-0.9572754,-0.0713501,-0.3496704,-3.25,-1.578125,-0.84375
141,-0.9375,-0.06524658,-0.4241333,-2.90625,-5.109375,0.859375
142,-0.9436035,-0.07940674,-0.46905518,-1.34375,-7.875,1.421875
143,-0.9255371,-0.08282471,-0.42999268,-2.90625,-4.328125,0.734375
144,-0.88012695,-0.0947876,-0.40118408,5.625,-2.84375,-0.6875
145,-0.87231445,-0.046936035,-0.56085205,5.65625,1.28125,0.28125
146,-0.89697266,-0.1026001,-0.4487915,4.90625,13.5,-1.9375
147,-0.9355469,-0.04864502,-0.425354,8.578125,11.515625,-1.75
148,-0.9350586,-0.030090332,-0.4866333,1.9375,-4.3125,2.578125
149,-0.8989258,-0.08477783,-0.41070557,2.703125,-3.0625,1.6875
150,-0.89208984,-0.043273926,-0.46270752,-5.15625,9.328125,-0.9375
151,-0.96850586,-0.07891846,-0.38458252,-0.53125,5.828125,0.109375
152,-0.9123535,-0.058898926,-0.3809204,5.203125,9.375,-2.25
153,-0.9526367,-0.038391113,-0.44366455,-3.875,0.25,-0.6875
154,-0.95703125,-0.049621582,-0.40875244,-13.9375,-2.53125,-0.46875
155,-0.8977051,-0.065979004,-0.39190674,-1.640625,2.125,-1.171875
156,-0.9001465,-0.020080566,-0.45928955,-2.578125,-3.0625,0.34375
157,-0.92700195,-0.081848145,-0.4277954,-3.75,-3.34375,0.875
158,-0.9074707,-0.054748535,-0.3982544,-0.890625,-2.421875,0.0625
159,-0.9343262,-0.077697754,-0.45318604,1.125,1.765625,0.15625
160,-0.8901367,-0.04937744,-0.4307251,3.234375,3.890625,-0.21875
161,-0.9338379,-0.0803833,-0.4175415,8.015625,9.5625,-0.46875
162,-0.93481445,-0.040100098,-0.46221924,7.34375,0.9375,0.46875
163,-0.9206543,-0.047424316,-0.36065674,7.953125,0.4375,1.78125
164,-0.84521484,-0.05255127,-0.4229126,-2.390625,14.328125,-1.515625
165,-1.0007324,-0.05328369,-0.3320923,0.6875,3.15625,0.828125
166,-0.94018555,-0.046203613,-0.35284424,0.3125,6.15625,-0.4375
167,-0.9824219,-0.039367676,-0.3682251,-0.15625,-0.1875,0.9375
168,-0.9511719,-0.06378174,-0.34576416,-8.734375,-2.078125,-0.375
169,-0.90478516,-0.06939697,-0.39068604,-4.953125,-4.375,-1.296875
170,-0.8828125,-0.038879395,-0.42437744,-0.84375,-4.515625,0.203125
171,-0.92529297,-0.05206299,-0.4817505,-3.953125,-3.421875,0.390625
172,-0.9057617,-0.053771973,-0.44195557,2.234375,5.78125,-1.03125
173,-0.92407227,-0.06817627,-0.41534424,3.40625,13.90625,-0.453125
174,-0.9165039,-0.0413208,-0.34429932,7.515625,16.65625,-0.65625
175,-0.9626465,-0.043029785,-0.34576416,7.453125,6.109375,1.953125
176,-0.94628906,-0.038146973,-0.34503174,3.453125,-6.765625,2.34375
177,-0.9655762,-0.053771973,-0.38824463,-1.890625,-8.09375,2.640625
178,-0.9099121,-0.038391113,-0.36383057,-4.953125,3.421875,-0.296875
179,-0.94750977,-0.06060791,-0.35113525,-1.703125,5.1875,0.78125
180,-0.93896484,-0.040100098,-0.32403564,4.625,5.015625,-0.921875
181,-0.9680176,-0.035217285,-0.4463501,-1.703125,-2.203125,1.578125
182,-0.954834,-0.081604004,-0.31866455,-5.0,0.5,-1.625
183,-0.92529297,-0.035949707,-0.3904419,-2.828125,-2.84375,-0.734375
184,-0.9187012,-0.06427002,-0.37139893,-3.03125,-7.1875,-0.171875
185,-0.9291992,-0.047912598,-0.40631104,-3.484375,-5.578125,0.421875
186,-0.9265137,-0.06695557,-0.3970337,0.1875,-0.6875,-0.140625
187,-0.89990234,-0.047912598,-0.42608643,0.125,1.53125,0.5625
188,-0.9279785,-0.05645752,-0.45367432,3.125,2.796875,0.578125
189,-0.92163086,-0.066711426,-0.33868408,11.515625,5.921875,-0.765625
190,-0.9343262,-0.034484863,-0.43511963,12.84375,-7.09375,1.8125
191,-0.92041016,-0.062072754,-0.39068604,3.09375,1.265625,0.21875
192,-0.8847656,-0.032043457,-0.39337158,-2.5625,12.96875,-0.5625
193,-1.0107422,-0.05230713,-0.3098755,0.234375,1.15625,0.40625
194,-0.9616699,-0.055725098,-0.37921143,-5.375,2.9375,-0.5
195,-0.9453125,-0.021057129,-0.36016846,-5.953125,2.828125,-0.203125
196,-0.8947754,-0.035461426,-0.41729736,0.125,-7.765625,1.875
197,-0.9902344,-0.053527832,-0.43267822,-5.09375,-5.984375,-0.046875
198,-0.91552734,-0.04473877,-0.40997314,-2.71875,-1.625,-0.0625
199,-0.8898926,-0.05303955,-0.4368286,-1.515625,0.46875,0.8125
200,-0.923584,-0.069885254,-0.41363525,1.734375,3.796875,-0.390625
201,-0.89624023,-0.038391113,-0.42803955,5.40625,2.09375,-0.71875
202,-0.98461914,-0.030334473,-0.37921143,7.609375,-1.140625,2.1875
203,-0.87353516,-0.054748535,-0.43634033,0.671875,-0.625,0.578125
204,-0.86328125,-0.07208252,-0.4451294,2.921875,-1.296875,0.859375
205,-0.92407227,-0.030822754,-0.42974854,-4.734375,9.125,-0.4375
206,-1.0100098,-0.054260254,-0.3098755,-1.234375,3.625,-1.65625
207,-0.9260254,-0.012268066,-0.37823486,-6.25,6.765625,-0.1875
208,-0.9785156,-0.062316895,-0.3242798,-8.328125,3.578125,-0.296875
209,-0.8635254,-0.07476807,-0.47564697,-3.59375,1.046875,-0.125
210,-0.98339844,-0.065979004,-0.35723877,-0.765625,-0.34375,0.5625
211,-0.93115234,-0.06378174,-0.35040283,-6.34375,-11.859375,0.0625
212,-0.9008789,-0.035461426,-0.44293213,-6.8125,-7.6875,0.078125
213,-0.9604492,-0.07159424,-0.44024658,-2.421875,-6.84375,0.40625
214,-0.8845215,-0.06524658,-0.46173096,1.34375,-3.578125,1.078125
215,-0.8996582,-0.06500244,-0.40924072,1.015625,1.359375,0.203125
216,-0.89208984,-0.08087158,-0.4348755,2.265625,3.609375,0.90625
217,-0.9536133,-0.06744385,-0.4578247,1.703125,-4.578125,1.796875
218,-0.92211914,-0.07598877,-0.45220947,-7.890625,-18.65625,1.484375
219,-0.9057617,-0.09674072,-0.4421997,-9.625,0.609375,-1.390625
220,-0.8317871,-0.004211426,-0.51031494,-6.65625,12.09375,-0.390625
221,-0.9499512,-0.11065674,-0.4360962,-3.265625,2.40625,2.453125
222,-0.8642578,-0.06402588,-0.43096924,1.734375,14.625,-1.46875
223,-0.96313477,-0.07501221,-0.3814087,3.765625,3.640625,1.1875
224,-0.9370117,-0.1038208,-0.4356079,2.125,1.421875,-1.125
225,-0.89086914,-0.05303955,-0.44683838,-0.84375,-0.78125,-1.328125
226,-0.91625977,-0.09649658,-0.3982544,3.921875,0.078125,-1.1875
227,-0.9313965,-0.04864502,-0.4204712,1.875,-4.609375,-0.28125
228,-0.9321289,-0.059631348,-0.4644165,-4.125,-4.96875,-0.015625
229,-0.9067383,-0.061340332,-0.47076416,3.25,-1.046875,-0.0625
230,-0.8833008,-0.08013916,-0.46002197,1.640625,9.0,0.25
231,-0.9223633,-0.047180176,-0.3809204,5.4375,6.6875,1.296875
232,-0.98413086,-0.10040283,-0.4763794,-5.203125,-8.203125,3.234375
233,-0.8071289,-0.1638794,-0.51031494,-11.40625,14.734375,-2.34375
234,-0.8742676,0.0018920898,-0.3670044,-9.671875,19.0625,-1.8125
235,-0.98876953,-0.06451416,-0.35333252,0.984375,5.375,1.328125
236,-0.8864746,-0.07550049,-0.3250122,1.65625,6.046875,-0.734375
237,-1.0,-0.054016113,-0.3352661,2.875,-0.890625,0.28125
238,-0.94091797,-0.06890869,-0.39605713,-4.15625,-3.15625,-1.171875
239,-0.92700195,-0.08673096,-0.42364502,-1.703125,-2.796875,-1.34375
240,-0.93237305,-0.041809082,-0.42242432,0.46875,-12.078125,1.359375
241,-0.90966797,-0.07672119,-0.39019775,-2.03125,-6.15625,0.3125
242,-0.89819336,-0.037902832,-0.4619751,-2.53125,-12.953125,2.921875
243,-0.9121094,-0.09210205,-0.4487915,0.90625,-6.09375,1.703125
244,-0.88720703,-0.10211182,-0.4841919,1.03125,2.765625,-0.265625
245,-0.88916016,-0.113098145,-0.42144775,5.6875,4.78125,0.0625
246,-0.9194336,-0.07110596,-0.4517212,6.65625,5.828125,0.109375
247,-0.91064453,-0.13214111,-0.5022583,7.40625,8.78125,1.125
248,-0.939209,-0.06842041,-0.37213135,-5.5,10.6875,-2.109375
249,-0.921875,-0.0051879883,-0.43536377,-4.046875,3.578125,1.625
250,-0.8144531,-0.058410645,-0.3279419,-0.765625,3.8125,-0.15625
251,-0.98168945,-0.051330566,-0.37750244,-2.03125,-2.984375,0.421875
252,-0.9104004,-0.06085205,-0.43389893,2.21875,-1.078125,-1.59375
253,-0.9602051,-0.047912598,-0.42340088,1.046875,-1.28125,-1.296875
254,-0.9433594,-0.05718994,-0.41241455,2.0625,-2.046875,1.171875
255,-0.90356445,-0.06109619,-0.4295044,-1.078125,-8.96875,1.28125
256,-0.8859863,-0.05645752,-0.45196533,-1.21875,-7.65625,1.1875
257,-0.88671875,-0.085754395,-0.4685669,1.125,-3.40625,1.546875
258,-0.9067383,-0.069885254,-0.4517212,0.84375,1.1875,-0.09375
259,-0.89453125,-0.07330322,-0.47564697,3.484375,6.28125,-0.125
260,-0.9321289,-0.073791504,-0.48883057,6.75,1.96875,1.9375
261,-0.90600586,-0.07354736,-0.46270752,2.890625,-2.265625,1.28125
262,-0.9316406,-0.17340088,-0.4944458,-6.9375,12.671875,-2.4375
263,-0.99121094,-0.008117676,-0.29571533,0.421875,4.5625,-1.34375
264,-0.85839844,-0.026428223,-0.41558838,-4.859375,3.515625,0.328125
265,-0.97509766,-0.06939697,-0.37091064,-3.359375,9.1875,-2.25
266,-0.8952637,-0.055480957,-0.45855713,3.1875,-0.234375,-0.671875
267,-0.9851074,-0.039123535,-0.38360596,6.375,5.4375,0.15625
268,-0.9929199,-0.08404541,-0.42510986,-0.09375,-0.3125,0.640625
269,-0.84814453,-0.019592285,-0.40924072,-0.8125,-2.21875,1.34375
270,-0.90478516,-0.06427002,-0.44073486,-0.1875,-3.1875,2.84375
271,-0.90844727,-0.074523926,-0.46661377,2.890625,-2.75,2.171875
272,-0.888916,-0.06866455,-0.42877197,2.796875,3.25,-0.078125
273,-0.9423828,-0.074523926,-0.44732666,3.4375,8.859375,0.90625
274,-0.98095703,-0.07891846,-0.5027466,7.671875,18.28125,0.515625
275,-0.94311523,-0.13189697,-0.40142822,11.65625,28.40625,-0.46875
276,-1.0612793,-0.032043457,-0.19683838,6.421875,4.734375,-0.71875
277,-0.82958984,-0.059631348,-0.3303833,-4.140625,4.875,-0.1875
278,-0.9226074,0.013122559,-0.36798096,-5.765625,5.125,-2.578125
279,-0.9848633,-0.028381348,-0.31280518,-4.8125,0.25,1.0625
280,-0.9975586,-0.051086426,-0.3579712,-0.671875,3.375,-1.640625
281,-0.9885254,-0.023986816,-0.35406494,-1.296875,-4.65625,0.171875
282,-0.9016113,-0.045959473,-0.33868408,4.6875,-4.828125,0.8125
283,-0.9536133,-0.0635376,-0.40753174,1.8125,-1.40625,-0.203125
284,-0.9147949,-0.069885254,-0.3748169,2.109375,3.015625,-2.1875
285,-0.9499512,-0.030090332,-0.3904419,-0.203125,0.46875,-0.609375
286,-0.89941406,-0.02545166,-0.37628174,0.578125,3.765625,-0.09375
287,-0.93530273,-0.057922363,-0.3796997,2.640625,6.453125,0.359375
288,-0.97436523,-0.042785645,-0.32452393,2.09375,0.25,1.015625
289,-0.9733887,-0.025939941,-0.36309814,2.0,-7.765625,1.359375
290,-0.93237305,-0.049621582,-0.41046143,-2.046875,5.03125,0.46875
291,-0.9790039,-0.008850098,-0.33258057,-3.359375,4.265625,-0.203125
292,-0.9333496,-0.06890869,-0.31158447,-1.015625,3.734375,0.65625
293,-0.9433594,-0.02154541,-0.33502197,0.453125,4.03125,-0.65625
294,-0.92749023,-0.031066895,-0.3242798,4.625,0.828125,0.015625
295,-1.0234375,-0.01373291,-0.34014893,-2.90625,-1.96875,-0.296875
296,-0.9875488,-0.050598145,-0.32525635,0.390625,-7.140625,-0.15625
297,-0.8745117,-0.009094238,-0.36138916,2.25,-7.875,0.21875
298,-0.970459,-0.0413208,-0.40118408,-1.25,-6.765625,0.203125
299,-0.91748047,-0.039855957,-0.4348755,-0.34375,-3.140625,0.546875
300,-0.91748047,-0.04034424,-0.40826416,-1.59375,2.25,0.375
301,-0.9301758,-0.042785645,-0.4212036,-0.4375,4.75,0.078125
302,-0.94091797,-0.05987549,-0.36627197,3.578125,-1.3125,-0.1875
303,-0.9416504,-0.03717041,-0.411438,2.125,-1.90625,0.609375
304,-0.95410156,-0.036193848,-0.3760376,5.546875,-1.0,0.21875
305,-0.9465332,-0.020324707,-0.38970947,0.109375,-1.359375,1.015625
306,-0.9406738,-0.05987549,-0.39312744,-3.984375,-0.90625,0.671875
307,-0.8696289,-0.010314941,-0.39923096,-6.15625,7.296875,-0.359375
308,-1.0458984,-0.08111572,-0.3255005,-1.0625,-0.0625,-0.40625
309,-0.90283203,0.0036010742,-0.37945557,-5.75,5.53125,-2.28125
310,-0.91796875,0.008483887,-0.36236572,-2.96875,6.28125,-1.5625
311,-0.97802734,-0.09307861,-0.40045166,9.765625,-2.046875,1.921875
312,-1.0217285,-0.0068969727,-0.43585205,-5.015625,-4.203125,-1.46875
313,-0.8991699,-0.024230957,-0.35113525,-0.78125,-8.859375,-0.125
314,-0.90722656,-0.026428223,-0.4360962,2.609375,-5.203125,1.65625
315,-0.9472656,-0.039855957,-0.46343994,-1.8125,-3.15625,1.265625
316,-0.8913574,-0.04473877,-0.42266846,-0.5625,1.703125,1.28125
317,-0.9147949,-0.049865723,-0.44122314,0.9375,6.21875,-0.078125
318,-0.9428711,-0.051330566,-0.40802002,4.234375,7.15625,0.4375
319,-0.9140625,-0.011047363,-0.4649048,4.578125,-2.78125,1.140625
320,-0.8654785,-0.0015258789,-0.3435669,2.28125,13.984375,-0.375
321,-0.9863281,-0.04815674,-0.37042236,-1.46875,1.25,2.234375
322,-0.9404297,-0.005432129,-0.3587036,-3.90625,4.234375,-0.171875
323,-0.96240234,-0.039123535,-0.35772705,-4.34375,8.140625,1.21875
324,-0.9345703,-0.05255127,-0.35455322,-5.765625,4.71875,0.0625
325,-0.9667969,-0.059387207,-0.38824463,-5.140625,1.453125,-0.15625
326,-0.89575195,-0.039855957,-0.378479,-2.859375,0.609375,-0.515625
327,-0.9584961,-0.06036377,-0.33428955,-1.203125,-5.40625,0.46875
328,-0.98095703,-0.04498291,-0.40386963,-2.234375,-7.578125,-0.0625
329,-0.94555664,-0.035949707,-0.4710083,-2.8125,-10.015625,1.515625
330,-0.8967285,-0.05987549,-0.41827393,3.640625,-8.53125,1.328125
331,-0.9086914,-0.04156494,-0.46514893,5.703125,-4.6875,0.90625
332,-0.91674805,-0.058898926,-0.45489502,6.203125,7.59375,0.765625
333,-0.8911133,-0.038635254,-0.4451294,4.328125,4.09375,0.8125
334,-0.92944336,-0.11016846,-0.49786377,0.296875,6.1875,1.125
335,-0.9289551,0.01361084,-0.26617432,1.796875,11.703125,-1.609375
336,-0.986084,-0.031799316,-0.3633423,-3.90625,5.609375,2.078125
337,-0.92749023,-0.059631348,-0.39556885,-5.546875,2.015625,-1.578125
338,-0.9321289,-0.038146973,-0.3460083,-5.03125,-1.484375,-0.328125
339,-0.9572754,-0.05230713,-0.3994751,-2.8125,-6.1875,0.203125
340,-0.9484863,-0.042053223,-0.39361572,-1.65625,-0.671875,-0.5
341,-0.9069824,-0.0256958,-0.42803955,-2.0,-9.890625,0.84375
342,-0.9194336,-0.07183838,-0.46759033,-1.84375,-6.0,0.875
343,-0.90893555,-0.055480957,-0.45391846,3.171875,-1.390625,1.28125
344,-0.8967285,-0.06427002,-0.4517212,2.65625,5.375,0.171875
345,-0.9265137,-0.06964111,-0.4180298,6.390625,6.796875,0.53125
346,-0.87353516,-0.020812988,-0.44244385,9.0,2.5,1.765625
347,-0.93774414,-0.04888916,-0.44830322,-1.359375,10.828125,2.109375
348,-1.0559082,-0.06011963,-0.21954346,5.21875,1.5,1.65625
349,-0.91796875,-0.017150879,-0.3718872,-0.96875,7.890625,1.25
350,-0.9152832,-0.0791626,-0.37530518,-3.578125,3.59375,-0.53125
351,-0.9470215,-0.029846191,-0.40997314,0.15625,-4.359375,1.671875
352,-0.9436035,-0.046203613,-0.4121704,-2.625,-0.984375,-1.875
353,-0.92626953,-0.034484863,-0.38555908,-1.1875,-4.09375,-0.984375
354,-0.9482422,-0.037902832,-0.45098877,-8.34375,-10.4375,0.359375
355,-0.9213867,-0.046936035,-0.4385376,0.453125,-5.25,-0.34375
356,-0.85913086,-0.058654785,-0.4385376,-0.296875,-6.25,1.0
357,-0.9140625,-0.06378174,-0.42803955,-2.078125,-4.28125,0.109375
358,-0.89575195,-0.042785645,-0.47125244,-0.9375,0.9375,-0.40625
359,-0.9243164,-0.04937744,-0.46636963,1.96875,6.71875,0.765625
360,-0.90844727,-0.061828613,-0.4837036,5.78125,-2.09375,1.3125
361,-0.8701172,-0.06036377,-0.49395752,5.265625,-5.953125,0.921875
362,-0.83569336,-0.0256958,-0.3826294,-3.0625,14.328125,-1.140625
363,-1.013916,-0.053527832,-0.39141846,-1.171875,3.8125,-0.28125
364,-0.8823242,-0.02545166,-0.4265747,-2.5,6.109375,-1.1875
365,-0.96777344,-0.047668457,-0.39385986,-2.921875,5.015625,0.671875
366,-0.888916,-0.062316895,-0.41851807,1.953125,-3.4375,-0.125
367,-0.93847656,-0.053771973,-0.42071533,1.28125,4.5,-1.71875
368,-0.9538574,-0.028381348,-0.41363525,-0.875,-4.640625,-0.453125
369,-0.8664551,-0.034240723,-0.4414673,-3.703125,-7.328125,0.453125
370,-0.95043945,-0.06573486,-0.46392822,-1.328125,-2.84375,0.625
371,-0.89868164,-0.08111572,-0.45343018,-2.390625,-1.203125,-0.6875
372,-0.86206055,-0.028625488,-0.4710083,-2.765625,8.234375,-2.203125
373,-0.90356445,-0.04547119,-0.37945557,-0.921875,15.28125,-1.53125
374,-0.9511719,-0.039123535,-0.3977661,3.46875,-1.984375,2.109375
375,-0.93847656,-0.043762207,-0.41558838,5.3125,-8.84375,1.421875
376,-0.8876953,-0.08258057,-0.47247314,0.28125,-6.234375,0.640625
377,-0.8354492,-0.0134887695,-0.44000244,-2.390625,13.171875,-0.9375
378,-1.0332031,-0.1104126,-0.36114502,1.109375,3.34375,-0.1875
379,-0.8808594,-0.020812988,-0.41534424,-4.453125,-0.125,-2.015625
380,-0.939209,-0.024719238,-0.3760376,-4.40625,-2.34375,-0.625
381,-0.8989258,-0.07672119,-0.44317627,0.78125,-7.65625,-1.3125
382,-0.9499512,-0.054748535,-0.4492798,-9.46875,-11.890625,-3.203125
383,-0.8547363,-0.00030517578,-0.4956665,-6.625,-8.6875,0.171875
384,-0.8937988,-0.05718994,-0.5142212,-0.5,-6.34375,0.25
385,-0.89624023,-0.049865723,-0.5029907,-0.078125,-5.8125,2.0
386,-0.8613281,-0.08502197,-0.48443604,2.453125,0.8125,0.828125
387,-0.8781738,-0.05621338,-0.51397705,3.984375,7.46875,0.140625
388,-0.921875,-0.061584473,-0.46783447,6.46875,8.46875,0.171875
389,-0.8688965,-0.09136963,-0.61309814,9.78125,7.625,1.125
390,-0.8664551,-0.010314941,-0.33673096,5.1875,24.015625,-2.21875
391,-0.99902344,-0.01739502,-0.36846924,0.171875,-0.421875,1.6875
392,-0.8937988,-0.004699707,-0.380188,-4.703125,-1.109375,-0.9375
393,-0.9123535,-0.0015258789,-0.45074463,-3.1875,1.125,2.34375
394,-0.89331055,-0.08355713,-0.411438,2.265625,-1.234375,0.015625
395,-0.9440918,-0.02130127,-0.44488525,-2.859375,-1.90625,-0.984375
396,-0.88720703,-0.0064086914,-0.46881104,-2.296875,-9.75,1.9375
397,-0.8671875,-0.062072754,-0.47613525,-1.171875,-5.5,0.984375
398,-0.8901367,-0.039855957,-0.50079346,0.21875,-2.0,0.84375
399,-0.87353516,-0.054504395,-0.48736572,1.921875,2.65625,0.421875
400,-0.91064453,-0.046936035,-0.4500122,4.4375,8.125,0.046875
401,-0.8654785,-0.059143066,-0.57769775,2.734375,-2.21875,1.421875
402,-0.8930664,-0.08673096,-0.4180298,-1.328125,15.109375,-1.4375
403,-1.0395508,-0.003967285,-0.33477783,1.515625,4.234375,0.484375
404,-0.90966797,0.001159668,-0.38824463,-4.40625,3.453125,-0.4375
405,-0.8720703,-0.061584473,-0.48394775,-0.40625,5.734375,2.21875
406,-0.9733887,-0.10211182,-0.39215088,3.796875,0.84375,0.21875
407,-0.87060547,-0.007385254,-0.442688,-4.46875,1.109375,-0.28125
408,-0.89941406,-0.038635254,-0.37945557,4.46875,-3.125,1.15625
409,-0.97265625,-0.06964111,-0.40338135,3.921875,-5.140625,1.53125
410,-0.9379883,-0.012756348,-0.53204346,-6.71875,-8.984375,1.125
411,-0.83203125,-0.08868408,-0.45220947,-0.3125,-4.828125,0.046875
412,-0.9025879,-0.02935791,-0.47320557,1.15625,-2.6875,1.9375
413,-0.8791504,-0.050598145,-0.48638916,1.96875,2.046875,0.6875
414,-0.8991699,-0.04937744,-0.47296143,4.765625,4.71875,1.359375
415,-0.8540039,-0.062316895,-0.5388794,11.3125,1.6875,1.1875
416,-0.95410156,-0.041809082,-0.54644775,-7.65625,1.71875,3.296875
417,-0.9025879,0.008483887,-0.2852173,3.53125,11.375,0.21875
418,-0.98217773,-0.12554932,-0.33477783,-1.890625,3.265625,0.8125
419,-0.7919922,0.019226074,-0.4854126,-2.5,2.265625,1.296875
420,-1.0146484,-0.12921143,-0.37799072,4.015625,4.546875,-1.140625
421,-0.86987305,-0.026184082,-0.42926025,-2.78125,-3.34375,-0.90625
422,-0.9470215,-0.0012817383,-0.49273682,-2.625,-0.265625,-0.8125
423,-0.9265137,-0.13531494,-0.442688,2.015625,-4.53125,1.4375
424,-0.8679199,-0.00030517578,-0.4751587,-1.25,-4.25,-1.28125
425,-0.8852539,-0.043029785,-0.48858643,-0.90625,-5.859375,1.765625
426,-0.91967773,-0.057434082,-0.49273682,-0.828125,2.5,0.65625
427,-0.91381836,-0.06036377,-0.47076416,-0.765625,4.75,-0.71875
428,-0.89404297,-0.054504395,-0.47198486,0.796875,5.28125,0.5625
429,-0.8811035,-0.055725098,-0.48858643,1.359375,4.703125,-0.1875
430,-0.9394531,-0.051086426,-0.3657837,8.640625,12.140625,-1.140625
431,-1.0061035,0.04876709,-0.35430908,7.1875,-7.28125,6.6875
432,-0.8520508,-0.0178833,-0.45367432,-1.015625,2.25,4.859375
433,-0.7897949,-0.044006348,-0.43243408,-1.59375,10.015625,0.484375
434,-0.8688965,-0.109436035,-0.4673462,-0.671875,3.828125,2.71875
435,-0.88916016,-0.02960205,-0.43634033,-3.015625,0.375,0.0625
436,-0.9890137,-0.08404541,-0.42926025,0.78125,0.640625,0.046875
437,-0.99121094,-0.12310791,-0.4229126,-0.84375,-2.296875,-1.640625
438,-0.9013672,-0.008605957,-0.44830322,-6.09375,-2.984375,-1.953125
439,-0.84399414,-0.08526611,-0.42852783,3.421875,-5.171875,-0.75
440,-0.92211914,-0.012512207,-0.51226807,-0.53125,-6.671875,-0.03125
441,-0.89160156,-0.061584473,-0.487854,0.234375,-2.265625,-0.34375
442,-0.8874512,-0.05303955,-0.51104736,2.484375,6.578125,-0.890625
443,-0.8869629,-0.039611816,-0.5046997,4.9375,7.703125,0.140625
444,-0.8935547,-0.08355713,-0.47320557,3.296875,-0.703125,1.421875
445,-0.9379883,-0.03253174,-0.46905518,-5.59375,2.25,-0.640625
446,-0.9248047,0.011169434,-0.26055908,3.5625,6.0,-2.578125
447,-0.8925781,0.01727295,-0.42877197,-6.46875,5.375,0.265625
448,-0.8964844,-0.06329346,-0.41192627,-3.328125,6.984375,-1.90625
449,-0.96533203,-0.050842285,-0.4216919,-0.140625,3.453125,0.5625
450,-0.920166,-0.038879395,-0.39215088,0.25,-0.953125,-0.625
451,-0.92089844,-0.014465332,-0.46392822,-3.859375,1.78125,-0.703125
452,-0.9724121,-0.08453369,-0.42364502,-0.65625,-2.21875,0.65625
453,-0.88549805,0.00091552734,-0.45098877,-1.265625,-6.890625,0.28125
454,-0.9038086,-0.051086426,-0.4841919,1.0625,-6.65625,1.515625
455,-0.8991699,-0.047668457,-0.46124268,0.25,0.515625,-0.234375
456,-0.8876953,-0.043518066,-0.46636963,1.453125,4.90625,-0.453125
457,-0.87280273,-0.04547119,-0.42633057,6.90625,2.71875,0.0625
458,-0.9187012,-0.0413208,-0.49273682,3.578125,-5.390625,1.671875
459,-0.91967773,-0.055236816,-0.42486572,-0.765625,-5.0,-0.359375
460,-0.8540039,0.043640137,-0.41729736,-2.75,6.671875,-1.625
461,-0.9616699,-0.059143066,-0.4072876,-3.546875,-0.953125,0.21875
462,-0.8918457,-0.027160645,-0.42926025,-3.765625,6.09375,-0.3125
463,-0.90625,-0.047180176,-0.43023682,-1.984375,3.96875,0.5625
464,-0.8798828,-0.035949707,-0.38238525,3.21875,-0.09375,-0.53125
465,-0.9790039,-0.07232666,-0.46661377,-0.9375,-2.984375,-0.953125
466,-0.8991699,0.0004272461,-0.44561768,-2.96875,-4.03125,-0.328125
467,-0.8522949,-0.03253174,-0.47491455,-2.0625,-7.890625,0.546875
468,-0.9003906,-0.027893066,-0.53741455,-3.171875,-7.109375,2.21875
469,-0.9301758,-0.06304932,-0.51446533,-0.171875,-0.21875,0.390625
470,-0.859375,-0.040100098,-0.47418213,2.828125,6.59375,-0.890625
471,-0.89990234,-0.061828613,-0.47247314,14.890625,-1.828125,-1.203125
472,-0.9008789,-0.020568848,-0.41412354,12.015625,10.34375,-0.25
473,-0.9428711,-0.040100098,-0.4985962,4.421875,-1.0625,3.34375
474,-0.85058594,-0.05279541,-0.45098877,-0.34375,-2.46875,0.15625
475,-0.8071289,0.01361084,-0.48199463,-7.21875,-0.171875,2.546875
476,-1.0178223,-0.06719971,-0.36260986,-4.375,0.90625,-0.453125
477,-0.8234863,0.0028686523,-0.43121338,-3.875,4.875,-0.859375
478,-0.9345703,-0.031066895,-0.46905518,-3.203125,3.734375,1.6875
479,-0.8676758,-0.046936035,-0.39630127,-2.921875,3.59375,-0.703125
480,-0.87280273,-0.028381348,-0.4866333,3.40625,-4.09375,1.390625
481,-1.0231934,-0.09088135,-0.5093384,1.671875,2.359375,-0.5625
482,-0.8886719,-0.009338379,-0.4463501,-2.703125,-4.875,-1.546875
483,-0.83618164,-0.010559082,-0.49835205,-4.265625,-9.375,0.28125
484,-0.9145508,-0.070373535,-0.53009033,-0.65625,-1.171875,1.015625
485,-0.8815918,-0.03643799,-0.5081177,2.625,4.640625,-0.375
486,-0.88793945,-0.023498535,-0.46343994,3.078125,3.5625,1.25
487,-0.8823242,-0.07305908,-0.49542236,6.4375,0.078125,0.9375
488,-0.89282227,-0.039855957,-0.5142212,-2.9375,3.203125,-0.453125
489,-0.86987305,0.004333496,-0.4265747,-4.75,3.03125,0.375
490,-0.96850586,-0.028869629,-0.37652588,-0.984375,3.390625,0.65625
491,-0.8691406,-0.027160645,-0.43951416,1.75,6.140625,-0.078125
492,-0.9013672,-0.035461426,-0.4290161,-2.765625,3.359375,1.5625
493,-0.91259766,-0.07940674,-0.40826416,1.3125,-1.625,-0.484375
494,-0.9609375,-0.04034424,-0.48590088,-2.203125,4.484375,-2.46875
495,-0.91625977,-0.028137207,-0.43218994,-7.359375,-6.75,-1.875
496,-0.8383789,-0.03375244,-0.49053955,-6.171875,-15.0,0.125
497,-0.921875,-0.03741455,-0.51397705,-2.5625,-6.171875,0.171875
498,-0.86376953,-0.04449463,-0.53912354,0.90625,-6.1875,0.96875
499,-0.8737793,-0.047668457,-0.4985962,2.203125,1.96875,0.453125
500,-0.8601074,-0.035217285,-0.5310669,4.0625,5.5,2.078125
501,-0.87109375,-0.044006348,-0.5029907,10.21875,7.96875,1.921875
502,-0.9645996,-0.08428955,-0.4993286,-2.640625,-1.546875,1.3125
503,-0.85302734,-0.018127441,-0.48883057,-6.28125,11.734375,-1.265625
504,-0.95166016,-0.028381348,-0.31744385,2.75,10.421875,-0.78125
505,-0.82910156,0.03265381,-0.473938,-4.21875,2.4375,0.203125
506,-0.87768555,-0.05328369,-0.42974854,-0.421875,2.21875,0.375
507,-0.94506836,-0.059143066,-0.41827393,0.453125,1.90625,0.828125
508,-0.95703125,-0.021057129,-0.41656494,-4.21875,-0.46875,-1.109375
509,-0.9116211,-0.04425049,-0.4944458,-4.25,-2.390625,0.671875
510,-0.87768555,-0.06842041,-0.50616455,-4.25,-7.34375,0.453125
511,-0.8666992,-0.039367676,-0.49957275,1.3125,-4.921875,0.25
512,-0.89501953,-0.054260254,-0.4985962,1.546875,0.15625,0.671875
513,-0.8762207,-0.06402588,-0.50860596,5.359375,6.9375,-0.03125
514,-0.920166,-0.030090332,-0.4734497,5.109375,6.921875,0.828125
515,-0.8730469,-0.054504395,-0.49591064,3.0625,5.640625,0.328125
516,-0.89941406,-0.035461426,-0.40924072,0.0625,3.671875,-0.03125
517,-0.87524414,-0.04840088,-0.58966064,-9.359375,-1.828125,1.46875
518,-0.85424805,-0.030334473,-0.44171143,-9.0,11.828125,-4.4375
519,-0.91748047,-0.022033691,-0.35894775,-5.8125,1.96875,1.96875
520,-1.0581055,-0.09527588,-0.31280518,2.703125,6.265625,-0.09375
521,-0.9108887,-0.061340332,-0.41607666,-2.109375,9.0625,-0.984375
522,-0.87890625,-0.037902832,-0.4151001,-8.40625,4.25,-0.15625
523,-0.9030762,-0.07110596,-0.46295166,-5.4375,5.25,-2.546875
524,-0.8959961,-0.038146973,-0.3880005,0.859375,5.078125,-1.75
525,-0.9567871,-0.049865723,-0.40631104,-3.96875,-3.8125,0.53125
526,-0.9638672,-0.026428223,-0.42510986,-3.671875,-3.53125,-0.546875
527,-0.8395996,-0.039123535,-0.43756104,-2.21875,-3.984375,-0.015625
528,-0.9187012,-0.06085205,-0.4685669,3.4375,-3.015625,0.734375
529,-0.9304199,-0.06549072,-0.4451294,4.5,6.390625,0.109375
530,-0.9345703,-0.081604004,-0.45440674,1.796875,8.375,0.234375
531,-0.8959961,-0.053771973,-0.4109497,3.140625,2.5625,1.328125
532,-0.8547363,-0.019836426,-0.4055786,-2.65625,8.359375,0.734375
533,-1.015625,-0.055480957,-0.35113525,0.25,-1.640625,2.203125
534,-0.95410156,-0.08013916,-0.38726807,-0.53125,3.1875,-0.203125
535,-0.9526367,-0.058410645,-0.4102173,-2.84375,3.671875,-0.0625
536,-0.9326172,-0.0569458,-0.40509033,-1.6875,1.34375,0.078125
537,-0.8562012,-0.038879395,-0.3748169,2.078125,4.390625,-2.125
538,-0.95654297,-0.03643799,-0.42633057,-3.078125,2.671875,-1.890625
539,-0.92626953,-0.046203613,-0.42681885,3.546875,-2.125,0.0625
540,-0.9248047,-0.049865723,-0.37579346,2.953125,-4.796875,0.046875
541,-0.92456055,-0.0335083,-0.4644165,-3.71875,-7.375,1.015625
542,-0.8959961,-0.055236816,-0.46954346,0.3125,-11.71875,1.875
543,-0.9135742,-0.055236816,-0.46099854,1.625,-1.5625,-0.265625
544,-0.8713379,-0.034240723,-0.47369385,5.796875,5.984375,0.890625
545,-0.89331055,-0.062561035,-0.49005127,6.75,8.53125,2.078125
546,-0.9350586,-0.07354736,-0.39215088,4.171875,13.359375,0.953125
547,-1.0559082,-0.04522705,-0.36968994,-2.25,-1.953125,1.890625
548,-0.9301758,-0.047180176,-0.36724854,-4.34375,2.046875,-0.03125
549,-0.9177246,-0.050354004,-0.40802002,-1.3125,5.484375,-0.421875
550,-0.9135742,-0.039367676,-0.4024048,-1.0625,1.3125,0.0
551,-0.89501953,-0.05230713,-0.35064697,0.796875,0.484375,0.515625
552,-1.020752,-0.043273926,-0.4631958,-9.390625,0.0625,-1.28125
553,-0.87841797,-0.04058838,-0.3526001,4.71875,-0.65625,-1.296875
554,-0.9248047,-0.016906738,-0.44049072,0.3125,-8.71875,0.984375
555,-0.90478516,-0.05230713,-0.47174072,-4.75,-11.515625,1.765625
556,-0.87597656,-0.066467285,-0.45806885,2.25,-12.84375,1.1875
557,-0.89624023,-0.0647583,-0.4824829,1.9375,-4.203125,-0.25
558,-0.87353516,-0.038146973,-0.5149536,2.765625,5.71875,-0.21875
559,-0.8857422,-0.06524658,-0.4841919,6.640625,10.578125,0.96875
560,-0.98779297,-0.1194458,-0.48468018,1.171875,12.703125,2.515625
561,-0.8010254,0.04827881,-0.347229,-1.203125,10.3125,-1.046875
562,-0.95996094,-0.061340332,-0.30377197,-2.4375,6.328125,-1.03125
563,-0.890625,-0.039367676,-0.47027588,-6.0,0.171875,0.40625
564,-0.96069336,-0.0635376,-0.39874268,-3.078125,0.390625,-1.328125
565,-0.8864746,-0.0095825195,-0.38653564,-0.703125,2.484375,-2.15625
566,-0.9355469,-0.0005493164,-0.45440674,-2.640625,1.28125,0.78125
567,-0.9621582,-0.07696533,-0.378479,2.15625,1.875,0.34375
568,-0.888916,-0.0256958,-0.42144775,-0.5,-5.984375,1.46875
569,-0.8964844,-0.039123535,-0.4800415,0.28125,-9.515625,2.3125
570,-0.90625,-0.066467285,-0.43511963,0.6875,-2.75,-0.0625
571,-0.8857422,-0.035705566,-0.48223877,1.6875,2.796875,-0.171875
572,-0.90112305,-0.043029785,-0.44805908,2.53125,5.71875,0.28125
573,-0.91259766,-0.06719971,-0.48492432,4.234375,7.1875,0.21875
574,-0.8779297,-0.02178955,-0.4553833,-2.9375,6.640625,0.65625
575,-0.94140625,-0.035217285,-0.315979,-0.34375,3.328125,1.546875
576,-0.9807129,-0.08648682,-0.35235596,-5.84375,0.0625,0.453125
577,-0.94628906,-0.041809082,-0.40924072,-3.15625,3.734375,-0.25
578,-0.92211914,-0.055236816,-0.4043579,-3.3125,-0.140625,-1.390625
579,-0.88549805,-0.019104004,-0.43585205,-6.734375,-1.078125,-0.953125
580,-0.9304199,-0.047180176,-0.40777588,0.96875,-4.921875,-0.265625
581,-0.9423828,-0.055480957,-0.4570923,-1.21875,-9.703125,0.515625
582,-0.91308594,-0.04107666,-0.44122314,-0.125,-4.046875,0.609375
583,-0.8964844,-0.047180176,-0.45880127,1.828125,-7.21875,2.5
584,-0.8876953,-0.08355713,-0.51763916,2.0,-4.59375,0.53125
585,-0.87646484,-0.054504395,-0.47833252,6.671875,-1.75,-0.203125
586,-0.9082031,-0.051818848,-0.50738525,3.859375,8.453125,0.265625
587,-0.8857422,-0.051330566,-0.4751587,5.0625,8.78125,2.03125
588,-0.8688965,-0.07696533,-0.6018677,-3.8125,-2.3125,4.046875
589,-0.85302734,0.030700684,-0.29888916,-4.109375,12.875,-0.375
590,-1.041748,-0.109436035,-0.34161377,-6.46875,0.6875,-1.15625
591,-0.85424805,-0.038635254,-0.41314697,-2.8125,5.984375,-1.09375
592,-0.99609375,-0.07696533,-0.40655518,-2.15625,1.28125,0.65625
593,-0.86987305,-0.059631348,-0.40167236,-1.9375,-3.578125,-1.890625
594,-0.91552734,-0.008117676,-0.4631958,-0.203125,-2.203125,-1.0
595,-0.91967773,-0.06915283,-0.43389893,2.734375,2.9375,-0.703125
596,-0.9069824,-0.027404785,-0.4500122,0.84375,-8.59375,1.15625
597,-0.8886719,-0.059143066,-0.49273682,-0.53125,-7.359375,1.359375
598,-0.90185547,-0.08062744,-0.46905518,1.3125,-1.421875,0.421875
599,-0.88842773,-0.05596924,-0.48614502,2.375,6.203125,0.015625
600,-0.890625,-0.043029785,-0.46295166,3.484375,6.9375,-0.34375
601,-0.8857422,-0.037902832,-0.48809814,4.8125,2.390625,0.6875
602,-0.9177246,-0.101867676,-0.46270752,-0.453125,12.375,-0.25
603,-0.99902344,0.02557373,-0.27618408,1.265625,6.046875,-1.21875
604,-0.9416504,-0.04937744,-0.4590454,-5.109375,1.9375,3.15625
605,-0.8154297,-0.04425049,-0.4553833,-1.984375,8.296875,-0.875
606,-0.9580078,-0.06451416,-0.3633423,-1.375,2.34375,1.734375
607,-0.8425293,-0.070373535,-0.3616333,-1.859375,-2.671875,-0.25
608,-0.9465332,-0.016174316,-0.44708252,0.578125,-1.265625,-2.0625
609,-1.0043945,-0.09185791,-0.42462158,4.875,-3.921875,-0.828125
610,-0.88964844,-0.041809082,-0.46295166,-0.453125,-4.5625,-1.40625
611,-0.89208984,-0.022033691,-0.47320557,3.078125,-7.546875,0.59375
612,-0.89501953,-0.054748535,-0.46881104,1.828125,-2.265625,1.671875
613,-0.9050293,-0.050354004,-0.47906494,1.890625,5.390625,-0.15625
614,-0.9067383,-0.054016113,-0.44610596,3.4375,7.0,1.671875
615,-0.8876953,-0.077697754,-0.503479,1.953125,0.4375,1.3125
616,-0.9099121,-0.0051879883,-0.40826416,-0.359375,7.875,0.0
617,-1.0263672,-0.07525635,-0.33477783,1.125,0.15625,1.828125
618,-0.88305664,-0.0154418945,-0.42462158,-4.453125,3.234375,-0.828125
619,-0.9416504,-0.07232666,-0.42144775,-0.6875,3.09375,0.5625
620,-0.93066406,-0.05670166,-0.4180298,-3.03125,2.171875,-2.09375
621,-0.90185547,-0.019592285,-0.39605713,-1.859375,5.421875,-2.578125
622,-0.9265137,-0.021057129,-0.44586182,0.09375,1.3125,0.296875
623,-0.9470215,-0.05645752,-0.42266846,2.84375,-1.734375,1.390625
624,-0.89990234,-0.028625488,-0.4607544,-2.78125,-6.609375,-0.515625
625,-0.89868164,-0.050842285,-0.44952393,0.953125,-7.109375,1.53125
626,-0.9016113,-0.054992676,-0.47686768,1.28125,-2.640625,0.171875
627,-0.89038086,-0.04107666,-0.487854,1.265625,-0.328125,0.34375
628,-0.9226074,-0.04888916,-0.44024658,1.671875,0.453125,2.796875
629,-0.9055176,-0.0569458,-0.46929932,7.359375,-4.09375,3.40625
630,-0.85595703,-0.0134887695,-0.5430298,8.203125,10.0,4.546875
631,-0.9223633,-0.042297363,-0.3743286,3.03125,5.546875,3.375
632,-0.8989258,-0.066711426,-0.38043213,-4.734375,3.84375,3.046875
633,-0.9367676,-0.09454346,-0.38189697,-2.21875,0.578125,0.53125
634,-0.87768555,-0.030334473,-0.4133911,-6.78125,-2.609375,-1.46875
635,-0.95410156,-0.049621582,-0.51641846,-7.796875,-8.21875,1.0
636,-0.9572754,-0.08502197,-0.41583252,2.234375,-5.109375,-2.34375
637,-0.8276367,-0.04034424,-0.5171509,-0.671875,-8.953125,-0.9375
638,-0.8835449,-0.04888916,-0.4805298,-0.234375,-6.65625,1.53125
639,-0.8535156,-0.06842041,-0.51763916,0.34375,-7.28125,0.90625
640,-0.8913574,-0.042053223,-0.51934814,1.984375,-5.265625,0.875
641,-0.876709,-0.061584473,-0.56134033,0.265625,1.3125,0.234375
642,-0.86499023,-0.05255127,-0.5408325,1.59375,9.296875,-1.234375
643,-0.85668945,-0.049621582,-0.53863525,4.828125,10.15625,0.609375
644,-0.8442383,-0.07330322,-0.5125122,3.53125,1.03125,1.625
645,-0.8449707,-0.06060791,-0.45611572,-1.484375,20.078125,-1.25
646,-1.0522461,-0.06573486,-0.36236572,1.484375,6.21875,0.375
647,-0.84277344,-0.01763916,-0.43902588,-6.203125,5.75,-2.09375
648,-0.9577637,-0.055236816,-0.40216064,-2.1875,3.875,-1.125
649,-0.9030762,-0.051818848,-0.4505005,-0.203125,-0.09375,-1.546875
650,-0.9230957,-0.024963379,-0.44171143,-0.34375,0.546875,-1.90625
651,-0.9069824,-0.0335083,-0.43756104,1.0625,-1.8125,0.90625
652,-0.861084,-0.06500244,-0.47857666,0.828125,-6.9375,0.515625
653,-0.8979492,-0.037902832,-0.4746704,-0.03125,-3.859375,0.3125
654,-0.89624023,-0.04425049,-0.4854126,-0.109375,1.828125,-0.015625
655,-0.8898926,-0.04840088,-0.4619751,0.5625,7.0,-0.234375
656,-0.91918945,-0.026916504,-0.47149658,1.328125,5.5,0.296875
657,-0.8898926,-0.058166504,-0.4607544,2.390625,3.765625,1.4375
658,-0.89990234,-0.041809082,-0.45318604,3.34375,0.828125,-0.015625
659,-0.92041016,-0.010803223,-0.45196533,-3.6875,3.515625,0.125
660,-0.87109375,-0.008850098,-0.39141846,0.03125,10.21875,0.71875
661,-0.93310547,-0.05596924,-0.3965454,-7.546875,1.59375,0.65625
662,-0.876709,-0.058654785,-0.39898682,-3.78125,5.5625,-1.484375
663,-0.95166016,-0.02911377,-0.39508057,-2.0,1.25,-1.25
664,-0.9050293,-0.049865723,-0.42218018,0.796875,-2.828125,-2.0
665,-0.96655273,-0.043762207,-0.44903564,-3.046875,2.515625,-2.03125
666,-0.8935547,-0.028137207,-0.43463135,1.40625,-5.265625,0.078125
667,-0.8730469,-0.0010375977,-0.44854736,-3.234375,-5.59375,0.015625
668,-0.9099121,-0.045959473,-0.4837036,-0.546875,-6.03125,2.28125
669,-0.9226074,-0.062561035,-0.45684814,1.609375,1.734375,0.015625
670,-0.8881836,-0.04449463,-0.46295166,1.65625,5.53125,0.328125
671,-0.8979492,-0.05255127,-0.47906494,1.21875,6.453125,1.21875
672,-0.91015625,-0.07623291,-0.4902954,2.546875,7.34375,0.109375
673,-0.9597168,-0.039855957,-0.42999268,1.4375,5.9375,0.453125
674,-0.9206543,-0.014709473,-0.34259033,0.15625,12.84375,-1.640625
675,-0.93481445,-0.06695557,-0.37091064,-2.921875,1.921875,-2.671875
676,-0.9042969,0.030212402,-0.3550415,-0.96875,4.984375,0.875
677,-0.9838867,-0.08282471,-0.3567505,0.609375,4.984375,1.0
678,-0.90649414,-0.031555176,-0.38116455,-0.84375,-3.453125,-0.234375
679,-0.9470215,-0.0076293945,-0.41046143,-0.890625,-4.015625,0.53125
680,-0.96362305,-0.06549072,-0.3994751,-0.796875,-0.09375,-0.90625
681,-0.8630371,-0.043029785,-0.4505005,3.6875,-9.96875,0.6875
682,-0.9223633,-0.03277588,-0.4529419,0.515625,-8.125,0.71875
683,-0.9169922,-0.054992676,-0.4517212,1.265625,-4.4375,0.453125
684,-0.9133301,-0.038391113,-0.4776001,0.34375,2.78125,-0.34375
685,-0.9057617,-0.06109619,-0.4680786,0.65625,7.28125,0.59375
686,-0.9423828,-0.03741455,-0.4529419,3.4375,2.890625,1.140625
687,-0.9304199,-0.03277588,-0.39605713,0.140625,4.640625,0.375
688,-0.9099121,-0.03643799,-0.32891846,0.6875,9.984375,0.078125
689,-0.93066406,-0.041809082,-0.42095947,-0.890625,4.125,0.328125
690,-0.9370117,-0.0413208,-0.3862915,-1.5,3.34375,0.171875
691,-0.9328613,-0.042297363,-0.40411377,-0.171875,1.21875,-0.625
692,-0.92089844,-0.022521973,-0.37530518,-0.4375,0.546875,-0.6875
693,-0.9538574,-0.032043457,-0.41070557,-1.25,-0.546875,-0.15625
694,-0.90844727,-0.042053223,-0.4199829,0.8125,-6.984375,0.28125
695,-0.8781738,-0.03253174,-0.43292236,0.125,-6.46875,1.015625
696,-0.91552734,-0.04815674,-0.4500122,1.25,-5.5,0.6875
697,-0.89501953,-0.03375244,-0.46051025,-0.515625,-2.078125,-0.390625
698,-0.91186523,-0.04498291,-0.46368408,-0.390625,2.59375,0.40625
699,-0.907959,-0.044006348,-0.47418213,2.671875,7.671875,1.203125
700,-0.87646484,-0.04888916,-0.489563,6.625,0.390625,2.109375
701,-0.9465332,-0.02935791,-0.35992432,-1.125,4.765625,0.6875
702,-0.9116211,0.013122559,-0.3665161,-1.296875,10.59375,1.1875
703,-0.9189453,-0.07476807,-0.3665161,-1.671875,3.46875,-0.640625
704,-0.87475586,-0.0032348633,-0.45074463,-5.9375,-0.0625,0.5
705,-0.9790039,-0.073791504,-0.3562622,-2.671875,1.9375,-0.40625
706,-0.89331055,-0.031555176,-0.40167236,-0.109375,0.25,-1.40625
707,-0.95288086,-0.010070801,-0.43927002,2.609375,1.0,-1.046875
708,-0.97631836,-0.0635376,-0.39923096,3.09375,0.1875,0.3125
709,-0.86987305,-0.022521973,-0.46710205,-1.5,-8.34375,0.171875
710,-0.91625977,-0.055725098,-0.4319458,2.40625,-1.421875,0.8125
711,-0.90771484,-0.0335083,-0.46588135,-2.09375,3.765625,-0.34375
712,-0.92285156,-0.04058838,-0.4295044,1.0,4.765625,0.796875
713,-0.89624023,-0.02911377,-0.38433838,4.96875,2.140625,1.140625
714,-0.93774414,-0.07623291,-0.49298096,-3.71875,-5.96875,3.3125
715,-0.84765625,-0.0071411133,-0.3640747,-0.484375,3.484375,-0.328125
716,-1.0488281,-0.0791626,-0.39483643,-1.765625,2.421875,0.796875
717,-0.87719727,-0.016418457,-0.44903564,-3.46875,4.296875,-1.6875
718,-0.9592285,-0.038146973,-0.41192627,0.171875,4.53125,0.109375
719,-0.8876953,-0.043518066,-0.38458252,1.671875,4.921875,-1.625
720,-0.9458008,-0.0022583008,-0.43145752,1.3125,2.1875,0.03125
721,-0.97509766,-0.06427002,-0.3633423,3.453125,3.9375,-0.953125
722,-0.89575195,-0.014709473,-0.42364502,-2.03125,0.234375,-0.4375
723,-0.9345703,-0.03668213,-0.41192627,2.0625,-4.671875,0.484375
724,-0.8935547,-0.033996582,-0.45928955,2.265625,-5.015625,1.46875
725,-0.9213867,-0.022277832,-0.42852783,1.03125,-0.984375,0.234375
726,-0.8708496,-0.030578613,-0.48199463,10.25,3.640625,0.96875
727,-0.87939453,-0.10992432,-0.4385376,12.609375,14.203125,1.84375
728,-1.0119629,0.022644043,-0.36602783,0.578125,-0.234375,2.1875
729,-0.9367676,-0.033996582,-0.2559204,6.125,-2.34375,0.3125
730,-0.9370117,-0.019592285,-0.440979,-9.828125,5.703125,-0.53125
731,-0.88964844,-0.044006348,-0.44708252,-0.375,3.484375,-0.5625
732,-0.9448242,-0.032287598,-0.3899536,0.40625,3.0625,0.25
733,-0.9094238,0.0048217773,-0.40802002,1.359375,-0.59375,-1.296875
734,-0.9470215,-0.03375244,-0.38238525,7.046875,4.671875,0.90625
735,-0.94506836,-0.05718994,-0.4055786,-0.578125,-3.984375,0.953125
736,-0.8979492,-0.0032348633,-0.39874268,-0.375,-1.421875,-0.625
737,-0.92700195,-0.04864502,-0.45098877,-1.1875,-3.96875,0.921875
738,-0.9484863,-0.034484863,-0.4343872,-0.546875,-3.0625,0.03125
739,-0.88916016,-0.022277832,-0.46368408,-1.71875,-0.75,-0.046875
740,-0.8898926,-0.011779785,-0.45587158,-0.375,2.421875,0.65625
741,-0.9345703,-0.059143066,-0.4841919,-0.890625,2.375,1.203125
742,-0.9099121,0.00018310547,-0.39093018,-1.953125,7.03125,-1.0
743,-0.94555664,0.014099121,-0.3501587,1.28125,3.078125,1.109375
744,-0.98999023,-0.019836426,-0.39923096,-0.375,-2.015625,2.53125
745,-0.8833008,-0.05279541,-0.42999268,-1.890625,1.140625,0.3125
746,-0.93725586,-0.053771973,-0.42877197,1.0,4.40625,0.453125
747,-0.92211914,-0.06060791,-0.38336182,-0.21875,-3.765625,0.21875
748,-0.96362305,-0.015930176,-0.4336548,3.640625,-3.71875,-1.375
749,-0.8828125,-0.0095825195,-0.442688,2.078125,-7.734375,0.28125
750,-0.9375,-0.026184082,-0.48760986,0.625,-9.15625,0.875
751,-0.8859863,-0.028137207,-0.48394775,0.828125,-3.84375,-0.15625
752,-0.89697266,-0.016174316,-0.4932251,-0.015625,0.65625,0.671875
753,-0.90600586,-0.043273926,-0.4998169,-4.859375,2.515625,2.125
754,-0.9116211,-0.058898926,-0.39215088,-3.3125,2.03125,1.203125
755,-0.92089844,-0.07232666,-0.4661255,-5.828125,1.328125,1.75
756,-0.9567871,-0.039367676,-0.28497314,1.15625,8.703125,-2.359375
757,-0.8227539,-0.027404785,-0.48443604,-1.125,3.796875,1.15625
758,-0.9953613,-0.062316895,-0.44000244,0.296875,3.015625,-1.125
759,-0.87158203,-0.031555176,-0.40777588,0.6875,4.984375,-1.5625
