sample_no,accel_x,accel_y,accel_z,gyro_x,gyro_y,gyro_z
0,-0.15722656,-0.987854,-0.055480957,1.140625,-1.0,-0.203125
1,-0.18676758,-0.9973755,-0.04937744,0.78125,-1.53125,-1.09375
2,-0.1665039,-0.99053955,-0.03717041,2.40625,-0.875,1.53125
3,-0.19165039,-0.99176025,-0.054504395,-2.4375,1.15625,1.625
4,-0.14038086,-0.93292236,-0.073791504,-8.1875,7.109375,-5.390625
5,-0.19311523,-1.0147095,0.06512451,-8.15625,-0.28125,-2.96875
6,-0.15917969,-1.0247192,-0.05255127,-6.65625,2.3125,-3.765625
7,-0.23217773,-1.0286255,-0.00982666,-1.59375,-3.84375,-4.703125
8,-0.17480469,-0.9780884,-0.004211426,0.328125,0.984375,-2.71875
9,-0.15820312,-0.94903564,-0.014953613,2.671875,-0.9375,1.4375
10,-0.20336914,-0.98101807,-0.0071411133,3.578125,-1.078125,0.34375
11,-0.14331055,-0.989563,-0.07208252,0.609375,-1.359375,-1.828125
12,-0.20605469,-1.013977,-0.025939941,1.6875,-1.15625,0.421875
13,-0.18701172,-0.95977783,-0.074523926,-1.484375,0.859375,0.46875
14,-0.19750977,-0.9805298,-0.04815674,2.78125,-2.671875,1.28125
15,-0.1772461,-0.97125244,-0.05279541,4.984375,-0.796875,1.53125
16,-0.17797852,-0.9649048,-0.0635376,4.625,0.90625,4.65625
17,-0.17407227,-0.9702759,-0.07159424,4.5625,-0.40625,2.671875
18,-0.1862793,-0.9961548,-0.019592285,3.734375,-3.0625,2.140625
19,-0.19921875,-0.99053955,-0.054992676,3.359375,-3.96875,1.203125
20,-0.1640625,-0.9871216,-0.074035645,3.1875,-3.09375,1.015625
21,-0.17138672,-0.9993286,-0.058410645,0.796875,-2.890625,1.53125
22,-0.15209961,-0.98223877,-0.07232666,-0.28125,-1.890625,0.234375
23,-0.14892578,-0.98028564,-0.101623535,-1.21875,-2.359375,0.796875
24,-0.13793945,-0.8821411,-0.070129395,-6.875,-3.203125,-1.546875
25,-0.22265625,-1.1445923,0.0072631836,0.734375,-4.375,1.40625
26,-0.119384766,-0.98883057,-0.113098145,-6.84375,6.234375,-1.921875
27,-0.18896484,-0.94610596,0.0033569336,-3.828125,-3.203125,-1.984375
28,-0.18823242,-1.041565,-0.038879395,-3.640625,0.703125,-1.59375
29,-0.16137695,-1.0120239,-0.06085205,-1.78125,3.46875,-2.875
30,-0.17797852,-1.0025024,-0.040100098,2.4375,3.671875,1.71875
31,-0.16113281,-1.005188,-0.023010254,8.546875,1.28125,5.890625
32,-0.18261719,-0.96466064,-0.08355713,13.3125,-0.734375,2.65625
33,-0.11669922,-0.9793091,-0.043762207,13.59375,3.125,6.015625
34,-0.14355469,-0.940979,-0.12799072,6.328125,-0.046875,2.265625
35,-0.13061523,-0.9451294,-0.11602783,3.5,1.484375,0.40625
36,-0.14331055,-0.95977783,-0.09820557,-0.6875,0.8125,-0.890625
37,-0.18554688,-0.98394775,-0.097473145,-4.40625,0.390625,-3.203125
38,-0.13891602,-1.0046997,-0.105041504,-4.203125,-1.75,-4.328125
39,-0.15136719,-0.98760986,-0.08306885,-3.21875,-0.578125,-1.59375
40,-0.15991211,-0.9805298,-0.0869751,-2.015625,-1.78125,-0.375
41,-0.15478516,-0.9883423,-0.09552002,-0.78125,-0.5,0.28125
42,-0.14697266,-0.97784424,-0.08331299,-0.671875,-1.125,1.1875
43,-0.16015625,-0.9927368,-0.074279785,-0.046875,-0.828125,1.09375
44,-0.14282227,-0.9727173,-0.073791504,-0.140625,-0.734375,0.328125
45,-0.1616211,-0.9939575,-0.05230713,1.296875,-0.65625,0.53125
46,-0.15307617,-0.9956665,-0.07989502,-0.1875,0.6875,-0.296875
47,-0.12011719,-0.9627075,-0.09991455,-0.203125,0.953125,-0.078125
48,-0.1262207,-0.9981079,-0.11920166,-3.3125,-3.03125,1.234375
49,-0.14648438,-0.88848877,-0.06500244,-9.921875,7.296875,-1.65625
50,-0.17163086,-1.1074829,0.0692749,-3.109375,-2.296875,0.15625
51,-0.08984375,-0.8945923,-0.1404419,-3.046875,1.828125,1.890625
52,-0.24389648,-0.9907837,0.0021362305,-1.3125,-2.703125,-2.453125
53,-0.099609375,-1.0010376,-0.08013916,-1.28125,1.828125,-2.421875
54,-0.1159668,-0.9702759,-0.09185791,-0.25,-3.765625,-0.890625
55,-0.22509766,-1.008606,-0.04083252,0.046875,-2.578125,-1.984375
56,-0.13500977,-0.9763794,-0.06549072,0.625,-0.5625,-0.234375
57,-0.19018555,-0.99224854,-0.05303955,0.40625,-1.390625,-0.09375
58,-0.15185547,-0.97491455,-0.07867432,-0.484375,2.15625,-0.828125
59,-0.1538086,-1.0144653,-0.03741455,1.359375,0.15625,0.625
60,-0.1928711,-0.9602661,-0.10235596,-1.75,8.71875,1.421875
61,-0.064941406,-0.88604736,-0.09942627,-2.328125,12.6875,-1.78125
62,-0.24707031,-1.0957642,0.13983154,-3.203125,2.0,-1.25
63,-0.09716797,-0.98883057,-0.14263916,-8.671875,5.734375,-2.640625
64,-0.2536621,-0.98394775,0.06121826,-3.484375,-2.234375,-6.46875
65,-0.123291016,-1.0183716,-0.07208252,4.890625,1.0,0.03125
66,-0.18334961,-0.9614868,-0.009338379,4.6875,-4.703125,2.96875
67,-0.20800781,-1.0169067,0.0021362305,2.390625,-3.890625,-4.5
68,-0.13867188,-0.9841919,-0.038391113,3.46875,1.6875,-1.296875
69,-0.2331543,-0.9690552,-0.070129395,5.140625,-0.015625,-0.75
70,-0.17651367,-0.95025635,-0.06036377,1.765625,7.953125,-2.46875
71,-0.15283203,-1.0215454,-0.074035645,2.640625,2.65625,-2.765625
72,-0.19335938,-0.956604,-0.1116333,3.109375,5.71875,-0.578125
73,-0.13745117,-0.9417114,-0.10308838,5.046875,7.328125,2.453125
74,-0.20263672,-0.97540283,-0.0647583,0.734375,6.453125,1.671875
75,-0.16357422,-0.9763794,-0.081604004,0.46875,5.703125,0.140625
76,-0.18017578,-1.0193481,-0.06866455,0.921875,2.671875,1.453125
77,-0.16064453,-0.9702759,-0.06817627,0.921875,2.25,-0.0625
78,-0.19604492,-1.006897,-0.03717041,-0.59375,-0.25,-0.78125
79,-0.16894531,-0.9837036,-0.06329346,-1.3125,1.671875,-0.75
80,-0.1550293,-0.9258423,-0.06939697,-4.59375,2.75,-0.46875
81,-0.18554688,-1.065979,-0.07696533,-0.78125,-0.984375,-1.5625
82,-0.17407227,-0.99957275,-0.039367676,-2.71875,2.296875,-0.609375
83,-0.1652832,-0.94122314,-0.08306885,-1.375,-1.984375,-0.59375
84,-0.22192383,-1.0098267,-0.018127441,-2.03125,-1.0625,-0.421875
85,-0.21948242,-0.9998169,-0.03375244,-2.09375,1.6875,-0.921875
86,-0.16625977,-0.98028564,-0.07086182,-3.625,-0.078125,-1.0
87,-0.2475586,-1.0215454,-0.007385254,-3.390625,1.296875,-1.765625
88,-0.17089844,-0.9883423,-0.06866455,-1.21875,1.6875,0.203125
89,-0.18579102,-0.956604,-0.05279541,-1.546875,0.734375,-1.140625
90,-0.15625,-0.987854,-0.062561035,-1.8125,1.125,-2.4375
91,-0.17797852,-0.96466064,-0.054992676,-0.46875,1.671875,-0.953125
92,-0.18579102,-0.9788208,-0.027648926,-1.9375,0.859375,-0.921875
93,-0.16455078,-0.97979736,-0.031066895,-2.390625,1.125,1.140625
94,-0.23217773,-1.1599731,0.026062012,-6.15625,-5.0,-3.609375
95,-0.2565918,-0.9885864,0.05657959,-9.015625,-3.703125,-8.546875
96,-0.14453125,-0.93170166,-0.1375122,-0.390625,-4.140625,0.203125
97,-0.2626953,-0.99664307,0.062683105,4.1875,-10.09375,6.265625
98,-0.18408203,-0.9417114,0.014587402,1.46875,-3.125,-0.109375
99,-0.1875,-1.0420532,-0.050598145,2.890625,-8.921875,-3.828125
100,-0.16625977,-0.942688,-0.028137207,0.953125,-3.65625,-1.890625
101,-0.24414062,-0.9841919,-0.044006348,3.0625,-8.9375,-0.9375
102,-0.2163086,-0.96881104,-0.04156494,-0.265625,-2.84375,-3.21875
103,-0.19189453,-0.96221924,-0.09088135,1.265625,-1.265625,-0.515625
104,-0.18603516,-0.9649048,-0.06744385,1.71875,1.46875,2.84375
105,-0.23608398,-0.9768677,-0.05279541,-0.09375,-0.453125,1.0625
106,-0.20288086,-0.9902954,-0.03765869,-0.21875,3.546875,2.875
107,-0.18017578,-0.99102783,-0.024230957,-0.578125,-0.703125,0.25
108,-0.20751953,-1.0059204,-0.0012817383,-1.1875,-1.359375,0.09375
109,-0.19848633,-0.9944458,-0.0413208,-2.78125,-0.203125,0.609375
110,-0.13720703,-0.86260986,-0.035705566,-3.421875,5.765625,0.09375
111,-0.24902344,-1.0820923,0.04437256,4.40625,-2.6875,6.875
112,-0.10961914,-0.93707275,-0.086242676,0.84375,4.34375,2.0
113,-0.30273438,-1.0291138,0.06341553,0.953125,-3.21875,1.765625
114,-0.12719727,-0.97735596,-0.06695557,-0.03125,-1.078125,2.0625
115,-0.20581055,-0.9746704,-0.05279541,0.5,-0.46875,1.3125
116,-0.13183594,-0.9661255,-0.08331299,-0.84375,3.046875,-0.234375
117,-0.2109375,-1.0081177,0.0048217773,2.8125,-6.90625,0.21875
118,-0.14575195,-0.9819946,-0.06842041,-2.046875,7.53125,-0.71875
119,-0.24902344,-0.99713135,-0.013000488,-1.0,-1.859375,-0.96875
120,-0.12939453,-0.9854126,-0.06060791,-2.984375,6.578125,-0.234375
121,-0.19995117,-1.0166626,0.0067749023,-1.546875,-5.78125,-2.203125
122,-0.23632812,-1.0474243,0.038757324,-4.3125,-0.328125,-4.078125
123,-0.15356445,-0.91900635,-0.101623535,0.15625,4.5,-0.71875
124,-0.1586914,-0.9495239,-0.043762207,1.125,-3.578125,-0.8125
125,-0.18359375,-1.0283813,-0.0095825195,0.375,2.109375,-0.078125
126,-0.20166016,-0.96661377,-0.037902832,1.1875,-2.03125,1.0625
127,-0.24023438,-0.99224854,-0.020812988,0.859375,3.078125,2.1875
128,-0.15161133,-1.0012817,-0.037902832,-0.59375,2.65625,1.390625
129,-0.1665039,-0.9885864,-0.041809082,-4.1875,4.21875,2.734375
130,-0.17260742,-0.95147705,0.005554199,-8.0,4.75,-5.34375
131,-0.2331543,-1.0654907,0.055358887,-7.328125,-0.109375,-4.421875
132,-0.084228516,-0.9729614,-0.04156494,-2.65625,-7.15625,-2.125
133,-0.33374023,-0.8928833,0.0602417,8.265625,-15.515625,1.890625
134,-0.17822266,-1.0042114,-0.004211426,3.484375,5.140625,-5.59375
135,-0.10253906,-0.9956665,-0.043029785,4.609375,-8.765625,-3.921875
136,-0.20361328,-0.97369385,-0.042053223,4.421875,-9.140625,-1.125
137,-0.23388672,-0.9841919,-0.029846191,0.03125,-1.296875,-2.765625
138,-0.24780273,-0.96710205,-0.037902832,0.875,-1.84375,-4.34375
139,-0.21191406,-0.98443604,-0.10089111,2.6875,1.484375,-2.75
140,-0.12011719,-0.9614868,-0.046936035,1.71875,2.671875,1.8125
141,-0.2409668,-0.95562744,-0.07086182,1.21875,1.34375,4.484375
142,-0.203125,-0.9990845,-0.021057129,0.765625,2.671875,0.484375
143,-0.18676758,-0.9920044,-0.034973145,0.5625,1.640625,1.765625
144,-0.19604492,-0.98321533,-0.051330566,1.375,-0.0625,2.140625
145,-0.21557617,-0.9746704,-0.034484863,-0.234375,0.890625,1.015625
146,-0.20629883,-0.9907837,-0.06719971,0.3125,1.734375,2.015625
147,-0.11767578,-0.9793091,-0.034240723,0.578125,5.078125,3.828125
148,-0.23706055,-0.9915161,-0.01373291,-0.765625,0.359375,4.359375
149,-0.20532227,-0.9949341,-0.01739502,-2.859375,3.984375,1.3125
150,-0.13232422,-0.9158325,-0.031066895,-5.71875,4.953125,-1.515625
151,-0.22314453,-1.0740356,0.012634277,2.671875,0.734375,4.359375
152,-0.123291016,-0.9002075,-0.054992676,-1.625,0.5625,2.21875
153,-0.30395508,-1.0440063,0.042907715,-1.28125,-0.109375,-2.953125
154,-0.07446289,-0.9873657,-0.074035645,-2.796875,3.484375,1.46875
155,-0.23779297,-1.019104,0.062927246,-1.640625,-5.609375,-2.859375
156,-0.1694336,-0.9883423,-0.018615723,-2.796875,3.390625,-3.375
157,-0.18945312,-0.989563,-0.023742676,1.28125,-8.765625,-2.359375
158,-0.2097168,-0.942688,-0.02520752,-0.96875,0.390625,-1.0
159,-0.15625,-0.99298096,-0.058898926,-1.140625,-3.90625,-3.671875
160,-0.20507812,-1.0083618,0.0067749023,0.125,0.203125,-2.40625
161,-0.17480469,-0.9468384,-0.057922363,-1.71875,-0.21875,-1.484375
162,-0.21166992,-0.9937134,-0.01739502,-2.109375,0.6875,-2.765625
163,-0.20410156,-0.99713135,0.0060424805,-1.5,1.4375,-1.59375
164,-0.17944336,-0.9524536,-0.03668213,-1.015625,1.125,-2.296875
165,-0.18041992,-1.0056763,-0.0022583008,0.0625,-1.03125,-1.453125
166,-0.21411133,-0.96954346,-0.0154418945,-0.640625,0.65625,-0.203125
167,-0.20043945,-0.9873657,-0.02545166,1.015625,-0.578125,0.046875
168,-0.18823242,-0.9873657,-0.004699707,1.0,-0.109375,0.234375
169,-0.19482422,-0.975647,-0.02545166,2.0,-0.078125,2.1875
170,-0.1928711,-0.96832275,-0.022033691,2.78125,1.359375,2.4375
171,-0.22070312,-0.98931885,0.002380371,2.671875,1.75,2.5625
172,-0.11206055,-0.97052,-0.07159424,3.578125,1.15625,2.296875
173,-0.234375,-0.9805298,0.024353027,5.015625,1.03125,6.125
174,-0.16845703,-1.0056763,-0.03302002,-1.265625,5.234375,1.84375
175,-0.16333008,-1.0352173,-0.00592041,-1.75,0.6875,-0.03125
176,-0.18261719,-1.0132446,0.01727295,-1.53125,0.578125,-2.328125
177,-0.1977539,-0.97662354,-0.003479004,-1.15625,-4.421875,-0.21875
178,-0.27270508,-0.98028564,-0.008850098,-2.484375,0.125,-2.09375
179,-0.0847168,-1.0276489,-0.026916504,-1.0,-3.359375,-2.21875
180,-0.24072266,-0.9751587,-0.008850098,-2.78125,-3.40625,-0.71875
181,-0.1706543,-0.95391846,-0.04083252,-0.265625,0.75,-0.34375
182,-0.18798828,-1.0151978,-0.007385254,1.578125,-5.109375,-1.078125
183,-0.21386719,-0.9981079,0.019714355,0.796875,-4.640625,-1.421875
184,-0.19555664,-1.0100708,-0.022033691,-1.125,-3.09375,-3.234375
185,-0.18798828,-0.9627075,-0.030090332,0.265625,-3.046875,-2.828125
186,-0.18310547,-0.991272,-0.04425049,1.53125,-2.8125,-1.140625
187,-0.1821289,-0.97735596,-0.046691895,0.78125,0.171875,0.375
188,-0.16235352,-0.9397583,-0.070373535,1.375,4.25,3.3125
189,-0.19873047,-0.97540283,-0.013977051,3.828125,-0.546875,2.90625
190,-0.21728516,-1.0164185,-0.023010254,-2.53125,5.390625,0.234375
191,-0.13134766,-0.9651489,-0.017150879,-1.84375,5.421875,0.640625
192,-0.24243164,-1.0408325,0.043395996,-0.6875,-2.046875,3.1875
193,-0.09790039,-0.90216064,-0.105041504,-1.40625,9.84375,-1.015625
194,-0.2199707,-1.0684204,0.10491943,1.0,-7.234375,0.84375
195,-0.2626953,-0.9834595,0.031921387,-5.1875,4.359375,-1.671875
196,-0.1772461,-0.97003174,-0.017150879,-1.25,0.171875,-2.4375
197,-0.21459961,-1.0366821,0.019226074,0.703125,-0.859375,1.0625
198,-0.17602539,-0.97125244,-0.035461426,2.359375,-0.484375,-0.34375
199,-0.16137695,-0.9573364,-0.039611816,2.765625,-1.84375,2.078125
200,-0.21411133,-1.0120239,0.014587402,1.828125,0.640625,0.84375
201,-0.14697266,-0.9505005,-0.07745361,2.265625,3.0,0.3125
202,-0.14355469,-1.0112915,-0.013244629,1.96875,-0.21875,2.546875
203,-0.14990234,-0.9480591,-0.08477783,0.0625,2.546875,1.0
204,-0.15698242,-0.9468384,-0.026184082,-2.53125,0.9375,0.109375
205,-0.24511719,-1.223938,0.11639404,-9.09375,-7.421875,-7.0
206,-0.17456055,-0.91900635,-0.04034424,-5.34375,6.90625,-4.25
207,-0.25805664,-0.9578247,0.04876709,0.671875,-9.3125,-0.734375
208,-0.22192383,-1.1018677,0.07562256,0.484375,2.703125,1.78125
209,-0.1262207,-0.93634033,-0.09088135,0.875,-2.59375,-0.359375
210,-0.15673828,-0.9380493,-0.023498535,3.859375,-6.359375,-2.921875
211,-0.19238281,-1.0442505,0.019470215,1.6875,-7.203125,-2.984375
212,-0.2055664,-0.95806885,-0.03741455,-0.03125,0.359375,-3.328125
213,-0.1665039,-0.97369385,-0.020568848,-0.703125,-2.25,-4.09375
214,-0.23095703,-1.0056763,-0.0051879883,-1.984375,-2.125,-3.171875
215,-0.17919922,-0.9741821,-0.03326416,-1.03125,-3.296875,-2.75
216,-0.22998047,-0.9746704,-0.043762207,-0.65625,-1.8125,-1.625
217,-0.20141602,-0.9776001,-0.0154418945,1.109375,-1.265625,-0.734375
218,-0.20019531,-0.9673462,-0.046691895,0.40625,-0.0625,0.421875
219,-0.1953125,-0.9763794,-0.055236816,2.375,0.96875,1.484375
220,-0.19848633,-0.9866333,-0.040100098,2.703125,0.15625,4.28125
221,-0.22851562,-0.98516846,0.0065307617,2.203125,1.0,2.640625
222,-0.1784668,-0.98223877,-0.00592041,0.890625,-0.125,1.25
223,-0.20922852,-1.003479,-0.043762207,3.953125,-0.078125,4.8125
224,-0.23779297,-1.0696411,0.0045776367,4.234375,0.171875,6.328125
225,-0.1472168,-0.8596802,-0.030822754,4.015625,6.4375,7.125
226,-0.14135742,-1.0806274,-0.011291504,4.328125,-3.8125,3.28125
227,-0.11010742,-0.9470825,-0.030578613,-9.03125,6.734375,-2.28125
228,-0.19726562,-0.9805298,-0.025939941,-2.203125,-3.84375,-0.84375
229,-0.2055664,-1.0137329,-0.026184082,-3.5,-0.390625,-3.765625
230,-0.15283203,-0.9939575,-0.027648926,-3.75,-1.28125,-5.6875
231,-0.18115234,-0.9697876,-0.024963379,-1.125,-4.953125,-3.421875
232,-0.1953125,-0.98028564,-0.022277832,-2.53125,-3.3125,-3.703125
233,-0.21606445,-0.9924927,-0.042297363,3.734375,-3.109375,-1.234375
234,-0.18334961,-0.98687744,-0.046447754,-0.390625,-0.046875,-2.203125
235,-0.17016602,-0.96539307,-0.030578613,0.375,-1.6875,0.734375
236,-0.20019531,-0.98760986,-0.040100098,0.875,-0.9375,1.03125
237,-0.2175293,-1.0049438,-0.011779785,0.40625,-1.203125,1.15625
238,-0.16503906,-0.975647,-0.051574707,0.171875,-0.078125,0.671875
239,-0.15307617,-0.9776001,-0.020324707,-0.921875,-2.5625,-0.328125
240,-0.23144531,-0.99420166,-0.036193848,-0.65625,-2.53125,0.09375
241,-0.16113281,-0.975647,-0.042541504,-0.65625,-0.921875,-0.25
242,-0.20629883,-0.9939575,-0.006652832,-0.9375,-2.203125,0.328125
243,-0.1730957,-0.9834595,-0.049621582,-1.703125,-0.84375,-0.65625
244,-0.18920898,-0.9837036,-0.012023926,0.703125,-2.671875,-0.125
245,-0.17382812,-0.97369385,-0.054992676,-0.5,-0.296875,0.390625
246,-0.19702148,-0.95025635,-0.00030517578,-1.375,-1.0,-1.0625
247,-0.19824219,-1.0186157,-0.0115356445,-1.4375,1.6875,0.109375
248,-0.1784668,-0.9907837,-0.011047363,-2.84375,0.21875,-2.078125
249,-0.21679688,-0.9968872,-0.004699707,-2.3125,-1.359375,-2.0625
250,-0.2084961,-1.0239868,-0.0032348633,-0.0625,-0.1875,-1.015625
251,-0.20117188,-0.9636841,-0.016174316,2.03125,0.734375,0.46875
252,-0.1586914,-0.96710205,-0.015930176,2.46875,-2.046875,0.3125
253,-0.21386719,-0.99664307,0.00091552734,1.78125,-2.15625,0.703125
254,-0.19042969,-0.98931885,-0.024230957,0.71875,-0.84375,-1.75
255,-0.15527344,-0.99591064,-0.039367676,-0.5625,-1.984375,-1.46875
256,-0.21240234,-0.9780884,-0.035217285,0.5,-2.421875,-0.609375
257,-0.15283203,-0.95391846,-0.101623535,1.671875,0.453125,0.8125
258,-0.1862793,-0.98321533,-0.040100098,1.28125,-0.5,1.71875
259,-0.19165039,-0.9949341,-0.06915283,0.703125,-1.03125,1.578125
260,-0.17626953,-0.9920044,-0.024719238,0.9375,0.921875,1.484375
261,-0.19921875,-0.9768677,-0.042297363,-0.984375,-0.171875,0.921875
262,-0.17285156,-0.9968872,-0.03253174,-1.78125,-0.78125,-0.140625
263,-0.19726562,-0.9260864,-0.022766113,-4.5,0.796875,-0.359375
264,-0.14672852,-1.0791626,-0.049621582,2.4375,1.109375,1.53125
265,-0.18774414,-0.98101807,-0.006164551,0.546875,1.0,2.15625
266,-0.16040039,-0.9265747,-0.058654785,-1.234375,4.8125,1.375
267,-0.19970703,-1.0247192,0.0033569336,0.984375,-2.28125,0.265625
268,-0.16552734,-0.9697876,-0.059387207,-3.8125,6.984375,-1.484375
269,-0.16601562,-0.99420166,0.0028686523,-0.796875,-1.765625,-2.546875
270,-0.14672852,-1.0420532,-0.020324707,-2.84375,1.65625,-0.9375
271,-0.24145508,-0.9795532,-0.006652832,-2.21875,3.34375,-1.234375
272,-0.14526367,-0.96051025,-0.059143066,-0.625,-0.625,-0.875
273,-0.18530273,-1.0232544,-0.006652832,0.859375,-1.0,0.109375
274,-0.16992188,-0.9673462,-0.039367676,-0.90625,-0.59375,-0.515625
275,-0.20385742,-0.99005127,-0.013244629,-0.4375,-0.9375,0.34375
276,-0.17089844,-1.0020142,-0.030090332,0.015625,1.1875,0.578125
277,-0.19116211,-1.0061646,-0.04058838,1.21875,2.109375,3.671875
278,-0.12548828,-0.96661377,-0.03668213,-1.140625,1.9375,2.703125
279,-0.27197266,-1.1277466,0.08856201,-3.328125,-3.25,-1.375
280,-0.055419922,-0.9343872,-0.04888916,-8.5,0.03125,-8.25
281,-0.28930664,-0.97003174,0.054382324,-2.640625,-12.921875,-7.75
282,-0.25268555,-1.0266724,0.027526855,2.328125,1.109375,0.421875
283,-0.0703125,-0.97662354,-0.050109863,6.109375,-5.9375,0.84375
284,-0.20532227,-0.9793091,-0.0056762695,2.046875,-8.046875,-2.515625
285,-0.18676758,-0.97540283,-0.0115356445,2.375,-4.84375,-1.734375
286,-0.21264648,-0.9553833,-0.053771973,0.078125,-3.359375,-3.125
287,-0.23852539,-0.9795532,-0.007385254,-2.875,1.921875,-4.953125
288,-0.18334961,-1.00177,-0.0725708,-1.453125,-0.953125,-3.140625
289,-0.18676758,-0.98883057,-0.03253174,-1.1875,-1.0,-1.546875
290,-0.17993164,-0.94073486,-0.046691895,-0.15625,1.125,0.75
291,-0.1977539,-0.9661255,-0.05279541,-0.96875,-0.03125,0.984375
292,-0.19580078,-0.99176025,-0.016906738,0.359375,-1.484375,1.015625
293,-0.22705078,-0.9837036,0.0036010742,1.140625,-0.734375,1.03125
294,-0.19897461,-0.99468994,-0.0029907227,0.9375,-0.859375,-0.21875
295,-0.17773438,-0.99664307,-0.04815674,1.234375,-1.09375,-0.1875
296,-0.19995117,-0.9561157,-0.038635254,1.78125,-0.203125,1.171875
297,-0.21264648,-0.9993286,-0.03302002,1.53125,-1.21875,0.9375
298,-0.18603516,-0.8999634,-0.018859863,0.0625,5.859375,2.65625
299,-0.2541504,-1.1340942,0.038757324,7.4375,-0.671875,7.09375
300,-0.20629883,-0.9614868,-0.019104004,0.90625,9.28125,2.328125
301,-0.14501953,-0.9019165,-0.043273926,-0.6875,2.171875,-1.4375
302,-0.17944336,-1.0159302,-0.043273926,0.0,1.796875,-0.359375
303,-0.18579102,-1.0193481,-0.034240723,-2.109375,3.0,-1.15625
304,-0.18701172,-0.9717407,-0.010070801,-3.015625,3.625,-1.8125
305,-0.2084961,-1.0071411,-0.012023926,-0.6875,-1.1875,0.78125
306,-0.18920898,-0.956604,-0.030090332,-0.078125,1.40625,-0.4375
307,-0.17114258,-0.99224854,-0.054016113,1.78125,-0.453125,0.984375
308,-0.1315918,-0.9234009,-0.13873291,7.15625,6.59375,6.703125
309,-0.18725586,-1.1104126,0.074157715,-5.6875,-5.390625,-3.484375
310,-0.28466797,-1.0484009,0.014831543,-8.15625,3.734375,-0.78125
311,-0.20092773,-0.9194946,-0.023986816,-3.390625,-3.109375,-4.21875
312,-0.15576172,-0.991272,0.026794434,0.0625,-3.328125,-1.921875
313,-0.1694336,-0.9800415,-0.040100098,-2.515625,-3.59375,-1.53125
314,-0.23486328,-0.9602661,-0.012756348,1.515625,-4.71875,-1.34375
315,-0.16235352,-1.0073853,-0.012756348,2.046875,-1.453125,-0.21875
316,-0.20751953,-0.98883057,0.008239746,-0.34375,0.140625,-2.140625
317,-0.20825195,-0.9976196,-0.023254395,-2.484375,0.40625,-4.65625
318,-0.19238281,-0.9793091,-0.05670166,0.46875,1.765625,-0.28125
319,-0.16552734,-0.93829346,-0.07476807,5.546875,0.234375,3.109375
320,-0.21118164,-0.97613525,-0.06060791,2.609375,5.109375,3.296875
321,-0.17895508,-0.99005127,-0.03253174,4.5625,2.9375,1.328125
322,-0.14916992,-0.98516846,-0.090148926,4.6875,3.203125,3.0
323,-0.17700195,-1.0071411,-0.047180176,5.65625,1.390625,7.015625
324,-0.13745117,-1.0410767,-0.1296997,2.328125,7.9375,4.359375
325,-0.22827148,-1.0232544,0.078308105,4.0625,3.40625,4.453125
326,-0.072265625,-0.9668579,-0.02935791,-3.078125,0.765625,-0.4375
327,-0.27270508,-1.0166626,0.015808105,-6.4375,-2.609375,-1.6875
328,-0.11645508,-0.9546509,-0.070617676,-6.296875,2.953125,-4.53125
329,-0.1899414,-1.0315552,0.0021362305,-1.4375,-6.3125,-2.046875
330,-0.2055664,-0.98223877,-0.06549072,1.390625,-1.734375,-0.59375
331,-0.14892578,-0.98272705,-0.06451416,2.796875,-2.515625,-0.0625
332,-0.18261719,-0.98443604,-0.010314941,3.546875,0.0625,1.796875
333,-0.07348633,-0.87335205,-0.17486572,4.375,3.359375,4.84375
334,-0.2524414,-1.1670532,0.09881592,-10.5,-2.59375,-7.640625
335,-0.18530273,-0.9397583,-0.038879395,-8.71875,4.546875,-2.625
336,-0.21655273,-0.9595337,-0.02520752,-4.296875,-8.09375,-7.046875
337,-0.1875,-1.0181274,0.04925537,-2.625,-5.015625,-3.0625
338,-0.16333008,-0.97369385,-0.01373291,0.453125,-7.15625,2.21875
339,-0.23144531,-0.9768677,-0.012268066,1.125,-6.078125,-2.4375
340,-0.16796875,-0.9883423,0.018005371,1.03125,0.578125,-3.4375
341,-0.19384766,-0.9951782,-0.07208252,0.125,-1.765625,-4.3125
342,-0.1796875,-0.972229,-0.04425049,3.140625,-0.21875,-1.015625
343,-0.18945312,-0.9663696,-0.035949707,2.734375,-0.015625,0.53125
344,-0.18774414,-0.97076416,-0.08013916,1.59375,2.875,1.375
345,-0.1862793,-0.9915161,-0.045959473,3.078125,2.375,3.15625
346,-0.18359375,-0.97247314,-0.058166504,2.03125,0.21875,2.078125
347,-0.18310547,-0.9644165,-0.042541504,0.140625,1.515625,1.421875
348,-0.19067383,-1.0195923,-0.016174316,0.296875,0.53125,1.0
349,-0.17578125,-0.9859009,-0.06085205,0.796875,0.09375,1.421875
350,-0.12670898,-0.9014282,-0.053527832,-6.84375,5.84375,-1.59375
351,-0.24853516,-1.071106,0.036071777,2.359375,-1.65625,2.765625
352,-0.15844727,-0.95977783,-0.06939697,0.90625,4.671875,2.578125
353,-0.22290039,-0.99005127,0.021911621,1.734375,3.875,1.65625
354,-0.12817383,-0.98809814,-0.018371582,1.859375,0.5,2.796875
355,-0.2446289,-1.0379028,0.029724121,-4.1875,-1.40625,-1.265625
356,-0.16015625,-0.9468384,-0.04840088,-3.734375,3.875,-2.796875
357,-0.17700195,-1.03302,-0.004699707,0.015625,-4.609375,0.0
358,-0.20019531,-0.9907837,-0.035705566,-0.421875,-0.65625,-0.40625
359,-0.12792969,-0.9522095,-0.08111572,-0.296875,0.375,-1.984375
360,-0.19189453,-0.99957275,-0.024963379,2.0625,0.015625,-0.28125
361,-0.095214844,-0.9607544,-0.051818848,3.21875,3.921875,3.1875
362,-0.19262695,-1.0266724,0.01727295,-7.328125,-5.609375,-2.578125
363,-0.31054688,-1.081604,-0.0029907227,-10.859375,-1.25,-9.140625
364,-0.17504883,-0.98883057,0.031677246,-7.734375,1.8125,-5.78125
365,-0.20336914,-1.0108032,0.019470215,-2.296875,-7.828125,-3.84375
366,-0.21801758,-0.9495239,-0.008605957,2.109375,-3.84375,1.40625
367,-0.20263672,-0.973938,0.026794434,3.3125,-2.453125,-1.34375
368,-0.23046875,-0.9717407,-0.0017700195,5.203125,-0.671875,-0.421875
369,-0.17456055,-1.0098267,-0.026672363,7.390625,-1.140625,-0.09375
370,-0.19555664,-0.9780884,-0.0071411133,3.53125,3.546875,-0.671875
371,-0.2109375,-0.9973755,-0.049621582,3.53125,-1.5625,-0.421875
372,-0.1574707,-0.9463501,-0.09625244,5.546875,1.3125,3.890625
373,-0.14770508,-0.97198486,-0.073791504,2.921875,3.578125,4.8125
374,-0.21606445,-0.9873657,-0.039123535,1.6875,-1.75,2.09375
375,-0.16210938,-0.96710205,-0.066711426,-0.09375,0.375,0.59375
376,-0.19189453,-0.97003174,-0.035705566,-2.953125,-1.34375,-0.71875
377,-0.19213867,-1.0022583,-0.018615723,-3.796875,-4.09375,-3.03125
378,-0.16992188,-0.9961548,-0.108947754,-7.5625,3.6875,-1.625
379,-0.10595703,-0.866272,-0.0010375977,-4.046875,1.921875,-0.71875
380,-0.2902832,-1.0650024,0.066345215,0.15625,-1.546875,4.296875
381,-0.20483398,-0.9939575,0.022888184,-2.40625,2.640625,-0.265625
382,-0.22949219,-0.93878174,0.018249512,-0.0625,2.59375,0.875
383,-0.20751953,-1.0476685,0.024108887,0.09375,1.390625,0.109375
384,-0.17211914,-0.9710083,0.007751465,0.078125,-0.53125,0.109375
385,-0.23706055,-1.008606,0.046569824,0.21875,-2.5625,-0.1875
386,-0.119384766,-1.0198364,-0.07867432,3.96875,-2.234375,1.3125
387,-0.21582031,-0.9360962,0.0014038086,3.1875,-3.28125,3.078125
388,-0.12695312,-0.9529419,-0.11236572,1.21875,-1.25,-3.0
389,-0.16137695,-0.9985962,-0.024719238,0.40625,0.40625,0.015625
390,-0.13989258,-0.94537354,-0.06695557,0.953125,0.9375,-0.375
391,-0.20410156,-1.0164185,-0.010314941,-2.453125,0.109375,-1.21875
392,-0.20043945,-0.9680786,-0.057434082,-6.125,5.75,-4.171875
393,-0.13842773,-0.9456177,0.03265381,-9.53125,0.890625,-6.71875
394,-0.33544922,-1.0742798,0.14910889,-3.53125,0.703125,-3.421875
395,-0.18017578,-0.9212036,-0.02520752,-1.109375,3.75,1.890625
396,-0.26513672,-1.0176392,0.05267334,3.125,-1.90625,-0.859375
397,-0.19458008,-1.0249634,-0.0012817383,5.03125,0.96875,-0.078125
398,-0.14550781,-0.9143677,-0.0647583,8.890625,-1.84375,3.734375
399,-0.24804688,-1.0288696,0.04119873,7.0,-4.59375,0.625
400,-0.17333984,-1.0090942,-0.032043457,2.328125,1.984375,-2.34375
401,-0.16503906,-0.96099854,-0.06842041,3.671875,-3.09375,-0.5625
402,-0.18798828,-0.9607544,-0.06768799,4.546875,-1.0625,0.53125
403,-0.16235352,-0.96661377,-0.085754395,2.890625,0.765625,0.28125
404,-0.1887207,-0.9651489,-0.043029785,2.859375,-2.078125,1.59375
405,-0.19824219,-0.9714966,-0.06744385,1.09375,0.21875,1.21875
406,-0.21191406,-0.99298096,-0.059387207,1.46875,-1.421875,1.484375
407,-0.1694336,-0.98443604,-0.04840088,2.609375,-0.21875,3.25
408,-0.203125,-0.9963989,-0.05596924,1.75,-3.84375,2.734375
409,-0.15405273,-0.98394775,-0.059143066,0.46875,-1.953125,1.34375
410,-0.20678711,-0.99420166,-0.09161377,-0.5,-1.453125,1.328125
411,-0.14526367,-0.9451294,-0.10675049,0.1875,-4.1875,2.78125
412,-0.17651367,-1.0628052,-0.023742676,-4.578125,2.9375,-0.265625
413,-0.18188477,-1.0198364,0.018249512,-3.859375,3.078125,-1.421875
414,-0.2043457,-0.9146118,-0.0491333,-5.5625,-6.328125,-1.078125
415,-0.16357422,-1.0281372,-0.014465332,-4.8125,5.140625,-3.28125
416,-0.17114258,-1.0164185,-0.04498291,-3.90625,-2.390625,0.28125
417,-0.15771484,-0.9524536,-0.054748535,1.1875,-0.375,-0.21875
418,-0.19165039,-1.0105591,-0.008117676,-0.171875,-4.921875,-1.203125
419,-0.19799805,-0.9915161,-0.037902832,-1.015625,-4.265625,-5.359375
420,-0.19970703,-0.97491455,-0.034484863,-0.09375,-0.703125,-3.40625
421,-0.13452148,-1.0005493,-0.03765869,1.625,-0.359375,-1.9375
422,-0.16918945,-0.9771118,-0.066467285,-0.015625,-0.515625,-1.578125
423,-0.21508789,-0.9883423,-0.04083252,-0.21875,-0.171875,-1.703125
424,-0.19189453,-0.99420166,-0.04522705,-0.421875,1.125,-2.0
425,-0.19360352,-0.9636841,-0.06695557,0.140625,0.765625,0.03125
426,-0.18530273,-0.97442627,-0.045715332,2.71875,1.484375,1.53125
427,-0.16845703,-0.973938,-0.07183838,1.125,3.5,2.390625
428,-0.18432617,-0.9829712,-0.003967285,0.640625,-2.203125,1.125
429,-0.20141602,-1.0120239,-0.047668457,0.359375,-0.921875,1.203125
430,-0.16577148,-0.89312744,-0.07598877,-2.890625,-1.09375,-1.015625
431,-0.15356445,-1.022522,-0.05718994,0.828125,-1.796875,0.78125
432,-0.23706055,-1.0254517,0.019958496,-0.1875,-2.828125,-0.09375
433,-0.16235352,-0.99542236,-0.05645752,-3.25,-0.046875,-1.0625
434,-0.25683594,-0.9734497,0.0053100586,-5.796875,-0.375,-3.390625
435,-0.17285156,-1.0122681,-0.06060791,-2.28125,4.234375,-2.03125
436,-0.20092773,-0.99713135,-0.02130127,-0.03125,-0.8125,1.796875
437,-0.203125,-0.9663696,-0.042297363,0.140625,1.1875,-0.578125
438,-0.18188477,-0.9920044,-0.02520752,-0.40625,-0.59375,-0.609375
439,-0.14941406,-0.9590454,-0.035705566,-2.0,0.328125,-3.296875
440,-0.19165039,-1.0134888,-0.043762207,-1.09375,-3.140625,-2.53125
441,-0.20678711,-0.973938,-0.045715332,-1.59375,-1.484375,-3.75
442,-0.17871094,-1.0012817,-0.027160645,-1.09375,-2.28125,-0.46875
443,-0.19067383,-0.96099854,-0.019348145,-2.8125,-1.28125,-0.59375
444,-0.22045898,-1.0449829,0.006286621,-1.828125,-2.578125,0.734375
445,-0.21606445,-0.972229,-0.018615723,-5.359375,0.0625,-2.421875
446,-0.25854492,-0.98394775,0.0048217773,-4.703125,-0.125,-5.28125
447,-0.22314453,-1.0249634,0.06341553,-2.546875,-1.109375,-3.171875
448,-0.21582031,-1.0234985,0.027770996,-2.703125,0.078125,-3.25
449,-0.234375,-0.944397,-0.04473877,0.328125,-3.484375,-0.609375
450,-0.22021484,-0.9529419,0.012634277,1.484375,0.8125,-0.171875
451,-0.22949219,-0.98638916,0.010681152,1.296875,0.453125,-0.515625
452,-0.19897461,-0.989563,-0.013977051,2.046875,-1.015625,-1.640625
453,-0.2019043,-0.96954346,-0.034973145,1.53125,-2.28125,-1.125
454,-0.22949219,-0.9949341,-0.009338379,1.59375,-1.921875,-1.328125
455,-0.19799805,-0.97076416,-0.04156494,2.09375,1.15625,1.21875
456,-0.20483398,-0.9614868,-0.027648926,1.75,1.0,1.421875
457,-0.23168945,-0.9907837,-0.010314941,4.765625,1.21875,5.9375
458,-0.1887207,-0.9768677,-0.058898926,3.609375,1.484375,3.796875
459,-0.18261719,-0.96954346,-0.034729004,2.46875,-0.03125,2.90625
460,-0.19970703,-0.927063,-0.0115356445,-5.640625,1.328125,-4.046875
461,-0.27807617,-1.05719,0.05316162,-0.40625,-1.546875,-1.53125
462,-0.14038086,-0.93878174,-0.057678223,-3.203125,4.328125,-3.8125
463,-0.23828125,-0.9981079,-0.020812988,-0.40625,-2.234375,0.125
464,-0.24853516,-1.0217896,0.01727295,-1.09375,0.859375,-1.609375
465,-0.2121582,-0.9793091,-0.020812988,-1.6875,0.640625,-0.96875
466,-0.24145508,-1.0090942,0.0138549805,-1.296875,-0.03125,-1.03125
467,-0.22241211,-0.9990845,-0.004211426,-0.296875,1.140625,-0.140625
468,-0.19189453,-0.9595337,-0.035705566,1.75,-0.984375,0.390625
469,-0.2121582,-1.0005493,0.009216309,0.625,-1.3125,-0.25
470,-0.21069336,-0.9771118,-0.008361816,-0.875,0.40625,-0.65625
471,-0.22314453,-0.9927368,-0.014465332,0.390625,0.015625,-0.4375
472,-0.20239258,-0.9763794,-0.026428223,2.046875,-1.890625,-1.421875
473,-0.19995117,-0.9817505,-0.019836426,0.71875,-0.046875,-0.265625
474,-0.22045898,-0.97735596,-0.037902832,-0.5625,-1.65625,-0.625
475,-0.23120117,-0.9793091,0.00091552734,0.0,-0.03125,-0.734375
476,-0.22363281,-0.9734497,-0.040100098,1.0,-1.0625,0.203125
477,-0.19604492,-0.97247314,-0.041809082,2.609375,0.109375,1.859375
478,-0.24194336,-0.97003174,-0.050354004,3.234375,1.421875,3.328125
479,-0.14941406,-0.958313,-0.07550049,7.8125,4.5625,6.734375
480,-0.23120117,-1.0169067,-0.030334473,3.171875,-0.953125,3.703125
481,-0.2253418,-0.9507446,-0.08453369,4.21875,0.234375,3.28125
482,-0.1159668,-0.925354,-0.04547119,-2.734375,1.78125,-0.71875
483,-0.23461914,-1.0527954,-0.026916504,6.171875,-1.828125,4.75
484,-0.17749023,-0.9837036,-0.016174316,-2.53125,-0.125,-1.375
485,-0.22973633,-0.9751587,-0.121398926,-0.25,-1.765625,-1.125
486,-0.20019531,-1.0042114,0.05682373,-4.109375,6.765625,-4.765625
487,-0.1665039,-1.003479,-0.077941895,-5.6875,1.796875,-2.140625
488,-0.1899414,-0.9690552,-0.0335083,-4.515625,4.1875,-1.421875
489,-0.20703125,-1.0049438,-0.008117676,-0.265625,-0.09375,-0.78125
490,-0.20410156,-0.96710205,-0.031555176,0.59375,-0.328125,-0.484375
491,-0.18676758,-0.9771118,-0.043518066,2.15625,-1.296875,-0.75
492,-0.18725586,-0.9751587,-0.054260254,3.015625,-0.203125,1.1875
493,-0.1628418,-0.9624634,-0.14434814,5.234375,1.265625,3.390625
494,-0.15527344,-0.9180298,-0.045959473,-2.15625,0.484375,-0.46875
495,-0.26367188,-1.0913696,0.06854248,-2.78125,-1.40625,-0.28125
496,-0.12524414,-1.0186157,-0.08843994,-5.953125,3.0625,-1.59375
497,-0.2758789,-0.97613525,0.058776855,-7.703125,-2.9375,-5.875
498,-0.23413086,-1.0039673,-0.026672363,-4.671875,-0.953125,-4.609375
499,-0.19482422,-0.9717407,-0.015197754,-4.65625,2.125,-0.953125
500,-0.20336914,-0.972229,0.007751465,0.78125,-4.65625,1.171875
501,-0.23730469,-1.0061646,-0.002746582,2.609375,-3.90625,-0.75
502,-0.22216797,-0.96343994,-0.022033691,1.875,-1.0,-2.140625
503,-0.19116211,-1.0037231,-0.013000488,3.0,1.15625,-1.59375
504,-0.2241211,-0.98272705,-0.0491333,1.390625,-1.96875,-1.59375
505,-0.21972656,-0.96173096,-0.062805176,3.390625,0.0625,-0.09375
506,-0.19018555,-0.95440674,-0.06427002,4.28125,1.71875,2.546875
507,-0.19091797,-0.96539307,-0.06549072,2.5625,1.890625,2.53125
508,-0.20996094,-0.975647,-0.07330322,6.5,1.140625,5.046875
509,-0.19360352,-0.9776001,-0.04864502,6.1875,3.296875,5.921875
510,-0.18920898,-0.98638916,-0.1338501,5.53125,-1.421875,5.75
511,-0.11767578,-0.88165283,-0.015686035,-0.984375,-1.90625,2.296875
512,-0.24658203,-1.0838013,0.030456543,4.0,-3.046875,2.03125
513,-0.17675781,-0.99224854,-0.05596924,-3.5,1.140625,2.28125
514,-0.24487305,-0.99298096,0.049743652,-1.1875,1.953125,0.421875
515,-0.087402344,-0.9890747,-0.11553955,-5.25,2.0,-0.875
516,-0.22094727,-0.9456177,0.020446777,-2.578125,4.5625,-3.40625
517,-0.14379883,-1.010315,-0.035461426,-3.71875,0.828125,-1.578125
518,-0.23217773,-0.9968872,0.0033569336,-7.03125,2.046875,-4.03125
519,-0.2475586,-0.9871216,-0.009094238,-6.03125,-0.015625,-7.921875
520,-0.15454102,-0.9915161,-0.04473877,2.921875,1.8125,0.4375
521,-0.17407227,-0.9841919,-0.06719971,6.84375,-3.0,2.953125
522,-0.21704102,-0.923645,-0.059387207,10.625,3.875,8.15625
523,-0.118896484,-1.0391235,-0.057922363,2.640625,-2.46875,1.953125
524,-0.14770508,-0.9758911,-0.016662598,-2.390625,9.015625,0.90625
525,-0.12866211,-0.9590454,0.0038452148,-4.34375,-5.25,-2.25
526,-0.27441406,-1.0784302,0.0014038086,-4.375,-1.125,-2.953125
527,-0.19238281,-0.9590454,0.022644043,-9.390625,3.171875,-4.0625
528,-0.17236328,-1.020813,-0.032287598,-7.0,-2.6875,-3.765625
529,-0.1694336,-0.9092407,-0.03741455,-3.484375,-1.203125,-3.140625
530,-0.21728516,-0.9956665,-0.024719238,2.125,-5.3125,-2.5625
531,-0.20385742,-1.0271606,-0.015686035,1.390625,-1.8125,-2.0
532,-0.19604492,-0.97540283,-0.016662598,-2.15625,-0.40625,-2.75
533,-0.2055664,-0.98931885,-0.0095825195,-0.578125,0.03125,-2.234375
534,-0.1965332,-0.97369385,-0.031311035,-0.59375,-1.578125,-2.125
535,-0.21020508,-0.9795532,-0.035217285,1.15625,-1.171875,-1.078125
536,-0.19799805,-0.9678345,-0.043518066,0.9375,-0.015625,0.625
537,-0.20263672,-0.9656372,-0.04547119,-0.03125,1.171875,0.734375
538,-0.19384766,-0.9873657,-0.023986816,2.171875,0.125,1.015625
539,-0.20678711,-0.9924927,-0.020812988,2.4375,-0.28125,2.265625
540,-0.18774414,-0.9805298,-0.051818848,2.109375,0.90625,2.828125
541,-0.18432617,-0.9602661,-0.05645752,2.28125,-1.71875,4.828125
542,-0.17871094,-0.9837036,-0.1026001,7.109375,1.8125,4.890625
543,-0.12963867,-1.0540161,0.06951904,-0.5,-1.0,3.34375
544,-0.27441406,-0.9312134,0.03314209,-7.609375,-2.265625,-3.8125
545,-0.16503906,-0.9937134,-0.02520752,-2.875,-1.296875,-3.0
546,-0.21801758,-1.0254517,0.007507324,-1.578125,-1.625,-2.0
547,-0.16210938,-0.9717407,-0.07574463,0.328125,-0.484375,-0.609375
548,-0.18896484,-0.9793091,-0.02520752,1.359375,-2.3125,0.71875
549,-0.21801758,-0.99346924,-0.027648926,1.71875,-0.828125,0.328125
550,-0.1784668,-0.95025635,-0.12384033,6.03125,2.375,3.0
551,-0.14257812,-1.0095825,-0.00592041,2.296875,0.34375,0.703125
552,-0.23486328,-0.99420166,-0.047180176,0.625,0.203125,2.46875
553,-0.11743164,-0.9651489,-0.024963379,-6.890625,2.078125,-3.4375
554,-0.32104492,-1.0986938,0.047302246,-6.765625,1.671875,-4.046875
555,-0.125,-0.93096924,-0.061584473,-5.34375,6.078125,-3.203125
556,-0.22192383,-1.0095825,0.03753662,-3.09375,-1.671875,-2.28125
557,-0.1796875,-1.0130005,-0.031799316,-2.6875,0.546875,-1.78125
558,-0.17626953,-0.96221924,-0.026428223,1.765625,0.1875,-0.40625
559,-0.2163086,-0.987854,-0.006164551,2.59375,-3.03125,-1.890625
560,-0.18896484,-0.9849243,-0.0095825195,0.671875,2.90625,-3.1875
561,-0.18334961,-1.0083618,-0.043518066,1.796875,-0.921875,-2.984375
562,-0.21069336,-0.9949341,-0.030822754,1.296875,-1.109375,-0.859375
563,-0.1928711,-0.9553833,-0.07281494,1.484375,2.171875,0.625
564,-0.18383789,-0.9487915,-0.06036377,1.765625,1.046875,2.828125
565,-0.19848633,-0.97613525,-0.0713501,2.234375,1.28125,2.734375
566,-0.20043945,-0.99420166,-0.027648926,2.78125,0.609375,2.765625
567,-0.15551758,-0.95806885,-0.022277832,3.765625,-0.359375,3.09375
568,-0.21313477,-1.0022583,-0.026184082,0.53125,-2.03125,2.0625
569,-0.20605469,-1.0117798,-0.030822754,1.40625,-0.609375,0.46875
570,-0.17089844,-0.94903564,-0.055480957,2.921875,3.015625,2.453125
571,-0.15209961,-0.97442627,-0.0713501,0.484375,-0.21875,3.09375
572,-0.16625977,-0.9385376,-0.035461426,-2.53125,3.671875,1.140625
573,-0.15039062,-0.9649048,-0.04156494,6.84375,2.90625,5.109375
574,-0.20776367,-0.9854126,-0.018615723,-2.234375,0.828125,-1.765625
575,-0.15014648,-1.0254517,-0.019348145,-3.296875,2.96875,-3.640625
576,-0.18603516,-0.96295166,-0.008117676,-0.296875,3.234375,-0.421875
577,-0.21044922,-1.0376587,-0.034729004,-0.03125,2.375,-2.046875
578,-0.08984375,-0.95440674,-0.051574707,-0.140625,4.296875,1.390625
579,-0.2626953,-1.0562134,0.018493652,-0.625,-0.84375,-0.3125
580,-0.140625,-0.9314575,-0.077697754,-2.390625,4.0,-0.8125
581,-0.18554688,-1.0117798,-0.0068969727,-1.546875,-5.03125,-3.484375
582,-0.14257812,-0.93951416,-0.109680176,0.015625,3.859375,-0.328125
583,-0.17871094,-0.99786377,0.00091552734,1.1875,-5.59375,-0.53125
584,-0.16235352,-0.98101807,-0.10333252,-2.4375,5.140625,-0.53125
585,-0.15991211,-0.96343994,-0.047180176,1.15625,0.6875,0.078125
586,-0.20898438,-0.9927368,-0.008117676,-2.625,2.421875,-2.03125
587,-0.16088867,-0.9871216,-0.027893066,-4.359375,1.671875,-1.75
588,-0.25195312,-1.024231,0.046569824,-4.0625,0.359375,-2.453125
589,-0.1887207,-0.97369385,0.011413574,-5.140625,4.765625,-4.890625
590,-0.2331543,-1.0315552,0.058776855,-3.828125,-1.625,-3.171875
591,-0.22338867,-0.9312134,-0.036193848,1.421875,0.265625,0.46875
592,-0.16113281,-0.9729614,-0.0037231445,3.796875,1.296875,0.203125
593,-0.17333984,-1.0303345,0.023376465,4.4375,-4.828125,-0.671875
594,-0.21704102,-0.96588135,-0.057434082,2.6875,-2.34375,-1.375
595,-0.2084961,-0.96173096,-0.043029785,3.421875,-3.65625,-2.734375
596,-0.17944336,-1.0149536,-0.024719238,0.5625,-0.34375,-2.328125
597,-0.20825195,-0.9727173,-0.057678223,-0.890625,-1.375,-3.75
598,-0.18725586,-0.9710083,-0.05230713,-3.453125,-2.59375,-2.546875
599,-0.2475586,-0.9841919,-0.04815674,0.671875,-3.296875,-1.234375
600,-0.1875,-0.9505005,-0.07086182,1.3125,-1.0625,0.484375
601,-0.21728516,-0.960022,-0.0569458,2.6875,-2.140625,0.640625
602,-0.19384766,-1.015686,-0.061340332,6.484375,-2.265625,3.78125
603,-0.21435547,-0.9729614,-0.02154541,3.96875,-3.75,2.703125
604,-0.23535156,-0.96588135,-0.07330322,1.21875,-2.546875,0.203125
605,-0.15332031,-0.9841919,-0.058654785,2.015625,-1.59375,2.5625
606,-0.21679688,-0.9795532,-0.058166504,-0.09375,-1.078125,1.71875
607,-0.16064453,-0.98150635,-0.069885254,1.953125,-0.359375,1.25
608,-0.19018555,-0.9717407,-0.08135986,-0.671875,3.65625,5.515625
609,-0.15795898,-1.0234985,-0.028869629,-1.078125,2.203125,0.0625
610,-0.2614746,-1.0159302,0.04949951,-2.65625,0.125,-0.109375
611,-0.13842773,-0.9109497,-0.09674072,-4.09375,0.859375,-0.96875
612,-0.16552734,-1.00177,-0.01763916,-0.75,-2.984375,-0.640625
613,-0.19946289,-1.0095825,-0.047180176,-0.046875,-2.5625,-0.21875
614,-0.16357422,-0.9495239,-0.06695557,1.421875,-2.96875,-2.109375
615,-0.19482422,-1.0032349,-0.022521973,1.5,-2.921875,0.171875
616,-0.17700195,-0.97540283,-0.093811035,0.984375,-0.25,-0.078125
617,-0.16381836,-1.013977,-0.059143066,2.640625,-0.84375,1.53125
618,-0.18823242,-0.94903564,-0.039367676,0.484375,0.1875,-0.125
619,-0.13012695,-0.9817505,-0.14337158,1.9375,0.59375,1.3125
620,-0.23242188,-0.95758057,0.02508545,-8.578125,2.59375,-9.21875
621,-0.2199707,-1.0303345,-0.016662598,-5.53125,1.1875,-1.046875
622,-0.1928711,-1.0020142,-0.002746582,-5.859375,0.34375,-2.21875
623,-0.15527344,-0.97247314,-0.05206299,-2.484375,-2.390625,-1.28125
624,-0.19091797,-0.987854,-0.0335083,-1.453125,-2.3125,-1.03125
625,-0.22973633,-0.95391846,-0.03375244,-0.78125,-0.59375,-3.328125
626,-0.1928711,-1.003479,-0.011779785,-0.078125,0.40625,-4.625
627,-0.1928711,-1.003479,-0.04107666,0.046875,1.328125,-2.09375
628,-0.2211914,-0.9758911,-0.03375244,1.140625,-1.1875,-2.0
629,-0.20825195,-0.9939575,-0.035217285,1.890625,0.484375,-1.375
630,-0.18920898,-0.97198486,-0.077697754,3.484375,-0.78125,0.40625
631,-0.19604492,-0.9614868,-0.08111572,3.796875,0.34375,3.421875
632,-0.21508789,-0.958313,-0.10333252,4.15625,0.4375,2.375
633,-0.21313477,-1.00177,-0.05230713,4.46875,-0.03125,2.75
634,-0.19213867,-0.94732666,-0.05987549,1.328125,-1.171875,0.78125
635,-0.1694336,-0.95880127,-0.06939697,-0.0625,-2.59375,0.765625
636,-0.20654297,-0.9902954,-0.054016113,-0.671875,-1.4375,1.375
637,-0.15991211,-0.96539307,-0.08477783,-0.53125,0.90625,1.0
638,-0.18652344,-0.9417114,-0.009094238,-2.703125,-0.421875,1.78125
639,-0.23168945,-1.0979614,0.024841309,1.140625,-1.234375,2.84375
640,-0.19824219,-0.98150635,-0.10040283,-4.0625,2.140625,1.859375
641,-0.2355957,-0.93585205,0.01776123,-4.453125,2.140625,-4.859375
642,-0.13964844,-1.0317993,-0.0713501,-2.890625,1.703125,0.328125
643,-0.20996094,-0.9956665,-0.035217285,-1.65625,0.015625,-0.09375
644,-0.18603516,-1.0029907,-0.010070801,-2.640625,-1.75,-3.75
645,-0.16992188,-0.9927368,-0.04864502,-2.34375,-0.171875,-1.8125
646,-0.20361328,-0.9517212,-0.0134887695,-0.796875,-2.453125,-2.328125
647,-0.19335938,-0.9949341,-0.030334473,0.03125,-0.875,-1.453125
648,-0.18408203,-1.0015259,-0.07525635,-0.0625,-1.890625,-0.96875
649,-0.20263672,-0.94976807,-0.032287598,1.140625,-1.4375,0.65625
650,-0.19702148,-0.9741821,-0.053771973,-0.296875,0.296875,0.140625
651,-0.18188477,-0.975647,-0.0491333,0.015625,-1.609375,-0.1875
652,-0.19726562,-0.97979736,-0.050842285,0.0625,-0.125,0.671875
653,-0.19311523,-0.97442627,-0.04034424,1.828125,-0.953125,1.09375
654,-0.1743164,-0.9849243,-0.050842285,0.921875,-0.828125,1.1875
655,-0.19824219,-0.9902954,-0.028137207,-0.25,-0.75,0.65625
656,-0.15283203,-0.9158325,-0.066711426,-2.4375,1.328125,-1.28125
657,-0.2043457,-1.0425415,0.008728027,-0.453125,-2.140625,-3.328125
658,-0.19946289,-0.9976196,-0.026916504,-4.65625,1.1875,-2.359375
659,-0.27270508,-0.9961548,0.011657715,-7.21875,-0.140625,-3.328125
660,-0.2446289,-1.0210571,0.014587402,-4.1875,4.0,-2.578125
661,-0.20092773,-1.0481567,0.022644043,-0.21875,0.421875,1.046875
662,-0.21118164,-0.9404907,-0.022521973,1.28125,0.375,1.53125
663,-0.19140625,-0.9871216,0.0040893555,7.703125,-3.421875,1.828125
664,-0.20678711,-0.9714966,-0.032043457,5.921875,-1.84375,1.578125
665,-0.18164062,-0.97442627,-0.07110596,5.953125,-1.75,0.328125
666,-0.15405273,-0.97076416,-0.11773682,4.0,1.53125,1.59375
667,-0.1586914,-0.92388916,-0.09527588,2.609375,5.0625,4.15625
668,-0.19042969,-1.0376587,-0.030090332,2.71875,-2.328125,2.390625
669,-0.1940918,-0.96221924,-0.07940674,-0.890625,0.203125,2.140625
670,-0.14794922,-0.927063,-0.06402588,1.03125,0.234375,2.421875
671,-0.2133789,-1.015686,-0.026428223,-7.359375,-1.9375,-0.1875
672,-0.12988281,-1.0227661,-0.08306885,-6.265625,1.09375,-5.625
673,-0.31030273,-1.0505981,0.058288574,-7.0625,-2.203125,-2.03125
674,-0.12646484,-0.9534302,-0.05279541,-5.78125,4.140625,-4.71875
675,-0.21020508,-1.0032349,-0.0010375977,-2.0625,-2.40625,-1.734375
676,-0.20751953,-1.0098267,0.012390137,-1.09375,1.3125,-1.421875
677,-0.21362305,-1.0022583,0.010681152,0.578125,-0.125,-1.171875
678,-0.21020508,-0.9993286,-0.0010375977,3.15625,-1.9375,-2.0
679,-0.19873047,-0.9710083,-0.034729004,2.4375,1.171875,-2.609375
680,-0.19311523,-0.9710083,-0.007873535,2.71875,-0.8125,-1.953125
681,-0.18945312,-0.99005127,-0.061584473,3.421875,-0.203125,-0.171875
682,-0.18041992,-0.9668579,-0.05621338,1.46875,0.546875,-0.65625
683,-0.18359375,-0.9758911,-0.074035645,1.046875,-2.109375,0.3125
684,-0.14697266,-0.9468384,-0.06915283,0.109375,-0.125,1.3125
685,-0.20776367,-0.97735596,-0.039855957,-0.453125,-2.25,1.0
686,-0.20751953,-1.0027466,-0.029846191,-0.84375,-1.71875,0.53125
687,-0.20605469,-0.97906494,-0.028625488,-1.0625,-2.3125,0.875
688,-0.18408203,-0.97003174,-0.07354736,-0.6875,-0.515625,1.203125
689,-0.18652344,-0.9558716,-0.019348145,-3.4375,-1.5625,-2.53125
690,-0.24316406,-1.0252075,-0.0010375977,-2.65625,-0.125,-0.0625
691,-0.20703125,-0.99176025,-0.019348145,-3.953125,3.046875,-1.25
692,-0.19360352,-1.0127563,-0.0010375977,-4.53125,2.703125,-2.171875
693,-0.2055664,-1.0142212,0.0045776367,-2.578125,2.0,-0.078125
694,-0.22070312,-0.9949341,0.010192871,-1.328125,3.625,0.109375
695,-0.16796875,-0.9558716,-0.010559082,1.609375,-1.265625,0.21875
696,-0.21166992,-0.99102783,0.0026245117,-0.609375,-1.8125,-0.71875
697,-0.18164062,-0.97735596,-0.03302002,-3.203125,-2.578125,-2.5
698,-0.19506836,-0.9819946,-0.021057129,1.171875,-4.0,-2.734375
699,-0.1574707,-0.98760986,-0.050842285,4.40625,-2.609375,0.5625
700,-0.18701172,-0.9553833,-0.055725098,2.203125,-2.921875,1.625
701,-0.2006836,-0.98516846,-0.024963379,2.96875,-0.359375,4.078125
702,-0.18701172,-1.0025024,-0.022766113,0.609375,-2.546875,1.421875
703,-0.16308594,-0.9631958,-0.03643799,0.59375,-1.875,1.125
704,-0.23291016,-1.0007935,0.011413574,-1.03125,-4.359375,-1.75
705,-0.1928711,-0.9944458,-0.014221191,-1.8125,-3.109375,-2.328125
706,-0.1574707,-0.94976807,-0.051330566,-4.734375,1.140625,-3.734375
707,-0.28442383,-1.0513306,0.04559326,-4.421875,0.90625,-0.71875
708,-0.14794922,-0.93951416,-0.058410645,-3.328125,7.765625,0.109375
709,-0.22167969,-1.0037231,0.0048217773,-0.953125,1.03125,-0.21875
710,-0.18798828,-0.9937134,0.0065307617,-1.21875,5.21875,-1.0
711,-0.21704102,-0.98394775,0.009460449,-0.453125,0.75,-0.953125
712,-0.21582031,-0.99346924,0.0053100586,-0.4375,3.4375,-0.53125
713,-0.15185547,-0.97320557,-0.051086426,2.140625,0.265625,1.96875
714,-0.1862793,-1.0042114,0.0065307617,0.984375,-2.265625,0.15625
715,-0.1953125,-0.9685669,-0.06109619,4.0,5.21875,4.40625
716,-0.13085938,-0.98443604,0.031433105,3.703125,-6.546875,2.59375
717,-0.29638672,-1.052063,0.026794434,-6.3125,2.859375,-4.453125
718,-0.15112305,-0.95880127,-0.023498535,-2.515625,3.140625,-0.53125
719,-0.24560547,-1.0161743,0.03704834,-0.765625,-5.453125,-1.515625
720,-0.2121582,-1.0388794,0.031188965,-2.078125,-0.71875,-3.8125
721,-0.17236328,-0.954895,-0.034729004,-1.671875,-3.15625,-0.96875
722,-0.22314453,-0.97979736,0.022155762,-1.046875,-2.828125,-2.0625
723,-0.1665039,-0.99102783,0.0211792,-1.78125,-0.40625,-2.796875
724,-0.26220703,-1.0022583,-0.023010254,4.328125,-3.875,-0.6875
725,-0.17211914,-0.9614868,-0.062805176,3.375,3.03125,-0.59375
726,-0.19091797,-0.97857666,-0.038879395,5.78125,-1.5,2.359375
727,-0.1784668,-0.9351196,-0.04473877,2.125,2.203125,3.15625
728,-0.19677734,-0.9800415,-0.050842285,3.96875,0.390625,4.1875
729,-0.15673828,-1.0164185,-0.03643799,1.859375,0.3125,3.609375
730,-0.3076172,-0.9439087,0.07635498,-5.40625,-6.734375,-2.609375
731,-0.1850586,-1.0449829,-0.049865723,-5.703125,-0.859375,-4.65625
732,-0.203125,-1.0288696,0.0524292,-3.234375,3.265625,-0.71875
733,-0.19580078,-0.9348755,-0.04522705,-1.265625,0.265625,0.75
734,-0.20776367,-1.0276489,0.018493652,-0.78125,-1.78125,-1.078125
735,-0.22973633,-1.0125122,0.034606934,-1.375,1.0625,-0.921875
736,-0.2084961,-1.0059204,-0.006652832,-0.609375,2.34375,-1.734375
737,-0.19335938,-0.98516846,-0.009094238,0.625,-0.28125,-1.109375
738,-0.16357422,-0.9434204,-0.05255127,3.875,-0.59375,1.125
739,-0.15014648,-0.9751587,-0.044006348,4.34375,-2.328125,2.953125
740,-0.22363281,-0.9998169,-0.0154418945,0.671875,0.46875,2.1875
741,-0.16601562,-0.9717407,-0.0010375977,0.3125,-0.859375,-0.203125
742,-0.2211914,-0.9846802,-0.032043457,2.4375,-4.8125,2.25
743,-0.18969727,-0.9990845,-0.06964111,-4.046875,4.984375,-1.25
744,-0.20117188,-1.0054321,0.036071777,-1.125,0.0625,0.59375
745,-0.21606445,-0.9751587,0.00579834,-2.75,-0.484375,-2.34375
746,-0.19726562,-1.0066528,-0.002746582,-4.421875,1.234375,-1.140625
747,-0.24536133,-1.0217896,0.054870605,-3.125,-2.421875,-2.015625
748,-0.15209961,-0.9795532,-0.02545166,-1.40625,1.265625,-1.5
749,-0.20751953,-0.97320557,0.012390137,2.375,-5.328125,0.328125
750,-0.22290039,-1.0015259,0.027282715,2.046875,-1.84375,-0.34375
751,-0.23364258,-0.9819946,-0.019348145,9.15625,-1.40625,2.25
752,-0.087890625,-0.9817505,-0.035705566,8.859375,3.203125,2.421875
753,-0.18041992,-0.9324341,-0.09161377,7.84375,-3.75,7.3125
754,-0.1628418,-1.0108032,-0.059387207,4.125,0.5,1.5625
