sample_no,accel_x,accel_y,accel_z,gyro_x,gyro_y,gyro_z
0,-0.62939453,-0.05621338,0.79241943,-1.0625,-0.921875,-0.046875
1,-0.6208496,-0.05230713,0.7753296,-0.796875,-1.03125,-0.40625
2,-0.6220703,-0.051086426,0.7772827,0.65625,-2.859375,-0.25
3,-0.61694336,-0.054992676,0.77948,1.109375,-2.625,0.703125
4,-0.64868164,-0.038635254,0.763855,6.390625,-5.8125,1.8125
5,-0.6508789,-0.082336426,0.7645874,11.78125,-9.1875,2.859375
6,-0.65234375,-0.11236572,0.7316284,8.9375,-8.46875,1.828125
7,-0.6862793,-0.09185791,0.74383545,9.015625,-6.421875,-1.890625
8,-0.66918945,-0.06744385,0.77264404,1.46875,-7.09375,-10.171875
9,-0.63427734,-0.085998535,0.77923584,-0.609375,-4.171875,-9.6875
10,-0.67529297,-0.113342285,0.7548218,-0.25,-2.046875,-3.171875
11,-0.6713867,-0.09063721,0.73431396,-1.359375,1.5625,3.375
12,-0.7141113,-0.07159424,0.75823975,0.8125,0.875,1.90625
13,-0.6879883,-0.15167236,0.7670288,-0.890625,4.203125,0.28125
14,-0.70214844,-0.17559814,0.7536011,4.203125,0.328125,4.03125
15,-0.7102051,-0.1116333,0.7399292,6.5625,-2.359375,1.03125
16,-0.7092285,-0.062072754,0.7868042,2.203125,-2.578125,-9.78125
17,-0.6279297,-0.086242676,0.79364014,-2.34375,-1.109375,-5.578125
18,-0.67163086,-0.066711426,0.7645874,-2.09375,0.859375,1.578125
19,-0.67871094,-0.08404541,0.7785034,-1.796875,1.109375,3.484375
20,-0.66259766,-0.10992432,0.74627686,-1.0625,1.78125,4.15625
21,-0.64404297,-0.1482544,0.7345581,3.8125,-0.25,5.28125
22,-0.68066406,-0.13018799,0.7304077,3.78125,-2.078125,2.328125
23,-0.71118164,-0.15045166,0.75286865,3.609375,-6.453125,-4.859375
24,-0.6491699,-0.11016846,0.76483154,-2.640625,0.65625,-8.265625
25,-0.65844727,-0.08843994,0.7728882,-3.1875,1.953125,-0.875
26,-0.7001953,-0.047912598,0.78045654,-4.125,2.59375,3.5
27,-0.6660156,-0.13482666,0.7880249,-8.40625,7.03125,4.953125
28,-0.6677246,-0.14996338,0.74432373,-10.75,6.9375,6.3125
29,-0.6899414,-0.12677002,0.7369995,-8.734375,6.859375,3.625
30,-0.6689453,-0.10601807,0.8241577,-7.015625,6.046875,0.90625
31,-0.6359863,-0.105773926,0.7897339,-7.859375,4.796875,0.453125
32,-0.6542969,-0.039611816,0.8222046,-5.015625,1.734375,-1.65625
33,-0.6645508,-0.04034424,0.7938843,-4.859375,2.3125,-1.4375
34,-0.625,-0.045959473,0.7789917,-3.171875,1.609375,-0.734375
35,-0.6069336,-0.019104004,0.7731323,-1.09375,-0.78125,-0.25
36,-0.61450195,-0.04937744,0.776062,0.921875,-3.390625,-0.09375
37,-0.62475586,-0.07476807,0.7838745,2.21875,-5.171875,0.21875
38,-0.6225586,-0.06817627,0.79193115,2.109375,-3.796875,-0.546875
39,-0.6557617,-0.058654785,0.78045654,6.90625,-8.8125,0.671875
40,-0.6616211,-0.07110596,0.7772827,11.28125,-9.46875,2.171875
41,-0.66796875,-0.097961426,0.7579956,10.875,-5.03125,2.09375
42,-0.6467285,-0.050598145,0.71258545,0.578125,-2.484375,-3.9375
43,-0.6533203,-0.050842285,0.7628784,1.03125,-1.25,-5.78125
44,-0.6804199,-0.10430908,0.7538452,2.25,-1.234375,-4.578125
45,-0.6633301,-0.0960083,0.7782593,1.0625,1.078125,-2.671875
46,-0.67944336,-0.105041504,0.78411865,0.0,0.75,-2.921875
47,-0.6586914,-0.097473145,0.7694702,-0.234375,1.546875,-0.34375
48,-0.67700195,-0.13555908,0.793396,0.34375,-0.578125,-0.0625
49,-0.6875,-0.1272583,0.7836304,4.703125,-2.03125,3.34375
50,-0.704834,-0.07574463,0.74017334,3.609375,-2.984375,0.390625
51,-0.63720703,-0.07232666,0.7814331,0.03125,-0.65625,-7.171875
52,-0.6386719,-0.082092285,0.7731323,-1.09375,-2.265625,-2.6875
53,-0.70336914,-0.06719971,0.7645874,-1.40625,-0.8125,0.640625
54,-0.6748047,-0.08648682,0.76727295,-1.8125,1.21875,2.484375
55,-0.6608887,-0.093322754,0.7550659,-0.171875,0.75,3.765625
56,-0.68603516,-0.12945557,0.76556396,4.46875,-1.609375,3.28125
57,-0.7285156,-0.11431885,0.73236084,4.671875,-3.25,-0.359375
58,-0.6586914,-0.1038208,0.72821045,1.953125,0.25,4.609375
59,-0.7050781,-0.13116455,0.73846436,3.265625,-2.75,2.4375
60,-0.6828613,-0.11993408,0.7399292,2.765625,-5.3125,-2.15625
61,-0.6269531,-0.07940674,0.77020264,-2.265625,1.96875,-3.46875
62,-0.72875977,-0.09039307,0.7706909,-0.234375,-0.875,3.28125
63,-0.7290039,-0.12384033,0.7821655,-2.59375,1.640625,0.640625
64,-0.6711426,-0.13653564,0.76678467,-6.515625,4.171875,1.234375
65,-0.6760254,-0.14459229,0.7682495,-8.78125,6.625,3.21875
66,-0.6188965,-0.12628174,0.7411499,-8.984375,4.890625,2.59375
67,-0.6982422,-0.105041504,0.77752686,-10.171875,5.140625,1.359375
68,-0.71435547,-0.09820557,0.83148193,-8.453125,7.984375,0.6875
69,-0.62475586,-0.065979004,0.78533936,-7.265625,8.09375,0.703125
70,-0.59399414,-0.034729004,0.8004761,-3.859375,3.453125,0.84375
71,-0.6520996,-0.058654785,0.7728882,-3.484375,-0.375,1.203125
72,-0.62939453,-0.06915283,0.8016968,-2.859375,1.359375,0.875
73,-0.62158203,-0.07550049,0.77386475,-2.140625,-0.296875,-0.375
74,-0.61376953,-0.06793213,0.7633667,1.421875,-1.90625,0.4375
75,-0.6320801,-0.07183838,0.7736206,2.359375,-2.890625,0.40625
76,-0.6296387,-0.06524658,0.777771,1.671875,-3.890625,-0.296875
77,-0.6447754,-0.09161377,0.7885132,0.296875,-2.234375,-0.90625
78,-0.6503906,-0.07330322,0.77557373,0.078125,-2.734375,-1.59375
79,-0.66259766,-0.033996582,0.7819214,3.96875,-4.3125,-2.078125
80,-0.6843262,-0.047180176,0.7584839,9.453125,-7.125,-1.234375
81,-0.68188477,-0.07086182,0.77459717,15.703125,-7.15625,-2.015625
82,-0.7260742,-0.101623535,0.78582764,4.109375,-6.25,-7.34375
83,-0.5678711,-0.11627197,0.7518921,-1.40625,-2.15625,-6.703125
84,-0.68725586,-0.10015869,0.7662964,0.5,-1.8125,-0.546875
85,-0.6958008,-0.081848145,0.7555542,1.671875,0.6875,1.03125
86,-0.68115234,-0.08648682,0.7694702,1.03125,0.84375,0.859375
87,-0.6657715,-0.12213135,0.7633667,1.5625,1.359375,2.65625
88,-0.6779785,-0.11480713,0.7550659,1.265625,0.453125,2.578125
89,-0.6713867,-0.113586426,0.7614136,0.53125,0.921875,0.515625
90,-0.6748047,-0.08477783,0.7728882,2.90625,-1.515625,1.46875
91,-0.7241211,-0.10064697,0.7345581,3.078125,-2.65625,0.109375
92,-0.69677734,-0.09307861,0.7728882,1.171875,-6.109375,-4.65625
93,-0.6074219,-0.12554932,0.729187,-1.1875,-0.296875,-3.1875
94,-0.67700195,-0.090148926,0.75823975,0.359375,-0.890625,0.921875
95,-0.6816406,-0.11773682,0.76190186,-0.265625,0.84375,1.109375
96,-0.67285156,-0.13458252,0.76727295,-1.125,1.90625,2.0
97,-0.6743164,-0.113342285,0.75457764,-0.671875,1.859375,3.015625
98,-0.70166016,-0.0947876,0.7609253,3.171875,-1.171875,1.40625
99,-0.673584,-0.11114502,0.75531006,2.78125,-2.40625,-1.296875
100,-0.6611328,-0.12408447,0.7543335,0.609375,1.609375,-2.0
101,-0.59277344,-0.082092285,0.7238159,-1.359375,2.40625,1.265625
102,-0.71777344,-0.09967041,0.7770386,1.921875,-0.90625,1.859375
103,-0.6779785,-0.16265869,0.79364014,-0.90625,2.078125,0.359375
104,-0.6706543,-0.18560791,0.7909546,-5.078125,2.875,2.09375
105,-0.6972656,-0.11773682,0.7814331,-8.140625,5.96875,1.359375
106,-0.6875,-0.10748291,0.7848511,-7.609375,3.640625,3.328125
107,-0.66430664,-0.10211182,0.7982788,-8.109375,5.078125,3.59375
108,-0.63964844,-0.0960083,0.7875366,-8.140625,3.203125,2.703125
109,-0.5932617,-0.070617676,0.7880249,-6.96875,3.578125,0.703125
110,-0.625,-0.09503174,0.777771,-5.046875,1.328125,-0.46875
111,-0.6437988,-0.055236816,0.75653076,-4.03125,2.375,-0.5625
112,-0.63061523,-0.062561035,0.7782593,-2.46875,0.0625,-1.0
113,-0.65234375,-0.0725708,0.7892456,-1.171875,-0.796875,-0.21875
114,-0.6257324,-0.05596924,0.79071045,-0.1875,-1.765625,0.171875
115,-0.6142578,-0.042541504,0.77874756,1.75,-3.65625,-0.40625
116,-0.63061523,-0.031799316,0.7653198,4.4375,-6.3125,-0.71875
117,-0.6455078,-0.074523926,0.74676514,10.734375,-9.15625,0.03125
118,-0.68530273,-0.113586426,0.75408936,18.28125,-10.296875,-1.90625
119,-0.6520996,-0.11993408,0.77630615,2.46875,-6.453125,-11.59375
120,-0.6220703,-0.09136963,0.78411865,-0.59375,-4.359375,-3.890625
121,-0.701416,-0.09576416,0.7494507,-0.875,-0.796875,0.765625
122,-0.7116699,-0.06964111,0.7560425,1.609375,0.328125,1.1875
123,-0.68066406,-0.09967041,0.7723999,0.6875,1.203125,-0.171875
124,-0.65649414,-0.15338135,0.75335693,-0.109375,1.6875,2.859375
125,-0.67871094,-0.14312744,0.7489624,3.28125,-1.125,3.78125
126,-0.69555664,-0.11260986,0.75042725,2.484375,-0.625,0.578125
127,-0.67871094,-0.09259033,0.7662964,2.234375,-3.890625,-1.15625
128,-0.6359863,-0.0713501,0.76605225,-1.6875,1.203125,-4.125
129,-0.68603516,-0.11212158,0.7719116,-1.109375,-1.046875,0.640625
130,-0.68652344,-0.11968994,0.7650757,-1.59375,0.046875,0.5
131,-0.64941406,-0.12799072,0.7518921,-2.0,2.03125,2.109375
132,-0.64941406,-0.1194458,0.7453003,0.671875,-0.21875,2.859375
133,-0.70751953,-0.13116455,0.76605225,2.296875,-2.546875,0.75
134,-0.6989746,-0.12506104,0.73309326,1.8125,-3.015625,-2.546875
135,-0.66845703,-0.07696533,0.7765503,-0.765625,0.28125,-5.109375
136,-0.6425781,-0.09918213,0.7716675,-0.984375,0.15625,0.03125
137,-0.70458984,-0.11456299,0.78289795,-2.984375,1.0,1.21875
138,-0.67944336,-0.13165283,0.7797241,-5.9375,2.75,1.890625
139,-0.65722656,-0.13848877,0.7719116,-9.171875,6.796875,3.375
140,-0.65625,-0.10772705,0.7543335,-6.828125,6.453125,3.53125
141,-0.65405273,-0.101623535,0.79315186,-6.703125,5.875,2.03125
142,-0.66503906,-0.08502197,0.79315186,-6.296875,3.921875,2.125
143,-0.6567383,-0.0713501,0.8095093,-4.96875,2.390625,1.390625
144,-0.64941406,-0.051086426,0.76727295,-4.5,1.828125,0.265625
145,-0.6254883,-0.046691895,0.7770386,-3.296875,0.953125,0.109375
146,-0.6184082,-0.0647583,0.7814331,-1.5,0.15625,-0.375
147,-0.63720703,-0.07550049,0.7826538,-0.671875,-1.4375,-0.390625
148,-0.62841797,-0.07183838,0.7782593,0.78125,-1.984375,-0.515625
149,-0.63720703,-0.05718994,0.7872925,3.703125,-4.265625,-0.5625
150,-0.6381836,-0.047180176,0.7770386,5.515625,-5.984375,0.296875
151,-0.6669922,-0.06939697,0.7670288,11.109375,-10.28125,0.8125
152,-0.6777344,-0.1404419,0.72088623,10.765625,-11.578125,-2.8125
153,-0.64868164,-0.085998535,0.760437,1.984375,-6.09375,-12.765625
154,-0.65649414,-0.08843994,0.7650757,-0.921875,-1.53125,-2.984375
155,-0.6906738,-0.093322754,0.7609253,-0.296875,0.4375,2.390625
156,-0.69506836,-0.09552002,0.7548218,1.140625,0.765625,0.640625
157,-0.66015625,-0.09844971,0.75213623,0.328125,2.1875,0.234375
158,-0.6594238,-0.1375122,0.76678467,0.46875,2.515625,3.078125
159,-0.6960449,-0.1416626,0.7616577,2.53125,-0.015625,3.40625
160,-0.7011719,-0.07989502,0.7675171,3.859375,-2.921875,0.453125
161,-0.6960449,-0.05645752,0.73358154,1.21875,-2.25,-6.609375
162,-0.6027832,-0.120666504,0.7758179,-1.1875,-2.015625,-3.53125
163,-0.6796875,-0.08526611,0.7531128,-1.59375,-0.28125,0.078125
164,-0.6750488,-0.09844971,0.7675171,-1.328125,1.28125,1.296875
165,-0.65722656,-0.117492676,0.7484741,-1.03125,2.203125,2.546875
166,-0.68115234,-0.13800049,0.7601929,1.375,0.125,3.78125
167,-0.6977539,-0.12408447,0.75164795,2.640625,-2.28125,0.421875
168,-0.68481445,-0.10699463,0.73773193,2.28125,-5.015625,-4.546875
169,-0.6411133,-0.0647583,0.75946045,0.203125,1.296875,-3.59375
170,-0.6958008,-0.10211182,0.79315186,0.0,0.328125,1.625
171,-0.7192383,-0.12628174,0.78289795,-2.1875,1.171875,1.34375
172,-0.6791992,-0.13189697,0.7658081,-5.1875,4.203125,1.59375
173,-0.66967773,-0.12017822,0.77093506,-7.234375,7.5,3.84375
174,-0.64746094,-0.13531494,0.7909546,-8.375,8.0625,5.34375
175,-0.64453125,-0.12384033,0.79486084,-7.375,4.0625,3.859375
176,-0.642334,-0.08721924,0.7946167,-6.984375,4.3125,1.484375
177,-0.65356445,-0.081848145,0.8295288,-5.515625,4.140625,0.25
178,-0.6677246,-0.06768799,0.81073,-3.703125,3.140625,1.703125
179,-0.62402344,-0.058410645,0.7509155,-3.625,2.53125,1.4375
180,-0.60595703,-0.062072754,0.77630615,-2.140625,1.15625,0.46875
181,-0.607666,-0.06695557,0.77923584,-1.09375,0.234375,-0.109375
182,-0.62939453,-0.09259033,0.79437256,-0.765625,-1.640625,-0.53125
183,-0.6208496,-0.07330322,0.7904663,0.96875,-2.828125,-0.71875
184,-0.62890625,-0.030090332,0.77215576,1.515625,-3.890625,-0.65625
185,-0.6333008,-0.0413208,0.74798584,8.0,-9.84375,-0.546875
186,-0.6503906,-0.10455322,0.78240967,11.265625,-8.765625,0.390625
187,-0.67211914,-0.14093018,0.7650757,12.1875,-6.859375,-1.578125
188,-0.7145996,-0.11016846,0.77679443,4.828125,-8.65625,-10.765625
189,-0.5966797,-0.0413208,0.79974365,-2.1875,-2.859375,-9.265625
190,-0.64501953,-0.108947754,0.7719116,-1.375,-1.015625,0.53125
191,-0.69384766,-0.10235596,0.7609253,0.265625,-0.4375,1.34375
192,-0.673584,-0.0869751,0.7728882,0.859375,0.140625,-1.578125
193,-0.6672363,-0.13433838,0.77459717,-0.34375,1.6875,1.8125
194,-0.64038086,-0.13116455,0.76190186,0.140625,2.09375,4.03125
195,-0.69677734,-0.14019775,0.77996826,4.8125,-2.0625,3.6875
196,-0.69384766,-0.062072754,0.7296753,4.921875,-2.21875,-1.109375
197,-0.69140625,-0.081848145,0.81365967,1.828125,-4.5625,-7.96875
198,-0.58447266,-0.09552002,0.7453003,-2.109375,1.328125,-0.828125
199,-0.74438477,-0.07672119,0.77508545,-0.296875,-0.625,2.515625
200,-0.67871094,-0.11895752,0.7807007,-1.65625,1.5,0.4375
201,-0.6452637,-0.1428833,0.75579834,-2.671875,2.296875,3.21875
202,-0.65649414,-0.13238525,0.7243042,1.546875,-0.28125,5.703125
203,-0.66967773,-0.12310791,0.69036865,3.90625,-0.984375,-0.5625
204,-0.6484375,-0.09454346,0.79193115,4.453125,-1.6875,-3.78125
205,-0.6867676,-0.12408447,0.7987671,1.0,-2.25,-0.25
206,-0.6394043,-0.06378174,0.7445679,-0.765625,-0.1875,-0.0625
207,-0.70410156,-0.101867676,0.7946167,0.65625,-1.734375,-1.234375
208,-0.6879883,-0.16656494,0.8180542,-4.4375,1.15625,0.421875
209,-0.68969727,-0.19683838,0.7753296,-7.921875,4.125,3.625
210,-0.65478516,-0.13140869,0.76483154,-9.28125,6.96875,3.296875
211,-0.6555176,-0.10845947,0.78045654,-9.359375,6.109375,4.625
212,-0.62841797,-0.10064697,0.7850952,-10.390625,4.078125,2.46875
213,-0.6567383,-0.07965088,0.7802124,-7.53125,1.546875,0.96875
214,-0.66015625,-0.03668213,0.7963257,-5.46875,0.453125,0.3125
215,-0.66503906,-0.054016113,0.7843628,-5.328125,2.125,-0.4375
216,-0.63549805,-0.0725708,0.7863159,-3.859375,1.671875,-1.0
217,-0.61865234,-0.062561035,0.78118896,-3.0,0.515625,-0.78125
218,-0.6123047,-0.061340332,0.77874756,-0.453125,-1.609375,-0.46875
219,-0.62280273,-0.04864502,0.78338623,2.03125,-3.609375,-1.359375
220,-0.64086914,-0.04083252,0.77948,3.171875,-4.3125,-1.171875
221,-0.6345215,-0.04864502,0.78411865,5.5,-6.984375,-1.234375
222,-0.6376953,-0.08306885,0.7716675,8.109375,-7.25,-1.1875
223,-0.6542969,-0.08062744,0.7567749,9.578125,-6.359375,0.359375
224,-0.7077637,-0.07598877,0.7321167,15.390625,-9.65625,-2.984375
225,-0.69018555,-0.07550049,0.79608154,2.109375,-5.265625,-13.0625
226,-0.6098633,-0.09185791,0.76727295,-3.890625,-4.046875,-3.375
227,-0.71777344,-0.08770752,0.74627686,0.15625,0.3125,0.25
228,-0.6850586,-0.058166504,0.7640991,1.9375,1.875,-1.53125
229,-0.6813965,-0.11529541,0.7860718,-0.390625,3.59375,0.15625
230,-0.63427734,-0.12945557,0.7616577,1.765625,2.09375,2.984375
231,-0.6767578,-0.12799072,0.7704468,2.421875,1.0,1.265625
232,-0.7019043,-0.101867676,0.7584839,3.734375,-1.34375,2.734375
233,-0.7050781,-0.07354736,0.7692261,1.953125,-5.234375,-2.625
234,-0.6828613,-0.094055176,0.8019409,-0.921875,-6.359375,-5.03125
235,-0.6513672,-0.07940674,0.7609253,-3.515625,-2.3125,-1.4375
236,-0.6855469,-0.07550049,0.76898193,-1.515625,0.859375,0.921875
237,-0.6623535,-0.08453369,0.74334717,-1.65625,3.484375,2.765625
238,-0.65112305,-0.09967041,0.72698975,-0.046875,2.53125,3.90625
239,-0.68310547,-0.11187744,0.72772217,3.921875,-2.390625,2.453125
240,-0.7043457,-0.11651611,0.7406616,4.4375,-4.0625,-2.25
241,-0.6982422,-0.09259033,0.776062,2.90625,-6.421875,-3.453125
242,-0.6088867,-0.08843994,0.7592163,-1.828125,0.8125,1.078125
243,-0.7583008,-0.09112549,0.77801514,-1.53125,0.265625,2.078125
244,-0.69750977,-0.09844971,0.7501831,-3.265625,4.296875,0.859375
245,-0.6699219,-0.113586426,0.7748413,-5.265625,5.609375,3.484375
246,-0.6230469,-0.15631104,0.7736206,-8.078125,7.453125,4.8125
247,-0.6623535,-0.13555908,0.78045654,-7.328125,5.390625,5.078125
248,-0.6738281,-0.089416504,0.7531128,-8.28125,5.359375,3.71875
249,-0.6645508,-0.054748535,0.8041382,-6.328125,2.25,0.46875
250,-0.6635742,-0.058654785,0.79730225,-4.078125,1.53125,-1.03125
251,-0.64575195,-0.0791626,0.7785034,-4.0,0.890625,-0.46875
252,-0.62231445,-0.058166504,0.7562866,-4.015625,0.984375,0.84375
253,-0.63427734,-0.047912598,0.78167725,-0.890625,-1.1875,1.671875
254,-0.6315918,-0.06573486,0.76971436,-0.109375,-1.90625,0.875
255,-0.6455078,-0.07745361,0.7855835,1.578125,-3.046875,-0.09375
256,-0.6467285,-0.059387207,0.77337646,2.703125,-2.734375,-1.21875
257,-0.6459961,-0.05645752,0.7843628,3.890625,-3.171875,-1.734375
258,-0.6621094,-0.066467285,0.73968506,9.0,-6.40625,-0.59375
259,-0.66967773,-0.06866455,0.7225952,20.359375,-10.03125,-2.96875
260,-0.70288086,-0.12896729,0.83270264,5.546875,-11.25,-12.265625
261,-0.5534668,-0.13409424,0.77093506,-2.984375,-5.359375,-5.84375
262,-0.70947266,-0.0869751,0.7423706,0.265625,-1.65625,2.65625
263,-0.73706055,-0.0635376,0.75775146,1.34375,0.109375,0.328125
264,-0.6879883,-0.11016846,0.7831421,-1.28125,1.953125,-1.015625
265,-0.65771484,-0.1494751,0.75653076,-2.1875,3.3125,2.796875
266,-0.68237305,-0.11383057,0.729187,-0.03125,3.125,3.328125
267,-0.6977539,-0.08331299,0.7177124,4.546875,-0.375,2.140625
268,-0.6652832,-0.022277832,0.7531128,8.875,-3.453125,-2.53125
269,-0.7062988,-0.15679932,0.8163452,4.328125,-1.296875,-4.65625
270,-0.6533203,-0.12628174,0.76605225,-0.125,0.5625,0.90625
271,-0.6887207,-0.08258057,0.7831421,0.828125,0.015625,0.609375
272,-0.6586914,-0.13140869,0.78338623,-1.6875,0.828125,0.765625
273,-0.6594238,-0.16461182,0.75823975,-3.453125,2.234375,3.765625
274,-0.6635742,-0.12213135,0.7133179,1.375,-0.53125,2.609375
275,-0.6994629,-0.13946533,0.72406006,0.625,3.640625,-0.359375
276,-0.6398926,-0.07867432,0.7543335,1.125,0.046875,-0.265625
277,-0.69262695,-0.11260986,0.7809448,1.578125,-5.234375,-0.40625
278,-0.63183594,-0.101379395,0.74261475,-2.25,0.546875,-2.109375
279,-0.7055664,-0.11529541,0.8078003,-1.15625,0.40625,0.359375
280,-0.68066406,-0.1638794,0.8060913,-5.125,1.8125,0.46875
281,-0.6726074,-0.14801025,0.7665405,-6.5,3.140625,1.984375
282,-0.6455078,-0.12750244,0.7880249,-6.984375,5.328125,2.0
283,-0.65600586,-0.12261963,0.78167725,-7.703125,4.984375,3.8125
284,-0.6640625,-0.09259033,0.76898193,-8.359375,4.140625,2.75
285,-0.64746094,-0.07232666,0.8102417,-7.109375,2.71875,0.625
286,-0.6472168,-0.07525635,0.7711792,-8.171875,3.515625,1.078125
287,-0.6437988,-0.042053223,0.7731323,-4.59375,1.375,1.703125
288,-0.6398926,-0.058166504,0.77508545,-3.359375,0.46875,0.46875
289,-0.6166992,-0.070129395,0.76239014,-1.40625,-0.9375,-0.296875
290,-0.6320801,-0.055236816,0.78533936,1.0625,-2.796875,-1.5
291,-0.6364746,-0.06524658,0.78900146,2.078125,-3.125,-1.0625
292,-0.6381836,-0.062316895,0.7855835,2.828125,-3.734375,-0.9375
293,-0.64038086,-0.074523926,0.76727295,7.53125,-6.34375,0.265625
294,-0.6706543,-0.07232666,0.75946045,10.75,-7.109375,0.640625
295,-0.70092773,-0.10748291,0.75775146,13.421875,-10.796875,-2.125
296,-0.68481445,-0.10064697,0.77923584,1.640625,-6.515625,-12.78125
297,-0.5637207,-0.074279785,0.74554443,-2.734375,-1.71875,-1.859375
298,-0.72509766,-0.09942627,0.7489624,0.53125,-1.265625,2.0625
299,-0.6989746,-0.070129395,0.77215576,0.765625,1.109375,-2.171875
300,-0.66552734,-0.13604736,0.79559326,-1.609375,3.21875,0.40625
301,-0.6550293,-0.13677979,0.74090576,-0.484375,3.90625,4.9375
302,-0.72387695,-0.11602783,0.74334717,5.125,-1.203125,2.90625
303,-0.69433594,-0.08526611,0.73480225,5.109375,-3.34375,-1.390625
304,-0.61694336,-0.09942627,0.79193115,-0.109375,-0.484375,-3.09375
305,-0.6843262,-0.11407471,0.78118896,-0.859375,-1.125,1.8125
306,-0.73413086,-0.09161377,0.7999878,-1.09375,-0.375,0.984375
307,-0.68481445,-0.13482666,0.77630615,-3.59375,2.171875,2.140625
308,-0.6340332,-0.10845947,0.70477295,-1.359375,3.34375,4.515625
309,-0.67993164,-0.12286377,0.7555542,3.515625,-1.90625,1.609375
310,-0.69091797,-0.15216064,0.71014404,3.609375,-0.515625,-0.390625
311,-0.64208984,-0.117248535,0.7704468,1.78125,-2.546875,-2.609375
312,-0.6159668,-0.1038208,0.7692261,-1.546875,2.125,0.3125
313,-0.72314453,-0.1194458,0.80340576,-1.609375,0.671875,-0.734375
314,-0.6635742,-0.124572754,0.7758179,-4.0625,2.6875,-1.078125
315,-0.6413574,-0.12872314,0.7807007,-5.9375,2.3125,0.8125
316,-0.66503906,-0.13922119,0.77508545,-8.125,4.0625,1.875
317,-0.6520996,-0.11480713,0.79193115,-7.0,3.671875,2.3125
318,-0.6777344,-0.09893799,0.78948975,-8.625,4.640625,1.828125
319,-0.6491699,-0.089660645,0.79364014,-6.546875,3.921875,-0.0625
320,-0.6503906,-0.06036377,0.7868042,-5.4375,3.640625,0.03125
321,-0.6357422,-0.046203613,0.7863159,-3.4375,2.09375,0.015625
322,-0.6281738,-0.05645752,0.7863159,-2.59375,0.203125,0.140625
323,-0.62646484,-0.06451416,0.7821655,-1.140625,-1.625,0.1875
324,-0.6203613,-0.066467285,0.7807007,0.515625,-3.328125,-0.6875
325,-0.6328125,-0.06329346,0.7785034,1.625,-4.0625,-0.765625
326,-0.6237793,-0.06500244,0.77020264,2.390625,-4.34375,-0.421875
327,-0.6369629,-0.07232666,0.77386475,3.859375,-4.515625,-0.046875
328,-0.66064453,-0.08477783,0.7868042,4.859375,-4.859375,0.609375
329,-0.6713867,-0.08648682,0.7772827,5.0,-4.328125,0.203125
330,-0.68310547,-0.059631348,0.76849365,10.4375,-5.671875,-1.234375
331,-0.7102051,-0.10626221,0.75897217,3.71875,-8.59375,-7.53125
332,-0.5703125,-0.09210205,0.76776123,-1.078125,-1.84375,-8.796875
333,-0.67089844,-0.1116333,0.76678467,0.6875,-1.59375,0.828125
334,-0.68652344,-0.09039307,0.75164795,0.21875,-0.6875,1.59375
335,-0.66552734,-0.09210205,0.7550659,0.171875,1.09375,-0.875
336,-0.6530762,-0.13702393,0.77923584,-0.765625,2.140625,1.125
337,-0.66308594,-0.13214111,0.77679443,-0.625,1.546875,3.84375
338,-0.67700195,-0.097473145,0.7704468,1.375,0.390625,3.328125
339,-0.7102051,-0.085998535,0.75994873,3.34375,-3.09375,1.140625
340,-0.6999512,-0.07183838,0.76361084,2.40625,-4.234375,-4.421875
341,-0.59814453,-0.117492676,0.76605225,-0.9375,0.375,-4.671875
342,-0.65185547,-0.09088135,0.7765503,-1.75,0.234375,0.84375
343,-0.6882324,-0.09844971,0.7680054,-1.671875,1.65625,2.453125
344,-0.6669922,-0.11456299,0.7484741,-0.890625,0.71875,2.46875
345,-0.6608887,-0.11480713,0.75408936,2.34375,-2.0625,1.71875
346,-0.7092285,-0.09967041,0.7614136,4.046875,-4.515625,-2.328125
347,-0.64282227,-0.12872314,0.76483154,-0.9375,-0.390625,-5.84375
348,-0.68530273,-0.0881958,0.7926636,-2.125,0.609375,-0.96875
349,-0.69262695,-0.089660645,0.777771,-3.171875,2.359375,-0.171875
350,-0.6411133,-0.06890869,0.7435913,-0.921875,3.109375,1.84375
351,-0.66845703,-0.11895752,0.76116943,-0.1875,0.515625,1.0625
352,-0.64453125,-0.13360596,0.7640991,-0.15625,1.28125,0.546875
353,-0.6635742,-0.13043213,0.774353,-0.0625,-0.015625,1.640625
354,-0.6730957,-0.10333252,0.7741089,-0.59375,0.234375,0.765625
355,-0.6682129,-0.077941895,0.7711792,-0.609375,-0.15625,0.234375
356,-0.6665039,-0.08111572,0.7789917,-0.578125,-0.421875,-0.078125
357,-0.6657715,-0.11456299,0.7868042,-2.0,-0.09375,0.9375
358,-0.65063477,-0.1260376,0.789978,-5.453125,2.203125,1.875
359,-0.65283203,-0.108947754,0.7645874,-5.890625,2.234375,2.75
360,-0.65478516,-0.10797119,0.7723999,-5.1875,2.09375,2.5625
361,-0.6569824,-0.11260986,0.80804443,-5.21875,3.8125,2.0625
362,-0.66674805,-0.09429932,0.7848511,-6.484375,3.703125,2.328125
363,-0.64086914,-0.06402588,0.79608154,-4.5625,2.921875,1.125
364,-0.6555176,-0.05328369,0.7946167,-2.921875,0.796875,0.5625
365,-0.6320801,-0.06329346,0.7782593,-2.078125,-0.28125,0.46875
366,-0.6113281,-0.062072754,0.7789917,0.03125,-2.234375,-0.0625
367,-0.6188965,-0.062072754,0.77557373,1.65625,-3.3125,-0.75
368,-0.6220703,-0.061340332,0.76678467,1.703125,-3.46875,-1.375
369,-0.6472168,-0.06695557,0.7836304,4.046875,-4.78125,-1.078125
370,-0.67089844,-0.085510254,0.7145386,11.3125,-8.921875,-0.828125
371,-0.69970703,-0.09942627,0.78900146,13.5625,-12.40625,-4.46875
372,-0.65649414,-0.1026001,0.7711792,2.53125,-5.75,-12.09375
373,-0.61499023,-0.09088135,0.7836304,-0.203125,-3.953125,-1.3125
374,-0.7128906,-0.101379395,0.7562866,-0.09375,-1.515625,0.921875
375,-0.68969727,-0.085998535,0.7548218,-0.28125,1.0625,-0.609375
376,-0.66186523,-0.11114502,0.7614136,-1.21875,2.921875,0.59375
377,-0.6479492,-0.1404419,0.76190186,-0.28125,2.9375,4.0625
378,-0.70336914,-0.13336182,0.74920654,3.578125,0.0,3.671875
379,-0.7229004,-0.082092285,0.75531006,3.171875,-3.890625,-0.75
380,-0.6591797,-0.081848145,0.77679443,0.3125,-0.578125,-5.78125
381,-0.65185547,-0.089660645,0.7807007,-0.84375,-1.171875,-0.296875
382,-0.70751953,-0.097229004,0.7665405,-1.1875,-0.484375,0.40625
383,-0.6633301,-0.10211182,0.7716675,-2.65625,2.03125,0.515625
384,-0.6525879,-0.12628174,0.7201538,-2.75,2.296875,2.6875
385,-0.66674805,-0.1038208,0.74017334,2.265625,-0.78125,2.703125
386,-0.71655273,-0.14434814,0.7538452,3.4375,-4.3125,-1.984375
387,-0.64282227,-0.13726807,0.79901123,0.78125,0.3125,-4.953125
388,-0.6398926,-0.09136963,0.7575073,1.125,-0.625,0.640625
389,-0.70751953,-0.039611816,0.7706909,0.515625,0.0625,0.484375
390,-0.6921387,-0.11529541,0.7819214,-1.171875,2.0,0.390625
391,-0.67333984,-0.15020752,0.77557373,-4.796875,4.03125,1.5
392,-0.6516113,-0.15802002,0.78948975,-6.859375,4.875,3.0625
393,-0.6516113,-0.12335205,0.7887573,-8.765625,5.375,4.703125
394,-0.671875,-0.08355713,0.78338623,-7.46875,1.453125,3.53125
395,-0.65844727,-0.07672119,0.7675171,-6.03125,1.15625,0.703125
396,-0.657959,-0.07208252,0.7609253,-2.5,0.8125,-0.6875
397,-0.6442871,-0.06011963,0.7836304,-2.03125,0.03125,-1.25
398,-0.65356445,-0.07232666,0.7868042,-1.046875,-0.78125,-0.609375
399,-0.642334,-0.06842041,0.7670288,-1.6875,0.21875,-0.09375
400,-0.6333008,-0.06695557,0.7887573,0.6875,-1.65625,-0.703125
401,-0.64941406,-0.08087158,0.7706909,0.984375,-1.671875,-1.109375
402,-0.6308594,-0.08135986,0.76678467,2.328125,-3.375,-0.71875
403,-0.6394043,-0.06549072,0.7536011,5.71875,-4.921875,0.875
404,-0.6672363,-0.093322754,0.7699585,8.0,-6.21875,1.4375
405,-0.6804199,-0.08331299,0.7536011,11.75,-6.03125,-0.09375
406,-0.7167969,-0.07183838,0.79486084,3.515625,-5.71875,-7.03125
407,-0.59277344,-0.11383057,0.75213623,-1.234375,-3.546875,-5.875
408,-0.6784668,-0.117492676,0.7665405,-0.421875,-1.625,0.28125
409,-0.69677734,-0.08282471,0.74798584,0.125,0.40625,1.140625
410,-0.67578125,-0.11260986,0.7597046,0.25,0.875,-0.484375
411,-0.6669922,-0.14971924,0.76483154,-1.265625,1.421875,1.03125
412,-0.6826172,-0.12310791,0.74993896,-0.515625,1.6875,2.65625
413,-0.66796875,-0.10089111,0.7453003,1.78125,1.515625,2.171875
414,-0.71435547,-0.09576416,0.75213623,3.546875,-1.65625,1.28125
415,-0.68066406,-0.085510254,0.74871826,2.328125,-5.609375,-3.75
416,-0.6364746,-0.12042236,0.7807007,-2.546875,-0.546875,-5.203125
417,-0.66503906,-0.081604004,0.74139404,-1.546875,-0.625,1.171875
418,-0.68408203,-0.10284424,0.7802124,0.140625,0.078125,-0.015625
419,-0.67944336,-0.159729,0.7682495,-1.734375,0.984375,1.875
420,-0.6555176,-0.13824463,0.73553467,-1.4375,1.15625,3.34375
421,-0.6750488,-0.1026001,0.74017334,0.90625,-1.5,0.625
422,-0.7138672,-0.101135254,0.7460327,2.265625,-2.0,-0.171875
423,-0.6569824,-0.089904785,0.7489624,2.234375,1.46875,-1.3125
424,-0.67456055,-0.09967041,0.79486084,-0.59375,1.109375,-0.046875
425,-0.7282715,-0.11138916,0.7809448,-1.3125,-0.109375,0.953125
426,-0.64624023,-0.13555908,0.7850952,-3.453125,1.984375,-0.984375
427,-0.64453125,-0.13336182,0.7782593,-3.84375,1.125,2.140625
428,-0.670166,-0.13165283,0.76434326,-4.359375,1.765625,1.4375
429,-0.66308594,-0.11846924,0.7523804,-3.1875,0.09375,-1.0625
430,-0.66918945,-0.0869751,0.78289795,-2.765625,-0.8125,-0.1875
431,-0.6911621,-0.09918213,0.79730225,-3.046875,0.125,1.609375
432,-0.6784668,-0.101623535,0.7914429,-6.03125,3.4375,1.90625
433,-0.6525879,-0.08892822,0.7719116,-6.875,3.328125,0.859375
434,-0.6254883,-0.070129395,0.78240967,-5.171875,2.265625,-0.046875
435,-0.6477051,-0.0869751,0.7821655,-4.546875,0.625,-0.015625
436,-0.63134766,-0.06329346,0.76678467,-1.453125,-0.703125,-0.046875
437,-0.64990234,-0.06817627,0.7772827,0.484375,-2.078125,0.078125
438,-0.6464844,-0.05255127,0.7548218,1.640625,-2.984375,1.0
439,-0.65527344,-0.06549072,0.76849365,3.328125,-4.0625,1.359375
440,-0.66796875,-0.082336426,0.7472534,5.734375,-5.203125,1.625
441,-0.69384766,-0.07647705,0.7379761,13.65625,-7.515625,-1.59375
442,-0.6875,-0.1038208,0.78338623,3.328125,-6.0,-8.96875
443,-0.58935547,-0.09893799,0.77215576,-1.203125,-4.015625,-4.09375
444,-0.6984863,-0.09625244,0.76971436,0.25,-1.6875,0.3125
445,-0.71972656,-0.0803833,0.7614136,0.875,-0.296875,0.125
446,-0.67163086,-0.11798096,0.7741089,-1.015625,2.234375,-0.640625
447,-0.6591797,-0.15557861,0.7633667,-1.53125,1.984375,2.890625
448,-0.6660156,-0.12164307,0.7484741,-0.515625,1.5625,3.125
449,-0.6899414,-0.09991455,0.7560425,1.953125,-0.359375,3.046875
450,-0.6875,-0.07965088,0.758728,2.328125,-1.609375,0.546875
451,-0.6894531,-0.093566895,0.7445679,2.25,-5.515625,-3.109375
452,-0.6333008,-0.097961426,0.75775146,-1.3125,-0.015625,-4.34375
453,-0.68481445,-0.112854004,0.7875366,-1.65625,0.09375,0.53125
454,-0.70288086,-0.12359619,0.80877686,-4.046875,2.796875,2.484375
455,-0.6665039,-0.14019775,0.75579834,-4.859375,2.140625,4.234375
456,-0.6296387,-0.10015869,0.72332764,-0.484375,0.515625,4.09375
457,-0.6809082,-0.12213135,0.760437,2.15625,-1.8125,0.765625
458,-0.6921387,-0.11114502,0.7518921,2.03125,-1.6875,-1.34375
459,-0.6816406,-0.07965088,0.7826538,1.328125,-3.140625,-2.90625
460,-0.703125,-0.07330322,0.7501831,-0.859375,-3.53125,-2.25
461,-0.6386719,-0.08258057,0.74920654,-1.75,0.359375,-1.390625
462,-0.66259766,-0.12628174,0.7719116,-2.09375,1.875,1.3125
463,-0.66259766,-0.1326294,0.7680054,-2.9375,2.703125,1.953125
464,-0.65722656,-0.14068604,0.7416382,-3.625,4.4375,2.1875
465,-0.6555176,-0.13970947,0.7914429,-5.5625,5.4375,1.71875
466,-0.66503906,-0.10845947,0.79901123,-7.25,3.828125,1.125
467,-0.66918945,-0.07330322,0.7658081,-5.140625,2.421875,0.3125
468,-0.6660156,-0.06011963,0.7802124,-5.078125,3.875,0.453125
469,-0.65966797,-0.066711426,0.79071045,-3.84375,1.5625,1.4375
470,-0.63012695,-0.06890869,0.791687,-3.5625,0.765625,1.421875
471,-0.6225586,-0.08721924,0.7782593,-2.921875,-0.859375,0.328125
472,-0.61938477,-0.070129395,0.7802124,-0.71875,-1.359375,-0.78125
473,-0.640625,-0.07989502,0.776062,-0.375,-1.53125,-0.921875
474,-0.63500977,-0.050354004,0.7785034,1.25,-1.890625,-0.90625
475,-0.6508789,-0.043029785,0.77508545,3.46875,-4.046875,-0.71875
476,-0.6501465,-0.054016113,0.7345581,8.796875,-6.578125,0.453125
477,-0.6804199,-0.050109863,0.7055054,20.015625,-15.359375,-3.40625
478,-0.8051758,-0.0947876,0.8422241,6.625,-14.625,-14.28125
479,-0.48754883,-0.14605713,0.8012085,-5.859375,-1.6875,-4.390625
480,-0.7404785,-0.12188721,0.72528076,-0.140625,-4.140625,3.96875
481,-0.73779297,-0.02154541,0.75335693,2.0625,-1.03125,-1.953125
482,-0.6447754,-0.089416504,0.7548218,-1.515625,4.4375,-0.453125
483,-0.65063477,-0.17315674,0.7489624,0.203125,4.015625,4.28125
484,-0.704834,-0.11090088,0.7453003,-0.375,3.875,1.515625
485,-0.7114258,-0.078430176,0.7250366,4.296875,-1.203125,2.453125
486,-0.69628906,-0.043518066,0.7394409,4.796875,-5.4375,-3.015625
487,-0.6447754,-0.11456299,0.7946167,-0.859375,1.03125,-3.578125
488,-0.70825195,-0.10675049,0.7662964,-1.5625,-0.046875,1.984375
489,-0.689209,-0.086242676,0.7753296,-1.71875,0.875,-0.46875
490,-0.670166,-0.11627197,0.76239014,-2.734375,2.859375,1.078125
491,-0.64746094,-0.1296997,0.73846436,-1.328125,2.625,3.890625
492,-0.6821289,-0.10601807,0.72454834,2.96875,-1.109375,1.609375
493,-0.7062988,-0.09893799,0.7177124,4.171875,-4.5,-2.203125
494,-0.6911621,-0.105041504,0.7982788,2.40625,-3.234375,-3.53125
495,-0.6442871,-0.10284424,0.7897339,-0.453125,-2.015625,0.9375
496,-0.71435547,-0.09576416,0.79486084,-2.09375,1.25,-1.296875
497,-0.69970703,-0.14117432,0.77215576,-5.09375,3.140625,0.015625
498,-0.654541,-0.121154785,0.77459717,-6.703125,6.46875,2.90625
499,-0.68481445,-0.13238525,0.74871826,-6.765625,2.890625,3.296875
500,-0.6491699,-0.105773926,0.7472534,-6.46875,6.9375,3.21875
501,-0.6347656,-0.08526611,0.7965698,-8.03125,5.921875,2.546875
502,-0.6838379,-0.0803833,0.809021,-7.859375,3.53125,1.96875
503,-0.6550293,-0.04425049,0.7855835,-6.203125,2.109375,1.421875
504,-0.6503906,-0.05328369,0.78167725,-4.671875,1.953125,0.84375
505,-0.6464844,-0.06939697,0.77923584,-2.125,0.34375,-0.328125
506,-0.6328125,-0.066223145,0.7692261,-0.046875,-1.234375,-0.984375
507,-0.62890625,-0.05279541,0.776062,1.578125,-2.015625,-1.0625
508,-0.6201172,-0.046691895,0.77386475,2.84375,-3.328125,-0.59375
509,-0.625,-0.035949707,0.76605225,6.5,-5.5,-0.328125
510,-0.657959,-0.06329346,0.73553467,11.421875,-7.53125,0.359375
511,-0.6928711,-0.097473145,0.7374878,17.015625,-12.703125,-3.265625
512,-0.67578125,-0.08868408,0.7723999,4.359375,-7.171875,-10.625
513,-0.59594727,-0.11627197,0.78704834,0.46875,-3.25,0.5
514,-0.7807617,-0.097717285,0.74993896,1.65625,-2.609375,0.875
515,-0.70166016,-0.07501221,0.7538452,0.21875,0.6875,-2.078125
516,-0.6813965,-0.1326294,0.7550659,-1.53125,1.65625,0.515625
517,-0.66796875,-0.13677979,0.75115967,-0.15625,2.5,1.546875
518,-0.6784668,-0.1182251,0.7609253,-0.453125,4.03125,1.875
519,-0.6777344,-0.09893799,0.727478,3.59375,1.125,3.46875
520,-0.6882324,-0.07598877,0.7736206,4.203125,-1.5,0.25
521,-0.6882324,-0.11529541,0.7496948,3.03125,-5.765625,-1.75
522,-0.64038086,-0.10015869,0.77337646,-1.0,0.234375,-2.765625
523,-0.70654297,-0.10699463,0.78900146,-0.109375,-1.625,0.421875
524,-0.69677734,-0.112854004,0.7675171,-1.46875,1.734375,0.609375
525,-0.6542969,-0.11529541,0.75701904,-2.75,2.46875,2.34375
526,-0.6821289,-0.15533447,0.7592163,-0.234375,4.421875,4.578125
527,-0.69140625,-0.13922119,0.72161865,3.0625,1.03125,5.8125
528,-0.66552734,-0.09625244,0.72576904,4.171875,-3.390625,0.015625
529,-0.68310547,-0.10797119,0.7374878,6.0625,-5.265625,-3.609375
530,-0.6711426,-0.10357666,0.7675171,1.703125,-2.59375,-1.90625
531,-0.66503906,-0.12652588,0.77337646,0.078125,-2.59375,0.25
532,-0.6958008,-0.13336182,0.78338623,-2.09375,0.25,-1.640625
533,-0.685791,-0.16265869,0.77679443,-5.109375,2.453125,1.1875
534,-0.65478516,-0.16973877,0.7658081,-8.09375,3.75,2.484375
535,-0.6437988,-0.15020752,0.75335693,-10.0625,5.90625,1.046875
536,-0.6628418,-0.12945557,0.77020264,-10.671875,5.796875,2.8125
537,-0.6870117,-0.11505127,0.8016968,-10.625,4.4375,0.703125
538,-0.6821289,-0.0803833,0.77630615,-8.828125,3.59375,0.75
539,-0.63061523,-0.031311035,0.78460693,-6.265625,1.75,0.953125
540,-0.6538086,-0.036193848,0.76605225,-3.734375,-1.5,-0.34375
541,-0.657959,-0.07501221,0.77630615,-2.203125,-0.765625,-0.265625
542,-0.6340332,-0.07476807,0.7628784,-2.15625,0.046875,-0.28125
543,-0.6430664,-0.062316895,0.7782593,-0.15625,-1.5,-1.203125
544,-0.6567383,-0.07476807,0.7723999,0.125,-2.390625,-0.875
545,-0.6472168,-0.05718994,0.7719116,1.5625,-2.546875,-0.640625
546,-0.6513672,-0.050354004,0.76483154,3.046875,-4.40625,-0.25
547,-0.6464844,-0.06060791,0.7640991,7.171875,-6.34375,-0.125
548,-0.66381836,-0.070129395,0.7184448,12.71875,-6.578125,-0.125
549,-0.7219238,-0.13800049,0.74798584,9.109375,-10.6875,-5.734375
550,-0.623291,-0.08502197,0.74432373,2.84375,-4.765625,-10.25
551,-0.6374512,-0.09625244,0.7731323,1.171875,-1.53125,-0.46875
552,-0.74487305,-0.109680176,0.7680054,0.171875,-0.796875,1.59375
553,-0.7036133,-0.10308838,0.77874756,-1.1875,2.09375,-0.578125
554,-0.66674805,-0.13726807,0.7662964,-3.203125,4.046875,2.078125
555,-0.64453125,-0.12506104,0.68670654,2.28125,0.625,4.59375
556,-0.7307129,-0.09112549,0.7440796,5.03125,-3.65625,-0.28125
557,-0.70166016,-0.08258057,0.7728882,3.09375,-2.984375,-3.84375
558,-0.6201172,-0.09625244,0.76678467,-2.453125,1.609375,-1.640625
559,-0.7258301,-0.105285645,0.7953491,-2.25,-0.65625,1.265625
560,-0.6906738,-0.10772705,0.7706909,-4.0625,1.4375,2.140625
561,-0.6567383,-0.10772705,0.70770264,-3.375,2.125,3.5625
562,-0.6352539,-0.07891846,0.71209717,1.5,-1.078125,2.875
563,-0.703125,-0.12994385,0.7230835,5.15625,-3.171875,-0.453125
564,-0.7155762,-0.117248535,0.75115967,4.03125,-5.703125,-5.09375
565,-0.6335449,-0.11480713,0.7848511,-4.359375,1.828125,-4.015625
566,-0.7211914,-0.08673096,0.8095093,-2.78125,2.078125,1.828125
567,-0.73217773,-0.1026001,0.7514038,-3.640625,2.90625,0.921875
568,-0.64868164,-0.09820557,0.75994873,-3.078125,4.390625,1.125
569,-0.6274414,-0.12921143,0.76483154,-4.109375,4.71875,1.5
570,-0.63793945,-0.14093018,0.77264404,-5.078125,3.5,1.34375
571,-0.6833496,-0.10430908,0.7855835,-4.9375,2.671875,2.3125
572,-0.6850586,-0.070373535,0.7965698,-4.109375,3.828125,1.640625
573,-0.68481445,-0.06378174,0.78778076,-4.65625,2.328125,0.171875
574,-0.6567383,-0.06060791,0.79193115,-4.46875,3.171875,0.5
575,-0.6296387,-0.07501221,0.762146,-3.6875,2.875,1.046875
576,-0.61621094,-0.08111572,0.78948975,-1.90625,1.328125,0.859375
577,-0.6357422,-0.07940674,0.7723999,-2.84375,0.515625,-0.1875
578,-0.63623047,-0.07110596,0.7885132,-0.578125,0.234375,-0.09375
579,-0.62597656,-0.0491333,0.77996826,0.46875,-0.515625,-0.6875
580,-0.6254883,-0.034729004,0.7736206,2.234375,-3.359375,-1.09375
581,-0.64575195,-0.078430176,0.76898193,5.140625,-5.953125,-0.453125
582,-0.6503906,-0.089904785,0.75213623,8.59375,-6.96875,1.6875
583,-0.6875,-0.085754395,0.74749756,11.78125,-7.8125,-1.640625
584,-0.6677246,-0.054016113,0.743103,4.53125,-6.03125,-9.796875
585,-0.6123047,-0.0869751,0.8053589,1.46875,-5.40625,-5.96875
586,-0.6862793,-0.11993408,0.7782593,-0.40625,-0.328125,0.9375
587,-0.7199707,-0.097961426,0.78704834,-0.28125,1.390625,1.8125
588,-0.6809082,-0.10845947,0.78460693,-2.4375,2.578125,1.9375
589,-0.65405273,-0.12628174,0.7316284,1.28125,0.96875,5.0
590,-0.6779785,-0.12823486,0.7340698,5.125,-3.5625,1.5
591,-0.69262695,-0.08062744,0.7369995,5.46875,-6.359375,-4.328125
592,-0.62597656,-0.07672119,0.78582764,-1.328125,0.671875,-5.734375
593,-0.6984863,-0.08306885,0.7821655,-1.328125,-0.09375,0.203125
594,-0.7102051,-0.09844971,0.8131714,-2.609375,1.546875,0.875
595,-0.6550293,-0.11529541,0.76678467,-5.359375,3.453125,2.765625
596,-0.6394043,-0.11529541,0.711853,-1.484375,1.46875,6.25
597,-0.65893555,-0.117248535,0.74090576,2.71875,-1.59375,2.90625
598,-0.68530273,-0.15533447,0.7440796,1.921875,-0.625,0.796875
599,-0.69091797,-0.066711426,0.7382202,2.953125,-1.859375,-0.296875
600,-0.70166016,-0.054748535,0.75335693,3.828125,-7.03125,-6.5
601,-0.59228516,-0.0947876,0.7855835,-0.796875,-0.40625,-5.984375
602,-0.704834,-0.1194458,0.7875366,-0.8125,-0.296875,1.71875
603,-0.7192383,-0.13580322,0.7999878,-2.9375,2.3125,0.625
604,-0.6467285,-0.14776611,0.75653076,-5.765625,3.671875,1.625
605,-0.62646484,-0.14654541,0.75775146,-7.453125,5.859375,4.375
606,-0.66503906,-0.12335205,0.7694702,-6.828125,4.75,3.984375
607,-0.68115234,-0.10870361,0.7958374,-6.984375,5.03125,2.890625
608,-0.69018555,-0.06304932,0.789978,-6.0,3.3125,2.0625
609,-0.65112305,-0.05230713,0.7770386,-5.71875,4.625,0.484375
610,-0.65112305,-0.04522705,0.80389404,-3.609375,1.46875,1.15625
611,-0.6333008,-0.06866455,0.80096436,-3.546875,2.9375,2.09375
612,-0.63012695,-0.10479736,0.7885132,-2.84375,1.859375,2.875
613,-0.60595703,-0.08868408,0.7699585,-1.921875,2.328125,0.84375
614,-0.6166992,-0.059631348,0.7772827,-0.625,-0.078125,0.140625
615,-0.6257324,-0.055480957,0.7904663,-0.171875,-2.375,-0.984375
616,-0.6386719,-0.04473877,0.7897339,2.15625,-4.265625,-0.953125
617,-0.6257324,-0.04058838,0.7658081,1.703125,-5.125,-1.875
618,-0.6357422,-0.04840088,0.74993896,4.46875,-8.140625,-1.96875
619,-0.65185547,-0.08648682,0.7494507,11.5,-6.71875,-2.359375
620,-0.6665039,-0.13677979,0.76483154,12.9375,-7.90625,-5.0
621,-0.6516113,-0.09259033,0.7628784,3.40625,-3.015625,-8.265625
622,-0.6069336,-0.069885254,0.80023193,0.59375,-2.984375,-3.390625
623,-0.7167969,-0.101135254,0.7626343,1.640625,-1.65625,-0.6875
624,-0.6970215,-0.089904785,0.7963257,0.875,-0.6875,-1.125
625,-0.67456055,-0.10748291,0.7802124,-1.0,1.03125,0.296875
626,-0.6530762,-0.12823486,0.76556396,-1.875,1.15625,2.8125
627,-0.65063477,-0.10723877,0.7262573,0.703125,3.25,3.890625
628,-0.67578125,-0.066467285,0.66741943,8.28125,-1.96875,1.203125
629,-0.6569824,-0.10308838,0.7838745,6.1875,-4.21875,-5.5
630,-0.65893555,-0.11871338,0.80682373,-1.171875,-2.40625,-3.34375
631,-0.69018555,-0.1038208,0.7694702,0.046875,-2.96875,0.953125
632,-0.7126465,-0.105285645,0.80340576,0.453125,-1.953125,-1.53125
633,-0.6813965,-0.16436768,0.807312,-3.625,1.078125,1.59375
634,-0.6672363,-0.13873291,0.727478,-3.78125,1.5625,3.59375
635,-0.6503906,-0.07940674,0.7086792,1.625,-2.359375,0.859375
636,-0.6828613,-0.09991455,0.70648193,3.53125,-5.9375,-0.84375
637,-0.65063477,-0.12408447,0.7687378,1.390625,-4.21875,-2.40625
638,-0.64501953,-0.06549072,0.7575073,-0.875,-2.265625,2.234375
639,-0.763916,-0.11236572,0.7748413,0.96875,-0.234375,0.390625
640,-0.67871094,-0.1453247,0.79364014,-3.515625,2.0,2.140625
641,-0.7023926,-0.1519165,0.77337646,-6.046875,2.40625,3.03125
642,-0.6921387,-0.13800049,0.7562866,-9.078125,5.109375,2.0
643,-0.6882324,-0.12628174,0.75653076,-10.59375,9.578125,4.890625
644,-0.6640625,-0.074523926,0.74823,-8.75,6.4375,3.921875
645,-0.65112305,-0.06744385,0.7821655,-5.84375,4.59375,-0.9375
646,-0.6069336,-0.10015869,0.7941284,-5.78125,2.8125,-3.71875
647,-0.640625,-0.07672119,0.77264404,-4.453125,0.671875,-1.59375
648,-0.6567383,-0.031799316,0.78118896,-4.328125,2.046875,0.0625
649,-0.62475586,-0.027648926,0.77264404,-3.03125,0.203125,-0.25
650,-0.6328125,-0.073791504,0.77142334,-1.015625,-2.171875,-1.328125
651,-0.6401367,-0.06036377,0.77459717,0.765625,-2.5,-0.546875
652,-0.65844727,-0.05670166,0.7728882,2.015625,-2.59375,-0.21875
653,-0.6340332,-0.04522705,0.76556396,3.421875,-3.8125,-0.09375
654,-0.63964844,-0.04498291,0.74017334,6.0625,-7.0625,-0.390625
655,-0.6765137,-0.05645752,0.77459717,11.765625,-9.734375,-0.8125
656,-0.71728516,-0.121398926,0.77215576,14.09375,-12.578125,-1.453125
657,-0.6921387,-0.097717285,0.76434326,2.765625,-5.34375,-8.734375
658,-0.61035156,-0.074035645,0.73480225,-1.0625,-2.953125,-2.984375
659,-0.7175293,-0.08477783,0.7379761,1.609375,-1.609375,-0.34375
660,-0.70581055,-0.097229004,0.7633667,1.5,-0.546875,-0.75
661,-0.6899414,-0.1404419,0.7723999,-1.890625,1.90625,-0.390625
662,-0.6635742,-0.12310791,0.7584839,-2.296875,3.625,2.390625
663,-0.6813965,-0.09893799,0.7418823,-0.796875,3.40625,3.90625
664,-0.7019043,-0.08843994,0.74261475,3.75,-1.421875,3.171875
665,-0.71118164,-0.093566895,0.7184448,3.59375,-4.40625,-0.78125
666,-0.6882324,-0.08721924,0.7665405,1.234375,-3.296875,-5.515625
667,-0.6220703,-0.078430176,0.74627686,-1.796875,-1.328125,-2.390625
668,-0.72680664,-0.0881958,0.77679443,-0.28125,1.515625,0.046875
669,-0.670166,-0.121398926,0.77679443,-3.171875,4.28125,3.0625
670,-0.6621094,-0.113586426,0.72772217,-2.03125,3.5625,5.078125
671,-0.66748047,-0.097961426,0.72869873,1.609375,-0.125,3.265625
672,-0.6982422,-0.13702393,0.74334717,3.921875,-2.65625,0.953125
673,-0.6743164,-0.097717285,0.7147827,3.203125,-3.90625,-1.65625
674,-0.6970215,-0.086242676,0.77557373,1.640625,-4.890625,-3.21875
675,-0.6520996,-0.093811035,0.744812,-2.59375,0.1875,0.203125
676,-0.74072266,-0.11773682,0.77142334,-1.859375,2.359375,0.6875
677,-0.6723633,-0.11895752,0.7470093,-4.71875,4.171875,-0.09375
678,-0.6472168,-0.13092041,0.75946045,-3.765625,3.921875,1.75
679,-0.6503906,-0.1609497,0.7802124,-4.671875,4.875,1.9375
680,-0.6682129,-0.13409424,0.7860718,-6.34375,4.984375,3.515625
681,-0.68359375,-0.077941895,0.7797241,-8.140625,4.421875,3.09375
682,-0.65844727,-0.061828613,0.7789917,-7.96875,3.515625,0.359375
683,-0.6550293,-0.06060791,0.7719116,-5.625,1.1875,-1.359375
684,-0.6616211,-0.066711426,0.77508545,-5.296875,1.6875,-0.046875
685,-0.64819336,-0.06939697,0.7809448,-4.171875,1.609375,0.71875
686,-0.63256836,-0.05987549,0.77215576,-2.921875,0.671875,0.953125
687,-0.6467285,-0.07183838,0.7789917,-2.171875,0.0625,0.34375
688,-0.638916,-0.06451416,0.77801514,0.3125,-1.1875,-0.21875
689,-0.640625,-0.054260254,0.77679443,1.0,-1.484375,-0.28125
690,-0.6411133,-0.045715332,0.7731323,2.125,-2.828125,0.0
691,-0.6398926,-0.043762207,0.77215576,2.890625,-3.609375,-0.484375
692,-0.66186523,-0.06549072,0.74554443,7.234375,-7.234375,0.0625
693,-0.6813965,-0.070129395,0.73724365,16.5,-11.25,-2.859375
694,-0.6779785,-0.0803833,0.75335693,4.96875,-6.765625,-8.4375
695,-0.62475586,-0.08868408,0.79608154,0.953125,-3.53125,-4.546875
696,-0.72094727,-0.11187744,0.77215576,0.8125,-0.90625,-0.125
697,-0.68969727,-0.08258057,0.76849365,0.625,2.03125,0.40625
698,-0.6821289,-0.085754395,0.7753296,-0.78125,2.234375,0.453125
699,-0.6657715,-0.1428833,0.76971436,-1.625,2.796875,2.0625
700,-0.67089844,-0.12677002,0.7382202,1.5625,0.40625,3.421875
701,-0.6994629,-0.10015869,0.74432373,4.046875,-2.625,2.203125
702,-0.6879883,-0.0647583,0.7428589,3.609375,-6.109375,-2.578125
703,-0.63720703,-0.06085205,0.75946045,-0.109375,-0.671875,-5.265625
704,-0.685791,-0.09283447,0.79119873,-0.640625,-0.84375,0.390625
705,-0.7211914,-0.105773926,0.7872925,-2.96875,2.390625,2.078125
706,-0.67211914,-0.11065674,0.76361084,-3.125,2.125,3.046875
707,-0.6442871,-0.10015869,0.7194214,-1.515625,2.21875,3.453125
708,-0.6694336,-0.10992432,0.7284546,2.3125,-0.8125,1.921875
709,-0.69506836,-0.12945557,0.696228,4.859375,-4.046875,-1.90625
710,-0.67944336,-0.08746338,0.7855835,2.703125,-2.90625,-5.578125
711,-0.6550293,-0.09063721,0.79241943,-2.328125,0.109375,-1.359375
712,-0.6984863,-0.10626221,0.80145264,-3.578125,2.328125,-0.140625
713,-0.68603516,-0.09576416,0.77142334,-3.1875,3.0,1.078125
714,-0.6657715,-0.11138916,0.77142334,-4.484375,4.046875,1.84375
715,-0.6254883,-0.13775635,0.7785034,-5.0625,4.3125,3.1875
716,-0.6394043,-0.1338501,0.77948,-7.71875,3.890625,3.328125
717,-0.68847656,-0.09210205,0.7782593,-7.875,2.96875,2.65625
718,-0.67333984,-0.059143066,0.7831421,-7.328125,3.890625,0.90625
719,-0.66845703,-0.038635254,0.77679443,-4.9375,2.984375,0.671875
720,-0.6418457,-0.04473877,0.777771,-3.625,2.046875,0.15625
721,-0.64941406,-0.051086426,0.77923584,-1.328125,-0.234375,-0.15625
722,-0.62231445,-0.05303955,0.7809448,1.453125,-1.609375,-0.34375
723,-0.6364746,-0.06524658,0.7662964,1.34375,-1.90625,-0.5
724,-0.6074219,-0.043029785,0.7601929,4.609375,-4.71875,-0.953125
725,-0.6604004,-0.07305908,0.7453003,9.578125,-7.328125,-0.4375
726,-0.65625,-0.05987549,0.7514038,19.140625,-11.65625,-1.828125
727,-0.7036133,-0.08087158,0.8016968,4.71875,-7.546875,-7.96875
728,-0.5883789,-0.11212158,0.7868042,-0.09375,-4.0625,-2.984375
729,-0.73339844,-0.12359619,0.789978,0.46875,-2.109375,0.515625
730,-0.7128906,-0.074523926,0.75823975,-0.03125,1.4375,-1.28125
731,-0.66845703,-0.12261963,0.76239014,-1.359375,2.96875,0.6875
732,-0.65771484,-0.13555908,0.7560425,-1.28125,2.390625,2.59375
733,-0.6738281,-0.11505127,0.72039795,1.25,1.5,2.203125
734,-0.6906738,-0.089660645,0.7211304,4.125,-2.84375,1.9375
735,-0.6977539,-0.10333252,0.7797241,3.8125,-6.25,-2.046875
736,-0.6286621,-0.11651611,0.77630615,-1.359375,-0.171875,-2.9375
737,-0.6772461,-0.089904785,0.7748413,-3.34375,-0.0625,-0.796875
738,-0.7067871,-0.058654785,0.7770386,-2.328125,2.328125,1.140625
739,-0.7102051,-0.101867676,0.7406616,-2.71875,1.921875,2.265625
740,-0.6660156,-0.11798096,0.70892334,2.078125,-1.34375,2.53125
741,-0.6767578,-0.11505127,0.7008667,4.59375,-5.171875,-2.09375
742,-0.6694336,-0.12628174,0.78460693,1.5625,-2.40625,-1.65625
743,-0.6804199,-0.109680176,0.762146,-0.09375,-0.0625,0.125
744,-0.68725586,-0.082092285,0.7953491,-0.375,2.984375,-2.078125
745,-0.70825195,-0.11895752,0.79071045,-4.25,4.296875,0.96875
746,-0.68188477,-0.14190674,0.78948975,-6.6875,4.671875,2.515625
747,-0.66796875,-0.12554932,0.75579834,-4.75,3.34375,1.625
748,-0.626709,-0.12017822,0.7941284,-5.421875,4.828125,0.859375
749,-0.640625,-0.11895752,0.7872925,-7.625,3.84375,2.96875
750,-0.6430664,-0.06744385,0.7843628,-5.9375,2.90625,2.3125
751,-0.67993164,-0.055236816,0.7699585,-6.25,1.34375,0.9375
752,-0.65966797,-0.05718994,0.76776123,-4.171875,1.59375,0.046875
753,-0.6437988,-0.059387207,0.7753296,-1.578125,-0.578125,-0.203125
754,-0.638916,-0.0569458,0.7694702,0.078125,-1.078125,-0.625
755,-0.6660156,-0.06036377,0.7723999,0.890625,-1.671875,-0.78125
756,-0.6220703,-0.05670166,0.75897217,1.953125,-1.984375,-1.515625
757,-0.6411133,-0.07159424,0.7719116,3.484375,-3.90625,-1.03125
758,-0.65356445,-0.08453369,0.7699585,7.234375,-6.78125,0.4375
759,-0.65112305,-0.097717285,0.7418823,9.015625,-5.5625,2.0625
