sample_no,accel_x,accel_y,accel_z,gyro_x,gyro_y,gyro_z
0,0.31323242,-0.07183838,-0.94976807,-0.765625,-0.5,-0.125
1,0.32104492,-0.07086182,-0.94610596,-0.40625,-1.046875,-0.234375
2,0.31567383,-0.06573486,-0.93951416,-0.5625,-1.03125,-0.203125
3,0.31225586,-0.07354736,-0.9378052,-0.4375,-1.34375,-0.140625
4,0.30615234,-0.07550049,-0.9212036,0.453125,-1.625,0.21875
5,0.31811523,-0.06842041,-0.9265747,3.640625,-2.828125,0.65625
6,0.3190918,-0.06304932,-0.94122314,4.203125,-4.046875,0.84375
7,0.3239746,-0.057678223,-0.95440674,3.609375,-8.71875,0.328125
8,0.3305664,-0.035217285,-0.9937134,-1.015625,-21.203125,-1.53125
9,0.4206543,-0.082336426,-0.88409424,-4.78125,-6.359375,-2.59375
10,0.3486328,-0.051330566,-0.86187744,0.9375,-2.15625,0.171875
11,0.37963867,-0.06011963,-0.9234009,1.71875,1.875,0.359375
12,0.3544922,-0.06036377,-0.88409424,3.640625,5.03125,0.671875
13,0.37182617,-0.059143066,-0.960022,1.65625,3.6875,0.84375
14,0.3503418,-0.026428223,-0.99591064,-0.265625,-4.046875,-0.234375
15,0.4013672,-0.03326416,-0.97076416,-10.203125,-11.859375,-3.421875
16,0.33911133,-0.09967041,-0.8550415,-2.1875,0.25,-1.3125
17,0.37768555,-0.059143066,-0.88409424,0.921875,3.171875,0.515625
18,0.35107422,-0.0569458,-0.9104614,4.578125,6.625,1.859375
19,0.3371582,-0.054260254,-0.9143677,4.078125,4.875,1.640625
20,0.37353516,-0.038635254,-0.9981079,0.0625,-4.390625,-0.0625
21,0.36816406,-0.04498291,-0.98638916,-6.015625,-10.34375,-2.578125
22,0.3942871,-0.07965088,-0.8880005,-6.265625,-2.5625,-3.15625
23,0.36010742,-0.06939697,-0.8501587,-0.09375,1.203125,0.109375
24,0.3642578,-0.06085205,-0.88116455,5.125,7.78125,2.203125
25,0.33764648,-0.049621582,-0.9602661,6.75,8.625,2.8125
26,0.36572266,-0.04888916,-1.0007935,2.8125,-2.1875,1.03125
27,0.36987305,-0.03765869,-0.9834595,-2.53125,-4.796875,-1.140625
28,0.37670898,-0.043518066,-0.9512329,-7.75,-10.125,-3.046875
29,0.34765625,-0.08453369,-0.8521118,-2.859375,-1.265625,-1.5
30,0.36669922,-0.054748535,-0.86016846,1.875,1.5,0.875
31,0.38208008,-0.050598145,-0.9468384,3.875,5.359375,1.9375
32,0.36767578,-0.04864502,-0.9534302,3.65625,2.375,1.671875
33,0.36157227,-0.050598145,-0.9380493,-1.875,4.53125,0.25
34,0.35302734,-0.050354004,-0.9429321,-7.28125,8.703125,-0.3125
35,0.32983398,-0.049621582,-0.911438,-6.203125,8.5625,-0.109375
36,0.31640625,-0.061828613,-0.9126587,-6.03125,11.078125,0.0625
37,0.31860352,-0.07208252,-0.9758911,-1.984375,8.15625,0.3125
38,0.3034668,-0.0725708,-0.9898071,0.53125,4.453125,0.40625
39,0.30029297,-0.06500244,-0.9595337,1.46875,2.859375,0.25
40,0.2861328,-0.06427002,-0.9529419,1.078125,2.875,0.015625
41,0.28295898,-0.06402588,-0.93927,1.296875,1.046875,0.03125
42,0.28466797,-0.059387207,-0.9534302,1.0625,-0.359375,-0.09375
43,0.29614258,-0.058410645,-0.9644165,-0.96875,-0.953125,-0.171875
44,0.27783203,-0.06549072,-0.9417114,0.40625,-4.28125,0.296875
45,0.2890625,-0.061340332,-0.9373169,2.09375,-8.40625,0.359375
46,0.29614258,-0.05621338,-0.99884033,2.953125,-12.96875,-0.078125
47,0.35961914,-0.041809082,-1.0029907,-3.953125,-19.125,-2.078125
48,0.33251953,-0.073791504,-0.87945557,-1.28125,-7.8125,-1.34375
49,0.36499023,-0.04937744,-0.9024048,-0.84375,-4.8125,-0.390625
50,0.37524414,-0.058654785,-0.9378052,1.921875,0.0625,0.40625
51,0.34057617,-0.05987549,-0.88360596,3.265625,2.796875,0.828125
52,0.3647461,-0.047912598,-0.9500122,1.375,-0.890625,0.390625
53,0.35717773,-0.03692627,-0.9631958,-1.796875,-4.5625,-0.671875
54,0.3864746,-0.054260254,-0.95635986,-6.0,-11.390625,-2.59375
55,0.3479004,-0.07647705,-0.8909302,-0.484375,-0.359375,-0.46875
56,0.37304688,-0.057922363,-0.8904419,2.125,1.1875,0.859375
57,0.38085938,-0.053771973,-0.92852783,4.109375,5.953125,1.328125
58,0.34570312,-0.057678223,-0.90045166,4.328125,5.203125,1.796875
59,0.35424805,-0.03717041,-0.93829346,1.828125,2.0,0.75
60,0.35864258,-0.039367676,-0.95098877,-0.65625,3.421875,-0.15625
61,0.3557129,-0.039855957,-0.96588135,0.421875,-2.6875,-0.390625
62,0.35546875,-0.036193848,-0.9439087,-1.109375,-8.40625,-0.609375
63,0.38354492,-0.047912598,-0.9324341,-4.78125,-6.234375,-1.59375
64,0.36865234,-0.05645752,-0.8880005,1.21875,-2.6875,0.203125
65,0.3791504,-0.04888916,-0.913147,1.25,3.5,0.71875
66,0.36523438,-0.03643799,-0.8977661,0.03125,7.15625,0.890625
67,0.34985352,-0.047668457,-0.90753174,-2.203125,6.28125,0.71875
68,0.3400879,-0.046691895,-0.9390259,-2.640625,8.046875,0.203125
69,0.35058594,-0.046447754,-0.98272705,-1.953125,2.953125,0.015625
70,0.34204102,-0.046936035,-0.9507446,-2.28125,3.09375,0.0625
71,0.33520508,-0.053527832,-0.94122314,-1.78125,3.3125,0.109375
72,0.3190918,-0.054260254,-0.93096924,-1.4375,5.53125,0.03125
73,0.3137207,-0.055236816,-0.9360962,-0.296875,3.84375,0.15625
74,0.30566406,-0.0569458,-0.9187622,0.0,2.90625,-0.171875
75,0.2993164,-0.05718994,-0.9541626,-0.046875,0.21875,-0.265625
76,0.30297852,-0.050109863,-0.95269775,-0.6875,-1.90625,-0.21875
77,0.30566406,-0.05645752,-0.940979,-0.328125,-2.109375,0.015625
78,0.31176758,-0.04840088,-0.9417114,2.171875,-5.65625,0.53125
79,0.32202148,-0.05230713,-0.9500122,1.421875,-7.71875,0.03125
80,0.35327148,-0.04547119,-0.9714966,-1.734375,-15.734375,-1.453125
81,0.34765625,-0.061584473,-0.8843384,-1.6875,-4.328125,-1.421875
82,0.35791016,-0.046936035,-0.90704346,0.6875,-1.1875,0.046875
83,0.37231445,-0.042541504,-0.95269775,1.390625,0.9375,0.53125
84,0.34692383,-0.061828613,-0.9404907,2.21875,1.703125,0.875
85,0.34448242,-0.0335083,-0.92559814,0.21875,2.71875,0.25
86,0.34350586,-0.038879395,-0.96759033,-0.953125,-3.109375,-0.453125
87,0.37304688,-0.04449463,-0.9644165,-5.765625,-7.578125,-2.078125
88,0.35058594,-0.06793213,-0.8633423,-0.921875,-0.671875,-0.515625
89,0.35107422,-0.042053223,-0.89971924,1.5,1.4375,0.765625
90,0.35668945,-0.034729004,-0.9522095,2.609375,4.203125,1.34375
91,0.33911133,-0.03668213,-0.9146118,2.015625,4.0,1.125
92,0.33911133,-0.045715332,-0.94976807,0.078125,3.203125,0.125
93,0.33398438,-0.038391113,-0.9668579,-1.71875,-1.421875,-0.609375
94,0.32836914,-0.035705566,-0.94073486,-1.546875,-5.09375,-0.828125
95,0.35913086,-0.039855957,-0.944397,-3.609375,-5.3125,-1.078125
96,0.34155273,-0.05328369,-0.90093994,1.078125,-0.4375,0.4375
97,0.35327148,-0.042785645,-0.9336548,0.609375,1.140625,0.609375
98,0.34960938,-0.049865723,-0.93707275,-1.171875,3.59375,0.296875
99,0.33642578,-0.053527832,-0.91729736,-2.59375,5.9375,0.21875
100,0.33154297,-0.046936035,-0.9331665,-3.75,6.296875,-0.125
101,0.32885742,-0.054748535,-0.9692993,-3.5,5.109375,-0.296875
102,0.3215332,-0.055725098,-0.9561157,-1.546875,3.4375,-0.015625
103,0.3166504,-0.05670166,-0.9434204,0.140625,3.90625,0.203125
104,0.30981445,-0.06036377,-0.95196533,0.15625,4.046875,0.234375
105,0.3071289,-0.05670166,-0.94610596,-0.125,3.578125,0.140625
106,0.29614258,-0.062805176,-0.94854736,-0.390625,2.3125,-0.21875
107,0.28710938,-0.061828613,-0.95758057,-0.421875,-0.015625,-0.390625
108,0.28515625,-0.057922363,-0.9368286,-0.0625,-1.765625,-0.046875
109,0.2836914,-0.0569458,-0.93536377,-0.40625,-3.609375,-0.03125
110,0.29736328,-0.06036377,-0.9468384,0.234375,-6.734375,0.125
111,0.3022461,-0.058898926,-0.97735596,2.046875,-11.5,0.015625
112,0.35498047,-0.043029785,-0.97784424,0.21875,-13.828125,-1.25
113,0.34692383,-0.06036377,-0.89727783,0.171875,-4.8125,-0.84375
114,0.3557129,-0.045715332,-0.925354,0.015625,-2.484375,-0.15625
115,0.36083984,-0.049865723,-0.95562744,0.765625,0.921875,0.1875
116,0.3330078,-0.051086426,-0.9319458,1.796875,2.09375,0.8125
117,0.33789062,-0.0413208,-0.9397583,0.65625,2.578125,0.46875
118,0.3322754,-0.04425049,-0.9439087,1.453125,-2.296875,-0.109375
119,0.32958984,-0.03765869,-0.9290161,-0.28125,-6.21875,-0.71875
120,0.36669922,-0.055480957,-0.94122314,-1.609375,-4.15625,-1.234375
121,0.33984375,-0.046203613,-0.8855591,2.265625,-2.0625,0.5625
122,0.36669922,-0.035461426,-0.9517212,0.859375,0.234375,0.5
123,0.3461914,-0.03765869,-0.92926025,0.390625,1.96875,0.46875
124,0.3413086,-0.04156494,-0.93707275,0.015625,1.90625,0.234375
125,0.34716797,-0.0413208,-0.94976807,1.28125,-2.703125,0.171875
126,0.34350586,-0.032043457,-0.9373169,-0.203125,-6.984375,-0.640625
127,0.3942871,-0.043029785,-0.9649048,-4.90625,-8.0,-1.859375
128,0.3552246,-0.046936035,-0.878479,0.734375,-2.671875,-0.1875
129,0.37451172,-0.04425049,-0.9019165,0.96875,1.09375,0.609375
130,0.3659668,-0.04107666,-0.92022705,0.9375,4.453125,1.03125
131,0.34448242,-0.050109863,-0.9089966,-2.265625,7.09375,0.8125
132,0.359375,-0.039123535,-0.9673462,-2.6875,5.21875,0.4375
133,0.3461914,-0.040100098,-0.9343872,-3.140625,8.84375,0.046875
134,0.31079102,-0.05206299,-0.9570923,-4.96875,8.875,-0.15625
135,0.30908203,-0.054992676,-0.94610596,-2.875,7.671875,0.125
136,0.3088379,-0.05303955,-0.96295166,-1.125,4.96875,0.109375
137,0.30273438,-0.06524658,-0.96588135,-0.6875,2.8125,0.125
138,0.28955078,-0.059143066,-0.9429321,0.09375,1.109375,-0.078125
139,0.28198242,-0.059387207,-0.9470825,0.015625,0.375,-0.171875
140,0.29248047,-0.047424316,-0.95098877,0.203125,-0.234375,-0.140625
141,0.29589844,-0.047912598,-0.9590454,-0.296875,-1.203125,-0.125
142,0.28808594,-0.054260254,-0.9590454,-1.046875,-1.984375,-0.046875
143,0.29589844,-0.059631348,-0.95806885,0.0625,-7.03125,0.296875
144,0.30517578,-0.049865723,-0.9685669,3.078125,-12.984375,0.0625
145,0.35595703,-0.043762207,-0.94073486,-2.265625,-11.59375,-1.734375
146,0.32592773,-0.0647583,-0.9038696,-1.375,-4.71875,-1.09375
147,0.34936523,-0.050598145,-0.913147,-0.34375,-3.296875,-0.203125
148,0.36572266,-0.049865723,-0.9607544,-0.84375,-1.1875,-0.125
149,0.3474121,-0.06890869,-0.94659424,-0.578125,1.46875,0.03125
150,0.33984375,-0.057434082,-0.9338989,0.765625,-0.171875,0.125
151,0.33569336,-0.055236816,-0.9451294,-1.046875,-3.9375,-0.734375
152,0.37646484,-0.06060791,-0.956604,-3.25,-7.28125,-1.546875
153,0.33251953,-0.07354736,-0.8640747,1.4375,-0.828125,-0.046875
154,0.34765625,-0.05987549,-0.9055786,2.390625,0.71875,0.71875
155,0.3544922,-0.050842285,-0.9336548,3.265625,2.703125,1.171875
156,0.33642578,-0.04815674,-0.9180298,2.890625,2.234375,1.328125
157,0.3544922,-0.039123535,-0.97979736,1.265625,-0.890625,0.21875
158,0.35180664,-0.04498291,-0.9507446,-2.0625,-6.40625,-0.953125
159,0.35742188,-0.05621338,-0.9194946,-3.515625,-5.46875,-1.65625
160,0.36523438,-0.053771973,-0.90338135,-1.96875,-3.65625,-0.6875
161,0.36743164,-0.05206299,-0.9089966,1.75,0.421875,0.5
162,0.35351562,-0.051818848,-0.9048462,1.21875,3.5625,0.78125
163,0.34326172,-0.05645752,-0.88238525,-0.0625,7.9375,0.859375
164,0.34545898,-0.04107666,-0.944397,-4.59375,9.796875,0.484375
165,0.3330078,-0.049621582,-0.973938,-5.140625,8.734375,0.09375
166,0.31713867,-0.059631348,-0.9734497,-3.8125,5.65625,-0.15625
167,0.3137207,-0.07086182,-0.960022,-1.46875,3.828125,-0.09375
168,0.3017578,-0.059143066,-0.9451294,-0.046875,3.859375,0.125
169,0.3034668,-0.059387207,-0.9541626,0.484375,2.015625,0.015625
170,0.30004883,-0.06719971,-0.9299927,0.703125,2.0,-0.015625
171,0.28125,-0.05718994,-0.9404907,0.578125,1.453125,-0.109375
172,0.2902832,-0.059387207,-0.9458618,0.203125,-0.53125,-0.15625
173,0.3017578,-0.05328369,-0.9561157,0.03125,-1.984375,0.09375
174,0.28271484,-0.05670166,-0.9248657,1.953125,-6.078125,0.328125
175,0.30615234,-0.04937744,-0.99176025,1.5625,-12.09375,0.234375
176,0.35424805,-0.046691895,-0.9812622,-3.40625,-14.609375,-1.640625
177,0.33154297,-0.06793213,-0.90826416,-0.859375,-7.3125,-1.1875
178,0.35351562,-0.059631348,-0.90411377,0.015625,-2.296875,-0.109375
179,0.3635254,-0.062805176,-0.9524536,1.84375,2.078125,0.65625
180,0.33422852,-0.053527832,-0.9116821,3.921875,4.203125,1.59375
181,0.3322754,-0.03668213,-0.93048096,3.0,3.453125,1.25
182,0.33276367,-0.039123535,-0.9649048,-0.328125,-3.15625,-0.25
183,0.36621094,-0.05328369,-0.95318604,-5.59375,-5.609375,-2.09375
184,0.33007812,-0.057678223,-0.8579712,-0.828125,-1.765625,-0.828125
185,0.34521484,-0.04425049,-0.92926025,0.65625,1.484375,0.515625
186,0.34936523,-0.047912598,-0.944397,2.734375,3.015625,1.40625
187,0.33544922,-0.049865723,-0.94610596,2.421875,1.515625,1.09375
188,0.34277344,-0.038391113,-0.97906494,-0.34375,-4.25,-0.25
189,0.36132812,-0.042785645,-0.96881104,-5.890625,-10.046875,-2.46875
190,0.35083008,-0.06011963,-0.8635864,-3.15625,-2.390625,-1.671875
191,0.35253906,-0.053527832,-0.87945557,0.625,1.21875,0.359375
192,0.35717773,-0.043029785,-0.925354,2.484375,4.90625,1.5625
193,0.34643555,-0.053527832,-0.9324341,-0.171875,8.828125,1.296875
194,0.34301758,-0.04888916,-0.960022,-3.734375,8.5625,0.34375
195,0.32128906,-0.046447754,-0.98101807,-4.859375,7.109375,-0.359375
196,0.31030273,-0.05279541,-0.93951416,-3.875,4.328125,-0.390625
197,0.29907227,-0.061340332,-0.92193604,-3.59375,5.0625,-0.34375
198,0.2932129,-0.065979004,-0.95684814,-1.1875,4.25,0.046875
199,0.29760742,-0.06500244,-0.9717407,1.546875,2.171875,0.28125
200,0.29296875,-0.06573486,-0.9585571,1.390625,0.375,0.21875
201,0.28930664,-0.06500244,-0.94415283,0.65625,-0.171875,-0.09375
202,0.28442383,-0.062805176,-0.9529419,-0.125,-1.296875,-0.1875
203,0.2878418,-0.062072754,-0.9558716,-1.34375,-2.609375,-0.359375
204,0.28442383,-0.06402588,-0.9373169,1.046875,-6.5625,0.0625
205,0.29418945,-0.05670166,-0.95318604,2.265625,-14.75,-0.0625
206,0.3569336,-0.057678223,-0.9685669,-3.15625,-14.265625,-1.671875
207,0.33129883,-0.07598877,-0.87945557,-1.078125,-7.609375,-0.78125
208,0.36083984,-0.054260254,-0.94122314,-0.984375,-1.546875,-0.25
209,0.36450195,-0.06451416,-0.94854736,1.78125,2.421875,0.46875
210,0.32470703,-0.053771973,-0.9121704,3.328125,2.484375,1.171875
211,0.3317871,-0.047668457,-0.96295166,2.609375,2.03125,0.703125
212,0.32910156,-0.04473877,-0.94366455,-0.453125,-5.75,-0.59375
213,0.36816406,-0.065979004,-0.9463501,-4.09375,-3.796875,-1.703125
214,0.33374023,-0.05718994,-0.8616333,-0.140625,-1.390625,-0.234375
215,0.3557129,-0.053771973,-0.9343872,1.265625,1.859375,0.625
216,0.35058594,-0.04888916,-0.92510986,2.90625,3.828125,1.40625
217,0.34204102,-0.045715332,-0.95269775,2.84375,2.046875,1.265625
218,0.35327148,-0.039123535,-0.98223877,-0.140625,-1.5,-0.125
219,0.3330078,-0.038391113,-0.94244385,-2.984375,-6.84375,-1.28125
220,0.35791016,-0.050842285,-0.9209595,-4.890625,-4.4375,-1.90625
221,0.33569336,-0.062316895,-0.8723755,0.640625,-1.453125,0.09375
222,0.3642578,-0.054748535,-0.9109497,1.8125,3.25,0.890625
223,0.3515625,-0.053771973,-0.9307251,0.734375,6.5625,1.203125
224,0.33544922,-0.057922363,-0.94659424,-2.984375,8.515625,0.609375
225,0.32739258,-0.055725098,-0.96588135,-5.453125,8.953125,-0.234375
226,0.31030273,-0.05328369,-0.96173096,-4.859375,7.65625,-0.453125
227,0.30566406,-0.06524658,-0.95196533,-2.59375,6.5625,-0.265625
228,0.2890625,-0.070129395,-0.95806885,-0.5625,5.078125,0.0
229,0.2841797,-0.06719971,-0.95635986,1.265625,3.5625,0.03125
230,0.28686523,-0.06842041,-0.9602661,0.921875,0.796875,0.0625
231,0.2824707,-0.066223145,-0.9463501,0.40625,-0.71875,0.046875
232,0.2770996,-0.061584473,-0.94317627,-0.046875,-2.0,-0.03125
233,0.29077148,-0.06500244,-0.9702759,-2.078125,-2.4375,-0.375
234,0.29003906,-0.06768799,-0.9546509,-0.90625,-4.25,-0.078125
235,0.2836914,-0.059387207,-0.9492798,2.390625,-7.78125,0.34375
236,0.2980957,-0.05255127,-0.958313,4.546875,-16.921875,0.203125
237,0.3659668,-0.05328369,-0.93951416,-4.296875,-13.578125,-2.375
238,0.33032227,-0.07281494,-0.87384033,-0.921875,-3.6875,-0.84375
239,0.35546875,-0.054260254,-0.90997314,-0.25,-0.8125,-0.078125
240,0.3540039,-0.06060791,-0.9390259,2.078125,2.0625,0.75
241,0.32592773,-0.059631348,-0.90460205,1.59375,4.71875,0.609375
242,0.34472656,-0.059143066,-0.9524536,1.359375,2.484375,0.6875
243,0.3425293,-0.051818848,-0.9871216,0.40625,-1.984375,-0.125
244,0.3371582,-0.047668457,-0.96710205,-1.15625,-7.4375,-0.734375
245,0.36254883,-0.058654785,-0.93536377,-4.015625,-7.125,-1.578125
246,0.33251953,-0.062805176,-0.8501587,-0.4375,-2.265625,-0.125
247,0.35351562,-0.05670166,-0.9043579,1.640625,2.25,0.796875
248,0.35888672,-0.04888916,-0.94854736,2.6875,3.5,0.859375
249,0.3408203,-0.055480957,-0.9522095,2.328125,1.421875,0.9375
250,0.35351562,-0.04498291,-0.9546509,-0.234375,-0.96875,-0.140625
251,0.35009766,-0.046203613,-0.94903564,-1.140625,-3.0,-0.609375
252,0.34179688,-0.051574707,-0.9326782,-3.0625,-6.109375,-0.890625
253,0.3630371,-0.070617676,-0.9104614,-1.25,-1.125,-0.8125
254,0.3540039,-0.059631348,-0.8821411,2.578125,1.3125,0.90625
255,0.36376953,-0.050109863,-0.95806885,1.0625,3.65625,0.78125
256,0.35009766,-0.058410645,-0.9053345,-0.9375,6.390625,0.5625
257,0.34277344,-0.04864502,-0.95269775,-3.546875,7.203125,0.109375
258,0.31323242,-0.04888916,-0.93463135,-3.25,7.140625,0.03125
259,0.3244629,-0.05718994,-0.95635986,-4.046875,5.890625,-0.25
260,0.31689453,-0.061340332,-0.9463501,-1.375,4.984375,0.046875
261,0.3088379,-0.06866455,-0.95025635,-0.296875,5.03125,0.0625
262,0.29589844,-0.06573486,-0.95318604,0.265625,3.921875,0.21875
263,0.28930664,-0.06964111,-0.9578247,0.46875,0.140625,-0.03125
264,0.28295898,-0.062072754,-0.9368286,0.34375,-1.4375,-0.078125
265,0.2890625,-0.0647583,-0.9463501,-0.203125,-2.828125,-0.171875
266,0.29296875,-0.058654785,-0.94366455,-0.265625,-3.765625,-0.140625
267,0.30615234,-0.065979004,-0.97906494,0.375,-5.46875,0.109375
268,0.3059082,-0.06378174,-0.9924927,5.0,-11.609375,0.140625
269,0.34375,-0.04449463,-0.9956665,0.4375,-19.015625,-1.421875
270,0.38110352,-0.06744385,-0.92388916,-5.859375,-9.671875,-2.609375
271,0.34594727,-0.06964111,-0.8599243,-1.5,-7.046875,-0.71875
272,0.3671875,-0.06549072,-0.8867798,1.828125,-0.078125,0.453125
273,0.3581543,-0.054016113,-0.9014282,3.765625,4.953125,1.3125
274,0.33764648,-0.05303955,-0.8882446,2.71875,5.171875,1.375
275,0.35131836,-0.0413208,-0.9907837,1.15625,0.515625,0.390625
276,0.34472656,-0.049621582,-0.95147705,-1.21875,-2.46875,-0.53125
277,0.375,-0.051818848,-0.94854736,-4.3125,-5.390625,-1.65625
278,0.3544922,-0.062561035,-0.90045166,0.21875,0.28125,-0.125
279,0.3564453,-0.047180176,-0.89727783,1.53125,0.890625,0.6875
280,0.36010742,-0.051330566,-0.9319458,2.734375,3.09375,1.125
281,0.34106445,-0.05230713,-0.94073486,2.625,1.09375,1.015625
282,0.35913086,-0.034484863,-0.9714966,-1.421875,-2.328125,-0.546875
283,0.3552246,-0.043029785,-0.97003174,-2.453125,-4.109375,-1.125
284,0.35742188,-0.03692627,-0.90704346,-3.546875,-8.65625,-1.765625
285,0.37719727,-0.050354004,-0.9026489,-0.28125,-1.453125,-0.453125
286,0.36865234,-0.055480957,-0.897522,1.59375,0.15625,0.859375
287,0.37329102,-0.046691895,-0.92803955,0.90625,3.78125,0.9375
288,0.35302734,-0.0569458,-0.90460205,-3.140625,6.953125,0.296875
289,0.33862305,-0.05255127,-0.9483032,-5.96875,7.09375,-0.171875
290,0.33813477,-0.06036377,-0.9607544,-5.109375,5.984375,-0.46875
291,0.33032227,-0.0713501,-0.93756104,-3.796875,5.03125,-0.125
292,0.32763672,-0.066223145,-0.93927,-1.765625,4.25,0.265625
293,0.31982422,-0.066223145,-0.958313,0.3125,3.046875,0.40625
294,0.3215332,-0.07696533,-0.9558716,0.734375,2.34375,0.328125
295,0.31420898,-0.06768799,-0.9553833,0.921875,1.640625,0.125
296,0.29833984,-0.0647583,-0.9216919,1.0625,1.28125,0.171875
297,0.30493164,-0.06768799,-0.93951416,0.328125,0.109375,-0.078125
298,0.3010254,-0.062072754,-0.93878174,0.5625,-0.765625,-0.234375
299,0.30639648,-0.058898926,-0.94073486,0.984375,-1.34375,-0.171875
300,0.31054688,-0.058654785,-0.9656372,1.546875,-2.15625,0.109375
301,0.30493164,-0.057922363,-0.92437744,2.703125,-5.25,0.59375
302,0.3227539,-0.050109863,-0.9541626,2.890625,-5.796875,0.375
303,0.31420898,-0.04840088,-0.95513916,3.46875,-8.609375,0.015625
304,0.36328125,-0.042053223,-0.96588135,-2.546875,-8.53125,-1.578125
305,0.3425293,-0.053527832,-0.8826294,-1.671875,-2.546875,-0.921875
306,0.3371582,-0.043518066,-0.909729,0.09375,-0.96875,-0.0625
307,0.36035156,-0.051818848,-0.95562744,1.640625,-0.28125,0.390625
308,0.34887695,-0.04937744,-0.94537354,2.859375,-0.046875,0.734375
309,0.34204102,-0.03643799,-0.9495239,1.296875,0.125,0.15625
310,0.34155273,-0.04425049,-0.95928955,0.515625,-1.4375,-0.078125
311,0.34814453,-0.03717041,-0.94415283,-1.421875,-4.359375,-0.828125
312,0.35498047,-0.049865723,-0.9194946,-0.484375,-0.875,-0.546875
313,0.3383789,-0.045959473,-0.90093994,1.265625,-0.609375,0.484375
314,0.36108398,-0.04498291,-0.9536743,0.953125,0.796875,0.609375
315,0.33764648,-0.04107666,-0.9319458,1.359375,0.328125,0.734375
316,0.35253906,-0.034240723,-0.94244385,0.59375,-2.0625,-0.171875
317,0.36010742,-0.031066895,-0.94537354,-2.765625,-2.734375,-1.09375
318,0.359375,-0.046447754,-0.92681885,-2.296875,0.578125,-0.703125
319,0.34155273,-0.043029785,-0.9043579,0.203125,1.34375,0.5
320,0.3449707,-0.04034424,-0.9143677,-0.609375,2.359375,0.703125
321,0.34375,-0.05303955,-0.9483032,-3.5,4.203125,0.1875
322,0.33862305,-0.04864502,-0.94903564,-3.3125,4.09375,-0.03125
323,0.3334961,-0.04815674,-0.9492798,-4.390625,4.140625,-0.359375
324,0.31933594,-0.054748535,-0.9451294,-3.984375,2.9375,-0.390625
325,0.32958984,-0.06378174,-0.93048096,-1.421875,1.390625,0.1875
326,0.31982422,-0.058898926,-0.9356079,-0.296875,3.015625,0.21875
327,0.3149414,-0.05718994,-0.95196533,-0.359375,3.734375,0.328125
328,0.3166504,-0.062316895,-0.956604,-0.84375,2.578125,0.03125
329,0.30322266,-0.066711426,-0.95440674,-1.0625,0.40625,-0.21875
330,0.30200195,-0.061340332,-0.94317627,-1.375,-1.015625,-0.484375
331,0.3034668,-0.0569458,-0.940979,-1.453125,-1.640625,-0.390625
332,0.30664062,-0.066467285,-0.9500122,-1.015625,-2.09375,-0.34375
333,0.31152344,-0.06451416,-0.9314575,1.34375,-4.359375,0.15625
334,0.3256836,-0.061340332,-0.972229,1.90625,-6.4375,0.171875
335,0.33422852,-0.05621338,-0.97442627,0.953125,-9.84375,-0.375
336,0.36669922,-0.055480957,-1.0032349,-3.71875,-11.6875,-1.84375
337,0.3581543,-0.065979004,-0.9092407,-3.0,-8.6875,-1.75
338,0.35229492,-0.058898926,-0.84259033,-0.390625,-4.578125,-0.203125
339,0.36010742,-0.06524658,-0.8948364,0.953125,0.828125,0.4375
340,0.36669922,-0.06573486,-0.9151001,2.5625,2.90625,1.0
341,0.35986328,-0.047668457,-0.9541626,0.875,2.546875,0.59375
342,0.36328125,-0.054260254,-0.9607544,-2.46875,-1.484375,-0.796875
343,0.37280273,-0.06744385,-0.9338989,-3.71875,-1.140625,-1.4375
344,0.34033203,-0.07550049,-0.8809204,-0.953125,1.359375,-0.5
345,0.34716797,-0.06793213,-0.9067993,1.515625,1.8125,0.625
346,0.34350586,-0.06915283,-0.9258423,2.140625,2.5625,0.953125
347,0.34838867,-0.0635376,-0.95977783,1.765625,0.6875,0.8125
348,0.35327148,-0.06817627,-0.9602661,-1.578125,-3.125,-0.28125
349,0.3540039,-0.066711426,-0.960022,-4.9375,-4.765625,-1.46875
350,0.37280273,-0.07550049,-0.92559814,-5.046875,-2.828125,-1.8125
351,0.34179688,-0.07672119,-0.8796997,-1.375,-1.59375,-0.3125
352,0.3479004,-0.07330322,-0.8821411,2.09375,1.4375,0.6875
353,0.35327148,-0.06915283,-0.89971924,1.265625,4.609375,1.0
354,0.33911133,-0.073791504,-0.91070557,-2.734375,7.703125,0.578125
355,0.33911133,-0.07525635,-0.9812622,-4.90625,7.515625,0.015625
356,0.34204102,-0.077697754,-0.986145,-4.234375,3.578125,-0.359375
357,0.3256836,-0.089904785,-0.92803955,-2.515625,1.828125,0.046875
358,0.32055664,-0.08648682,-0.92926025,-1.625,1.78125,0.0625
359,0.31323242,-0.085754395,-0.9385376,-0.796875,2.203125,0.078125
360,0.31054688,-0.08258057,-0.93951416,-0.640625,2.0625,0.015625
361,0.30981445,-0.08746338,-0.9368286,-0.265625,1.875,-0.21875
362,0.30541992,-0.09136963,-0.94659424,-0.53125,0.546875,-0.21875
363,0.31152344,-0.09259033,-0.940979,0.03125,-1.328125,-0.171875
364,0.3059082,-0.08428955,-0.9326782,0.34375,-1.59375,0.125
365,0.31152344,-0.085510254,-0.9468384,0.75,-1.265625,0.0625
366,0.31884766,-0.08795166,-0.95758057,0.6875,-0.796875,0.140625
367,0.31396484,-0.08917236,-0.9517212,1.5,-1.390625,0.1875
368,0.30737305,-0.082336426,-0.9385376,3.0,-4.515625,0.515625
369,0.3178711,-0.078430176,-0.9512329,3.046875,-6.984375,0.40625
370,0.31933594,-0.07330322,-0.9246216,1.0625,-12.875,-0.484375
371,0.3791504,-0.082336426,-0.911438,-0.515625,-8.71875,-1.0
372,0.33520508,-0.059143066,-0.90167236,1.890625,-1.578125,0.6875
373,0.3696289,-0.06964111,-0.95391846,-0.6875,-0.75,0.109375
374,0.3605957,-0.0725708,-0.9126587,-0.0625,1.34375,0.171875
375,0.36083984,-0.07501221,-0.9324341,0.890625,0.53125,0.484375
376,0.35595703,-0.066223145,-0.9522095,0.84375,-1.09375,0.171875
377,0.34277344,-0.06524658,-0.9168091,-0.34375,-3.6875,-0.375
378,0.35888672,-0.06402588,-0.94317627,-2.28125,-5.59375,-0.75
379,0.3605957,-0.073791504,-0.90875244,-0.421875,0.71875,-0.25
380,0.3557129,-0.074035645,-0.8982544,0.96875,0.921875,0.625
381,0.3725586,-0.07354736,-0.9385376,0.46875,3.21875,0.59375
382,0.35205078,-0.06524658,-0.9434204,0.671875,2.015625,0.34375
383,0.35009766,-0.06793213,-0.92974854,0.625,0.625,0.125
384,0.3461914,-0.062805176,-0.95562744,-0.421875,0.75,-0.125
385,0.34448242,-0.05206299,-0.9258423,-0.71875,-2.53125,-0.265625
386,0.3564453,-0.07525635,-0.94732666,-2.59375,-1.875,-0.625
387,0.3552246,-0.07086182,-0.9036255,0.25,-0.4375,0.28125
388,0.3564453,-0.06500244,-0.93414307,0.0,1.71875,0.328125
389,0.34765625,-0.07940674,-0.9295044,-1.890625,4.59375,0.109375
390,0.3359375,-0.074279785,-0.91534424,-3.359375,6.34375,-0.09375
391,0.3347168,-0.06695557,-0.9536743,-4.28125,5.46875,-0.40625
392,0.3251953,-0.074523926,-0.94854736,-3.890625,3.640625,-0.40625
393,0.31567383,-0.08111572,-0.95098877,-2.53125,3.28125,-0.234375
394,0.31640625,-0.093322754,-0.9512329,-0.84375,2.0,0.03125
395,0.31298828,-0.09161377,-0.9439087,-0.03125,2.015625,0.21875
396,0.30737305,-0.08868408,-0.94244385,0.078125,1.125,0.078125
397,0.30249023,-0.08258057,-0.93585205,-0.125,0.078125,-0.171875
398,0.30786133,-0.0869751,-0.94122314,-0.515625,-0.53125,-0.25
399,0.3022461,-0.08746338,-0.9385376,-0.453125,-1.015625,-0.1875
400,0.3125,-0.081848145,-0.9553833,-0.0625,-1.59375,0.109375
401,0.3095703,-0.085998535,-0.923645,1.859375,-2.84375,0.359375
402,0.3251953,-0.08331299,-0.96417236,3.4375,-4.46875,0.734375
403,0.30664062,-0.07330322,-0.9661255,3.828125,-10.3125,0.296875
404,0.3774414,-0.07281494,-0.9639282,-3.453125,-11.1875,-1.765625
405,0.33325195,-0.081604004,-0.8777466,-0.9375,-4.046875,-0.65625
406,0.34985352,-0.07989502,-0.90948486,-0.59375,-1.65625,-0.078125
407,0.36279297,-0.070617676,-0.94976807,1.171875,2.015625,0.484375
408,0.3371582,-0.07965088,-0.9089966,2.078125,1.71875,0.90625
409,0.35107422,-0.062561035,-0.9656372,1.75,2.171875,0.4375
410,0.33129883,-0.05670166,-0.9614868,-0.078125,-2.640625,-0.34375
411,0.36694336,-0.06402588,-0.9602661,-5.0,-4.90625,-1.75
412,0.34228516,-0.081848145,-0.87457275,-1.625,-0.4375,-0.53125
413,0.34887695,-0.07354736,-0.913147,-0.46875,1.5,0.140625
414,0.35131836,-0.078430176,-0.9451294,2.234375,3.1875,0.78125
415,0.33032227,-0.07598877,-0.9248657,2.0625,3.109375,0.953125
416,0.33813477,-0.058410645,-0.9793091,0.578125,-1.65625,0.34375
417,0.34887695,-0.05596924,-0.95635986,-1.9375,-5.25,-0.96875
418,0.3527832,-0.06793213,-0.9277954,-5.59375,-6.3125,-1.53125
419,0.34545898,-0.08135986,-0.9031372,-4.109375,-1.046875,-0.65625
420,0.35986328,-0.08306885,-0.92559814,-0.90625,0.734375,0.34375
421,0.34887695,-0.07891846,-0.91241455,2.1875,3.0625,0.75
422,0.34985352,-0.081848145,-0.91241455,-0.625,4.640625,0.125
423,0.34545898,-0.074523926,-0.9368286,-1.9375,6.140625,0.125
424,0.32543945,-0.07525635,-0.956604,-3.65625,5.1875,0.015625
425,0.32592773,-0.0803833,-0.9397583,-2.671875,3.5625,-0.109375
426,0.3232422,-0.09063721,-0.9507446,-1.453125,3.125,-0.03125
427,0.32202148,-0.090148926,-0.9607544,-0.578125,1.03125,0.15625
428,0.31567383,-0.089416504,-0.9495239,-0.453125,0.859375,-0.046875
429,0.31274414,-0.08673096,-0.9351196,0.0,-0.09375,0.109375
430,0.31152344,-0.08502197,-0.93341064,0.0,-0.46875,-0.078125
431,0.30859375,-0.08258057,-0.9307251,0.109375,-1.046875,-0.078125
432,0.31396484,-0.08917236,-0.9536743,0.265625,-1.40625,0.078125
433,0.31054688,-0.090148926,-0.9324341,0.875,-2.171875,0.09375
434,0.3166504,-0.089904785,-0.9458618,2.6875,-3.359375,0.40625
435,0.3190918,-0.07623291,-0.9661255,3.359375,-9.3125,0.15625
436,0.36669922,-0.07281494,-0.9771118,-3.671875,-11.28125,-1.515625
437,0.33007812,-0.09063721,-0.8977661,-1.15625,-4.453125,-0.75
438,0.34643555,-0.078430176,-0.8904419,-0.1875,-2.28125,0.046875
439,0.35546875,-0.07159424,-0.9089966,1.96875,0.984375,0.59375
440,0.34765625,-0.07867432,-0.9155884,2.703125,0.828125,0.890625
441,0.35498047,-0.06549072,-0.94903564,2.171875,0.5,0.375
442,0.3486328,-0.07110596,-0.9627075,-0.078125,-2.078125,-0.203125
443,0.36743164,-0.074279785,-0.96099854,-2.75,-4.9375,-1.140625
444,0.34545898,-0.08135986,-0.9065552,-1.90625,-1.359375,-0.640625
445,0.36035156,-0.07598877,-0.9089966,-1.171875,-1.78125,0.15625
446,0.3544922,-0.08135986,-0.9109497,1.4375,1.21875,0.671875
447,0.3557129,-0.06451416,-0.93048096,2.3125,-1.34375,0.71875
448,0.36010742,-0.066711426,-0.96539307,-0.953125,-3.546875,-0.484375
449,0.37402344,-0.0713501,-0.92974854,-1.640625,-4.65625,-1.109375
450,0.36791992,-0.07672119,-0.9126587,-0.171875,0.046875,-0.34375
451,0.35595703,-0.07281494,-0.8933716,1.671875,0.8125,0.625
452,0.36108398,-0.06695557,-0.90704346,-0.359375,4.625,0.640625
453,0.3466797,-0.08648682,-0.9229126,-2.234375,5.75,0.34375
454,0.35546875,-0.06402588,-0.9570923,-2.90625,6.40625,0.03125
455,0.33544922,-0.066223145,-0.9356079,-3.765625,6.875,-0.21875
456,0.33129883,-0.08404541,-0.944397,-2.9375,6.28125,-0.171875
457,0.31689453,-0.08380127,-0.95928955,-1.671875,4.296875,0.03125
458,0.3083496,-0.08721924,-0.94854736,-0.296875,3.71875,0.09375
459,0.31152344,-0.086242676,-0.956604,0.546875,1.296875,0.15625
460,0.30859375,-0.081848145,-0.94000244,1.140625,-0.515625,0.109375
461,0.30615234,-0.08013916,-0.928772,0.84375,-1.171875,0.140625
462,0.31103516,-0.07647705,-0.9456177,-0.203125,-0.9375,-0.078125
463,0.30639648,-0.07965088,-0.9299927,1.265625,-2.265625,0.296875
464,0.31079102,-0.074035645,-0.95391846,2.953125,-4.65625,0.265625
465,0.31713867,-0.06793213,-0.9536743,4.3125,-10.875,0.140625
466,0.38110352,-0.06768799,-0.9841919,-4.515625,-13.265625,-1.90625
467,0.35180664,-0.09210205,-0.90631104,-2.0,-4.90625,-1.09375
468,0.3557129,-0.07574463,-0.8916626,-0.265625,-1.453125,0.03125
469,0.34960938,-0.0803833,-0.91607666,2.125,1.4375,0.828125
470,0.36108398,-0.07330322,-0.92803955,2.3125,1.75,0.796875
471,0.34375,-0.06866455,-0.9324341,1.71875,0.9375,0.15625
472,0.34765625,-0.0647583,-0.9397583,-1.640625,-3.109375,-0.53125
473,0.37036133,-0.07867432,-0.9529419,-3.125,-1.359375,-1.15625
474,0.34399414,-0.07476807,-0.9019165,-0.09375,-0.09375,0.046875
475,0.36865234,-0.06695557,-0.93341064,1.8125,2.8125,0.9375
476,0.34326172,-0.07086182,-0.9216919,3.859375,3.015625,1.484375
477,0.33984375,-0.058654785,-0.92193604,2.515625,2.578125,1.03125
478,0.3461914,-0.05718994,-0.9763794,0.15625,-0.59375,-0.078125
479,0.33081055,-0.051330566,-0.9360962,-0.953125,-4.59375,-0.578125
480,0.36401367,-0.054992676,-0.9487915,-3.5,-4.71875,-1.21875
481,0.33813477,-0.07330322,-0.8933716,0.6875,-1.921875,0.0625
482,0.36987305,-0.057678223,-0.9429321,0.6875,0.15625,0.53125
483,0.35253906,-0.057678223,-0.92193604,-0.671875,2.890625,0.4375
484,0.3466797,-0.065979004,-0.9326782,-3.515625,4.90625,-0.09375
485,0.33666992,-0.06866455,-0.9483032,-5.21875,6.328125,-0.421875
486,0.32714844,-0.07159424,-0.95147705,-4.140625,3.890625,-0.53125
487,0.32104492,-0.07940674,-0.94122314,-2.140625,2.84375,-0.03125
488,0.31982422,-0.074523926,-0.9414673,-0.734375,2.40625,0.171875
489,0.31835938,-0.082336426,-0.95147705,-0.1875,2.28125,0.015625
490,0.3137207,-0.08428955,-0.9495239,0.265625,1.484375,0.09375
491,0.31347656,-0.07281494,-0.94854736,-0.359375,0.265625,-0.140625
492,0.3083496,-0.07281494,-0.93951416,-0.28125,-0.9375,-0.21875
493,0.3046875,-0.06964111,-0.93096924,-0.375,-1.109375,-0.109375
494,0.31298828,-0.07647705,-0.9505005,-0.140625,-1.03125,-0.0625
495,0.30908203,-0.08526611,-0.92437744,2.0625,-2.203125,0.390625
496,0.31860352,-0.069885254,-0.9397583,4.09375,-5.71875,0.75
497,0.31835938,-0.059387207,-0.9692993,3.03125,-12.84375,-0.1875
498,0.36645508,-0.07305908,-0.95196533,-4.296875,-6.875,-1.9375
499,0.33081055,-0.07647705,-0.87628174,-0.765625,-2.640625,-0.53125
500,0.34375,-0.07110596,-0.9158325,0.90625,-0.1875,0.359375
501,0.35302734,-0.06817627,-0.9385376,2.6875,0.3125,1.0
502,0.359375,-0.058654785,-0.9429321,1.859375,1.140625,0.5625
503,0.34594727,-0.06402588,-0.96173096,1.578125,-1.0,0.3125
504,0.35205078,-0.050354004,-0.94732666,-1.578125,-4.3125,-0.796875
505,0.3466797,-0.066467285,-0.9002075,-1.4375,-0.515625,-0.765625
506,0.34057617,-0.06817627,-0.89141846,0.75,0.90625,0.46875
507,0.3557129,-0.065979004,-0.9495239,1.40625,2.578125,0.953125
508,0.34545898,-0.06109619,-0.9351196,2.109375,1.234375,0.921875
509,0.3479004,-0.051086426,-0.95562744,0.59375,0.203125,0.109375
510,0.3461914,-0.05596924,-0.95880127,-1.4375,-1.40625,-0.53125
511,0.33911133,-0.047668457,-0.9246216,-2.296875,-5.046875,-0.75
512,0.35864258,-0.058166504,-0.93414307,-2.71875,-2.109375,-0.96875
513,0.3466797,-0.054748535,-0.892395,1.0625,-0.359375,0.515625
514,0.35717773,-0.05987549,-0.9356079,0.625,1.625,0.65625
515,0.34326172,-0.06036377,-0.9109497,0.046875,2.71875,0.34375
516,0.34033203,-0.06378174,-0.9312134,-2.5,4.53125,-0.203125
517,0.34057617,-0.05987549,-0.9651489,-4.109375,3.875,-0.421875
518,0.33544922,-0.066711426,-0.9265747,-3.0625,3.578125,-0.40625
519,0.32861328,-0.06451416,-0.9356079,-2.390625,3.53125,-0.1875
520,0.328125,-0.07110596,-0.94903564,-1.34375,3.234375,0.203125
521,0.3178711,-0.07696533,-0.9595337,-0.484375,2.421875,0.203125
522,0.3100586,-0.07476807,-0.95098877,-0.515625,0.96875,0.03125
523,0.30810547,-0.07354736,-0.9380493,-0.765625,-0.25,-0.15625
524,0.3071289,-0.07598877,-0.93096924,-0.6875,-1.1875,-0.21875
525,0.30908203,-0.07720947,-0.93878174,-0.21875,-1.71875,-0.15625
526,0.31298828,-0.07525635,-0.9307251,2.03125,-2.90625,0.484375
527,0.3154297,-0.069885254,-0.9673462,3.875,-7.78125,0.546875
528,0.3449707,-0.057678223,-0.9360962,2.328125,-14.828125,-1.0
529,0.3725586,-0.07086182,-0.9546509,-2.140625,-4.734375,-1.203125
530,0.35913086,-0.059387207,-0.9126587,-0.234375,-1.578125,-0.046875
531,0.34594727,-0.05645752,-0.9312134,0.921875,1.671875,0.390625
532,0.34228516,-0.055725098,-0.9170532,2.296875,0.890625,0.796875
533,0.34838867,-0.059631348,-0.9360962,1.921875,-0.359375,0.46875
534,0.35620117,-0.055725098,-0.95269775,-1.484375,-4.4375,-0.8125
535,0.3713379,-0.074035645,-0.9324341,-2.875,-1.8125,-1.1875
536,0.34716797,-0.057678223,-0.88067627,-0.375,-1.359375,0.15625
537,0.3671875,-0.06304932,-0.9368286,1.140625,1.578125,0.65625
538,0.34448242,-0.0569458,-0.9277954,2.0625,3.078125,0.78125
539,0.33764648,-0.058166504,-0.93756104,1.40625,1.296875,0.640625
540,0.34887695,-0.046691895,-0.9639282,-0.890625,-1.75,-0.359375
541,0.3474121,-0.050842285,-0.93829346,-2.34375,-5.15625,-1.03125
542,0.3701172,-0.058410645,-0.90509033,-3.90625,-3.546875,-1.5
543,0.34814453,-0.06719971,-0.9168091,-0.34375,-0.421875,0.0
544,0.36938477,-0.06549072,-0.92144775,1.484375,2.09375,0.59375
545,0.35375977,-0.061828613,-0.93096924,0.578125,2.8125,0.4375
546,0.3395996,-0.06719971,-0.9158325,-1.75,3.9375,0.125
547,0.34838867,-0.050109863,-0.9607544,-3.65625,4.375,-0.328125
548,0.3317871,-0.06011963,-0.94195557,-3.375,4.546875,-0.3125
549,0.3310547,-0.070129395,-0.9385376,-3.09375,4.5625,-0.21875
550,0.33154297,-0.06939697,-0.93927,-1.515625,4.546875,0.015625
551,0.31811523,-0.07891846,-0.9326782,-1.640625,5.8125,0.046875
552,0.30688477,-0.07647705,-0.94854736,-1.0625,4.9375,0.0625
553,0.3046875,-0.07891846,-0.9612427,-0.390625,3.859375,-0.15625
554,0.2944336,-0.07305908,-0.9451294,0.21875,1.25,-0.15625
555,0.29516602,-0.07501221,-0.9397583,0.5625,-0.5625,0.03125
556,0.296875,-0.07330322,-0.9536743,0.625,-1.34375,-0.046875
557,0.3022461,-0.070617676,-0.9590454,0.234375,-1.6875,0.109375
558,0.30004883,-0.074523926,-0.9558716,1.5625,-3.53125,0.484375
559,0.30273438,-0.070373535,-0.9295044,2.28125,-5.140625,0.375
560,0.30444336,-0.066711426,-0.9668579,1.328125,-6.171875,-0.171875
561,0.33203125,-0.047912598,-0.9817505,0.453125,-14.859375,-0.796875
562,0.34448242,-0.07696533,-0.9053345,-2.65625,-7.359375,-1.328125
563,0.33544922,-0.0725708,-0.8977661,-0.234375,-4.078125,-0.140625
564,0.36401367,-0.06744385,-0.9385376,1.21875,-0.171875,0.375
565,0.35131836,-0.061584473,-0.9468384,1.3125,2.265625,0.53125
566,0.34814453,-0.066711426,-0.93292236,0.390625,2.578125,0.40625
567,0.33251953,-0.0569458,-0.94903564,-0.1875,0.640625,-0.1875
568,0.34057617,-0.06011963,-0.94854736,-1.671875,-3.921875,-0.8125
569,0.36938477,-0.06744385,-0.94537354,-3.703125,-3.625,-1.15625
570,0.34106445,-0.06890869,-0.90704346,0.53125,-1.0625,0.125
571,0.34643555,-0.070373535,-0.9199829,2.0,0.046875,0.671875
572,0.3557129,-0.06060791,-0.94122314,2.515625,2.046875,0.921875
573,0.33691406,-0.0635376,-0.91290283,2.265625,0.796875,0.59375
574,0.35205078,-0.054260254,-1.000061,-1.515625,-1.203125,-0.578125
575,0.34594727,-0.05279541,-0.9273071,-2.25,-3.953125,-1.0625
576,0.3515625,-0.061584473,-0.9241333,-2.8125,-2.90625,-1.015625
577,0.34204102,-0.06719971,-0.8921509,-0.609375,-1.28125,0.0
578,0.36035156,-0.06402588,-0.9258423,0.25,1.421875,0.53125
579,0.35327148,-0.0635376,-0.94195557,-0.640625,3.28125,0.375
580,0.34765625,-0.06890869,-0.91192627,-1.375,4.453125,0.28125
581,0.33789062,-0.051086426,-0.93951416,-3.78125,5.65625,-0.28125
582,0.32470703,-0.06915283,-0.9456177,-3.65625,4.84375,-0.296875
583,0.32592773,-0.06744385,-0.94317627,-1.875,3.828125,0.015625
584,0.31933594,-0.08135986,-0.9458618,-0.125,3.3125,0.25
585,0.3149414,-0.07354736,-0.9570923,-0.203125,3.59375,0.28125
586,0.30786133,-0.07550049,-0.9651489,0.1875,1.21875,0.0
587,0.30664062,-0.07501221,-0.9404907,0.125,0.890625,-0.015625
588,0.29907227,-0.06866455,-0.94000244,-0.265625,-0.28125,-0.125
589,0.30419922,-0.077941895,-0.96051025,-0.28125,-1.59375,0.078125
590,0.31103516,-0.0647583,-0.93096924,0.5625,-2.390625,0.046875
591,0.3100586,-0.06866455,-0.9404907,1.75,-3.328125,0.375
592,0.31323242,-0.06768799,-0.9585571,3.140625,-5.953125,0.375
593,0.32592773,-0.051818848,-0.9649048,3.703125,-13.78125,-0.203125
594,0.37548828,-0.055725098,-0.94976807,-3.984375,-9.21875,-2.078125
595,0.3293457,-0.06744385,-0.87384033,-0.4375,-4.234375,-0.484375
596,0.36254883,-0.059143066,-0.9204712,0.125,-0.640625,0.125
597,0.35961914,-0.06011963,-0.9360962,1.703125,2.171875,0.625
598,0.34326172,-0.06329346,-0.9024048,2.21875,2.71875,1.0
599,0.35375977,-0.054504395,-0.9661255,1.359375,0.09375,0.375
600,0.34692383,-0.055236816,-0.9619751,-1.0625,-2.5,-0.578125
601,0.37060547,-0.05718994,-0.9451294,-3.5625,-3.71875,-1.203125
602,0.35620117,-0.06964111,-0.89801025,-0.65625,-1.046875,-0.234375
603,0.3486328,-0.057922363,-0.91607666,0.84375,0.28125,0.453125
604,0.35668945,-0.05328369,-0.9224243,2.1875,1.890625,0.734375
605,0.35058594,-0.062316895,-0.97540283,1.484375,-1.078125,0.484375
606,0.3503418,-0.04937744,-0.95196533,-0.46875,-2.375,-0.421875
607,0.3557129,-0.049621582,-0.93585205,-2.015625,-4.46875,-0.84375
608,0.3828125,-0.046691895,-0.93096924,-2.5625,-4.9375,-1.203125
609,0.34423828,-0.06695557,-0.89630127,0.484375,-0.40625,0.078125
610,0.3635254,-0.057678223,-0.91290283,0.859375,1.21875,0.609375
611,0.36328125,-0.049621582,-0.9326782,0.140625,3.359375,0.59375
612,0.34643555,-0.062561035,-0.913147,-1.359375,4.59375,0.28125
613,0.3486328,-0.055480957,-0.9429321,-2.875,4.8125,0.0625
614,0.33642578,-0.055725098,-0.9456177,-2.421875,3.859375,0.03125
615,0.3486328,-0.058654785,-0.9343872,-0.75,3.546875,0.15625
616,0.33007812,-0.059631348,-0.93218994,-0.265625,6.15625,0.53125
617,0.32470703,-0.06500244,-0.9590454,-0.53125,5.453125,0.296875
618,0.31811523,-0.06719971,-0.95635986,-1.203125,4.0,0.046875
619,0.30786133,-0.06719971,-0.9573364,-1.4375,0.59375,-0.109375
620,0.2998047,-0.070617676,-0.9295044,-0.359375,-0.1875,-0.15625
621,0.30444336,-0.06842041,-0.9524536,-0.84375,-0.96875,-0.1875
622,0.31201172,-0.06036377,-0.9343872,0.3125,-1.140625,0.015625
623,0.31640625,-0.057434082,-0.9507446,-0.046875,-1.28125,0.09375
624,0.31396484,-0.06964111,-0.95196533,0.34375,-1.828125,0.140625
625,0.31176758,-0.06085205,-0.94781494,2.0625,-3.515625,0.234375
626,0.3149414,-0.06060791,-0.94976807,2.375,-9.46875,-0.203125
627,0.36499023,-0.04156494,-1.0042114,-4.78125,-17.78125,-2.0
628,0.35839844,-0.07745361,-0.87994385,-3.5,-7.71875,-1.84375
629,0.34594727,-0.0647583,-0.86383057,-0.03125,-5.046875,-0.171875
630,0.37329102,-0.062561035,-0.9187622,1.953125,-0.203125,0.46875
631,0.37402344,-0.066223145,-0.9282837,2.9375,3.015625,0.796875
632,0.35839844,-0.06573486,-0.91973877,3.0625,2.671875,1.078125
633,0.3605957,-0.042053223,-0.95318604,-0.40625,-1.9375,-0.109375
634,0.36132812,-0.04840088,-0.96417236,-4.734375,-5.375,-1.484375
635,0.35620117,-0.07940674,-0.8887329,-2.34375,-0.96875,-1.0625
636,0.34521484,-0.07159424,-0.8682251,0.890625,0.53125,0.5625
637,0.36157227,-0.06768799,-0.9336548,2.984375,2.84375,1.078125
638,0.3671875,-0.06500244,-0.95758057,1.890625,1.765625,0.875
639,0.35742188,-0.055480957,-0.9360962,0.21875,-0.265625,0.1875
640,0.35668945,-0.051574707,-0.9480591,-1.640625,-0.375,-0.359375
641,0.34204102,-0.047180176,-0.91900635,-1.734375,-3.15625,-0.78125
642,0.39135742,-0.050842285,-0.95318604,-3.546875,-5.421875,-1.375
643,0.34838867,-0.06890869,-0.9109497,0.8125,-1.28125,0.234375
644,0.36376953,-0.0635376,-0.895813,1.5,1.53125,0.796875
645,0.36376953,-0.058166504,-0.923645,0.453125,4.21875,0.65625
646,0.35351562,-0.066223145,-0.90875244,-1.703125,6.703125,0.3125
647,0.3491211,-0.050354004,-0.9639282,-3.546875,6.71875,0.09375
648,0.33691406,-0.053771973,-0.9541626,-3.59375,4.6875,-0.078125
649,0.33081055,-0.062805176,-0.944397,-2.40625,3.78125,0.125
650,0.32617188,-0.066711426,-0.9639282,-0.671875,1.578125,0.046875
651,0.3232422,-0.070373535,-0.9397583,0.296875,-0.59375,0.046875
652,0.328125,-0.06915283,-0.9356079,0.171875,0.078125,0.09375
653,0.3178711,-0.07305908,-0.9273071,-0.6875,-0.546875,-0.125
654,0.31420898,-0.06793213,-0.9356079,-0.875,-0.71875,-0.03125
655,0.32910156,-0.06939697,-0.9378052,-0.953125,-1.1875,-0.046875
656,0.32104492,-0.07989502,-0.9324341,0.328125,-1.046875,0.046875
657,0.32470703,-0.07208252,-0.94537354,2.78125,-3.109375,0.40625
658,0.32641602,-0.06427002,-0.9529419,4.828125,-7.71875,0.375
659,0.3869629,-0.042785645,-0.98321533,-3.546875,-17.828125,-2.046875
660,0.36914062,-0.077697754,-0.892395,-1.78125,-3.90625,-1.546875
661,0.34936523,-0.054992676,-0.895813,0.390625,-2.390625,-0.03125
662,0.36645508,-0.062316895,-0.91119385,1.640625,1.703125,0.640625
663,0.3461914,-0.057922363,-0.89068604,2.65625,3.3125,1.265625
664,0.3671875,-0.058898926,-0.9607544,1.984375,-0.421875,0.6875
665,0.36767578,-0.049865723,-0.9553833,-2.6875,-5.234375,-0.953125
666,0.39770508,-0.07330322,-0.93585205,-5.46875,-3.9375,-2.03125
667,0.35498047,-0.06866455,-0.86431885,-0.3125,-0.25,-0.046875
668,0.36328125,-0.059387207,-0.8838501,2.109375,3.78125,1.03125
669,0.35424805,-0.057922363,-0.9356079,2.1875,4.734375,1.15625
670,0.36450195,-0.053771973,-0.9651489,1.1875,-0.90625,0.4375
671,0.3569336,-0.054992676,-0.95758057,-1.484375,-3.6875,-0.734375
672,0.38110352,-0.061340332,-0.9429321,-3.8125,-5.28125,-1.484375
673,0.36499023,-0.059143066,-0.8994751,-1.796875,-1.65625,-0.78125
674,0.36743164,-0.066223145,-0.8731079,0.890625,1.125,0.484375
675,0.3696289,-0.06451416,-0.90216064,1.609375,4.734375,0.890625
676,0.3552246,-0.06964111,-0.92633057,-0.078125,7.140625,0.78125
677,0.35791016,-0.051818848,-0.9846802,-2.390625,6.78125,0.359375
678,0.33984375,-0.05279541,-0.95806885,-3.5625,4.796875,-0.203125
679,0.32177734,-0.06939697,-0.9356079,-3.921875,3.578125,-0.203125
680,0.33007812,-0.069885254,-0.93829346,-3.1875,2.953125,-0.296875
681,0.32104492,-0.077697754,-0.9421997,-1.515625,1.40625,0.03125
682,0.32348633,-0.07281494,-0.93048096,-0.25,0.5,0.0625
683,0.3244629,-0.07183838,-0.9380493,0.140625,-0.28125,0.078125
684,0.3244629,-0.07867432,-0.94976807,-0.375,-0.546875,-0.296875
685,0.32543945,-0.07696533,-0.94610596,-0.765625,-0.046875,-0.265625
686,0.31567383,-0.0803833,-0.91778564,0.65625,-0.765625,0.046875
687,0.31811523,-0.07550049,-0.93756104,2.4375,-1.875,0.296875
688,0.32250977,-0.070617676,-0.942688,3.359375,-2.78125,0.578125
689,0.33447266,-0.061340332,-0.96539307,2.65625,-3.40625,0.15625
690,0.32250977,-0.058166504,-0.9871216,2.984375,-7.515625,-0.09375
691,0.37548828,-0.04815674,-0.99224854,-2.0625,-13.84375,-1.546875
692,0.3684082,-0.06915283,-0.90631104,-1.03125,-3.5625,-1.03125
693,0.35839844,-0.050842285,-0.87628174,0.15625,-2.734375,0.046875
694,0.36669922,-0.058166504,-0.9168091,0.953125,0.84375,0.3125
695,0.35083008,-0.06890869,-0.9038696,0.703125,2.53125,0.484375
696,0.35742188,-0.053771973,-0.9468384,1.515625,-0.171875,0.453125
697,0.3630371,-0.047424316,-0.9780884,-2.3125,-4.34375,-0.765625
698,0.38891602,-0.06060791,-0.9578247,-3.921875,-3.90625,-1.453125
699,0.35546875,-0.06085205,-0.8867798,-0.953125,-0.921875,-0.5
700,0.36743164,-0.057922363,-0.89141846,1.375,1.9375,0.75
701,0.36279297,-0.058410645,-0.9290161,1.578125,4.609375,1.046875
702,0.3388672,-0.06793213,-0.8899536,1.171875,4.953125,0.6875
703,0.3515625,-0.055725098,-0.94537354,0.234375,4.640625,0.28125
704,0.35546875,-0.05328369,-1.0020142,-0.953125,-1.375,-0.296875
705,0.3461914,-0.04547119,-0.9380493,-1.125,-6.515625,-0.890625
706,0.37060547,-0.06793213,-0.9336548,-2.5625,-4.0,-1.125
707,0.34570312,-0.070129395,-0.8933716,0.5,-0.625,0.359375
708,0.35766602,-0.061828613,-0.91363525,0.71875,3.53125,0.65625
709,0.3515625,-0.062316895,-0.9168091,-0.84375,4.453125,0.359375
710,0.33569336,-0.05621338,-0.92022705,-2.921875,6.59375,0.109375
711,0.3293457,-0.06427002,-0.9451294,-3.6875,5.8125,-0.046875
712,0.33203125,-0.06329346,-0.9558716,-3.3125,4.5,-0.21875
713,0.32250977,-0.06915283,-0.96173096,-2.828125,3.515625,-0.09375
714,0.32080078,-0.0725708,-0.94903564,-1.703125,2.421875,0.203125
715,0.3161621,-0.07183838,-0.96417236,-0.78125,1.234375,0.078125
716,0.31152344,-0.0725708,-0.94488525,-0.84375,1.265625,0.015625
717,0.30419922,-0.07183838,-0.928772,-0.6875,0.03125,-0.03125
718,0.30444336,-0.07232666,-0.9326782,-0.375,-0.734375,0.046875
719,0.30322266,-0.070129395,-0.9421997,0.171875,-1.640625,-0.046875
720,0.3125,-0.07623291,-0.93927,1.53125,-2.40625,0.21875
721,0.3100586,-0.069885254,-0.9751587,3.109375,-6.609375,0.5
722,0.32739258,-0.06329346,-0.99542236,-0.453125,-14.6875,-0.875
723,0.38256836,-0.08087158,-0.9714966,-5.53125,-7.859375,-2.328125
724,0.3347168,-0.07720947,-0.8711548,-0.1875,-3.0,-0.375
725,0.3527832,-0.069885254,-0.909729,1.296875,-0.609375,0.453125
726,0.35327148,-0.074035645,-0.9348755,3.40625,2.09375,0.859375
727,0.34228516,-0.07208252,-0.90753174,3.65625,1.25,1.0
728,0.34472656,-0.057922363,-0.9619751,1.375,0.078125,0.265625
729,0.3486328,-0.05328369,-0.96661377,-3.015625,-4.9375,-0.84375
730,0.36645508,-0.07989502,-0.9378052,-3.484375,-3.265625,-1.453125
731,0.34985352,-0.062805176,-0.87872314,0.421875,-1.4375,0.03125
732,0.3671875,-0.0647583,-0.93218994,1.484375,0.921875,0.765625
733,0.3569336,-0.07208252,-0.93585205,1.578125,1.75,0.640625
734,0.34838867,-0.0635376,-0.9336548,1.15625,0.703125,0.28125
735,0.34570312,-0.05303955,-0.95196533,-2.03125,-3.0,-0.71875
736,0.36938477,-0.06085205,-0.9326782,-3.84375,-5.953125,-1.578125
737,0.34960938,-0.069885254,-0.89678955,-2.171875,-2.15625,-0.5
738,0.36132812,-0.073791504,-0.89801025,1.359375,0.515625,0.609375
739,0.36083984,-0.061340332,-0.93170166,3.21875,3.875,1.359375
740,0.3544922,-0.07159424,-0.92803955,1.921875,4.90625,0.859375
741,0.3503418,-0.0569458,-0.93414307,-0.484375,6.875,0.515625
742,0.3322754,-0.062072754,-0.9507446,-2.75,7.46875,-0.03125
743,0.3190918,-0.057922363,-0.9468384,-3.234375,5.921875,-0.140625
744,0.3154297,-0.06304932,-0.94610596,-2.078125,4.203125,0.0
745,0.3232422,-0.069885254,-0.9536743,-0.578125,2.421875,0.09375
746,0.3154297,-0.06866455,-0.9663696,-0.4375,1.703125,0.09375
747,0.3095703,-0.07476807,-0.9585571,-0.765625,0.578125,0.015625
748,0.30444336,-0.078430176,-0.94073486,-1.140625,0.234375,-0.140625
749,0.3059082,-0.07281494,-0.9414673,-0.8125,-0.453125,-0.296875
750,0.29663086,-0.06378174,-0.9194946,-1.0625,-1.21875,-0.21875
751,0.31103516,-0.07208252,-0.9522095,2.5,-4.625,0.296875
752,0.3100586,-0.06744385,-0.95440674,5.0,-8.59375,0.5625
753,0.35595703,-0.04864502,-0.9795532,-0.03125,-15.9375,-1.140625
754,0.35986328,-0.077941895,-0.94195557,-4.015625,-6.359375,-1.484375
755,0.35083008,-0.066223145,-0.8933716,-0.5625,-2.671875,-0.171875
756,0.36523438,-0.06573486,-0.9258423,1.109375,1.0,0.3125
757,0.3395996,-0.062072754,-0.9151001,3.078125,3.09375,0.9375
758,0.3515625,-0.059143066,-0.927063,3.375,2.0625,0.90625
759,0.34594727,-0.055480957,-0.9661255,-0.75,-3.265625,-0.1875
