sample_no,accel_x,accel_y,accel_z,gyro_x,gyro_y,gyro_z
0,-0.10913086,-0.88287354,0.0927124,-7.75,8.828125,4.53125
1,-0.017333984,-0.9072876,0.07537842,7.9375,3.453125,3.703125
2,0.0017089844,-1.0054321,-0.0154418945,11.71875,-1.34375,-1.078125
3,-0.08911133,-0.98565674,-0.02154541,5.75,-20.53125,0.25
4,-0.07397461,-1.0278931,-0.035705566,-3.953125,-10.265625,-2.859375
5,-0.009765625,-1.0977173,0.009460449,-16.140625,-2.640625,-5.125
6,-0.013916016,-0.9546509,-0.105529785,-18.328125,-9.640625,-4.8125
7,-0.030761719,-0.9331665,0.008728027,-12.328125,-11.3125,-4.078125
8,-0.12670898,-0.89385986,-0.03741455,17.15625,16.03125,-3.03125
9,-0.0061035156,-0.89068604,0.2189331,4.328125,5.84375,3.609375
10,-0.07348633,-0.9920044,0.06951904,3.921875,3.265625,3.25
11,-0.037841797,-1.0161743,0.0006713867,-6.75,-14.734375,1.375
12,0.0126953125,-0.923645,-0.093811035,-11.671875,-20.890625,4.40625
13,-0.10644531,-0.9937134,0.01751709,-19.328125,-7.09375,1.515625
14,-0.056152344,-0.9776001,0.07318115,-11.0625,0.34375,-1.09375
15,-0.056884766,-0.9636841,-0.074035645,7.25,17.1875,0.46875
16,0.028564453,-1.0654907,-0.08355713,1.734375,17.5625,2.078125
17,0.018798828,-0.9290161,0.20477295,1.46875,-0.0625,4.09375
18,0.009765625,-0.9902954,0.081970215,14.34375,1.734375,0.625
19,-0.034179688,-1.0410767,-0.02911377,7.96875,-3.234375,2.09375
20,0.018066406,-0.9624634,-0.09820557,-4.859375,-3.90625,-0.421875
21,-0.035888672,-0.956604,-0.081848145,-1.203125,-8.625,-0.34375
22,-0.020507812,-0.97784424,-0.07696533,1.84375,-0.765625,-1.171875
23,0.03857422,-1.0066528,0.024353027,-9.328125,12.546875,-0.59375
24,-0.06665039,-1.0796509,0.04144287,-2.6875,-4.15625,3.625
25,-0.114990234,-0.98321533,0.09197998,0.953125,-1.375,4.96875
26,0.05810547,-0.9927368,-0.058410645,4.328125,-8.6875,0.71875
27,-0.033691406,-1.0305786,-0.0256958,-2.078125,-24.34375,-0.75
28,-0.09277344,-1.0007935,-0.06060791,-14.8125,-17.328125,-3.3125
29,-0.05908203,-0.9729614,-0.0178833,-18.484375,-11.59375,-4.71875
30,-0.053710938,-1.0379028,-0.030822754,-2.296875,-11.3125,-4.09375
31,-0.02709961,-1.0657349,-0.042297363,7.71875,20.96875,1.625
32,-0.11767578,-1.1299438,0.10614014,-0.96875,14.21875,0.953125
33,-0.01928711,-0.91851807,0.022644043,5.5,11.140625,0.0
34,-0.033691406,-0.96417236,0.024108887,6.859375,6.359375,-1.46875
35,-0.0021972656,-1.0100708,-0.097229004,-3.25,-11.4375,-2.96875
36,-0.036865234,-0.9746704,-0.14337158,-4.578125,-4.046875,-1.046875
37,-0.06591797,-1.0261841,-0.1026001,0.46875,4.84375,-2.046875
38,-0.041992188,-1.0574341,0.028747559,17.375,23.515625,1.15625
39,-0.0021972656,-0.9302368,-0.07208252,12.890625,7.390625,2.1875
40,-0.030517578,-0.96417236,-0.14874268,-9.75,-18.515625,-0.265625
41,-0.034423828,-0.98321533,-0.22369385,-11.453125,-13.578125,-0.171875
42,-0.07739258,-0.9390259,-0.12335205,-12.296875,-11.015625,-0.171875
43,-0.11816406,-1.0650024,-0.16656494,-11.140625,-7.734375,1.046875
44,0.04321289,-0.99420166,0.14544678,-8.984375,8.296875,3.765625
45,-0.1015625,-1.0527954,0.1293335,-3.265625,1.140625,3.859375
46,-0.020263672,-0.95391846,0.12249756,-1.71875,-7.15625,1.96875
47,-0.040039062,-0.9014282,0.0026245117,12.9375,0.109375,2.328125
48,0.013916016,-0.9553833,-0.0713501,4.765625,-6.75,1.78125
49,-0.016357422,-1.034729,-0.06793213,-3.59375,-14.609375,0.359375
50,-0.020751953,-1.0762329,-0.074279785,-3.1875,-12.71875,-0.265625
51,0.013671875,-1.0112915,-0.09893799,-9.703125,-13.25,-2.515625
52,0.0012207031,-0.986145,-0.09527588,-6.46875,-8.0,-3.421875
53,-0.025146484,-0.98394775,-0.051818848,-6.71875,-5.78125,-3.390625
54,-0.029296875,-1.0796509,-0.113342285,-12.828125,-6.40625,-5.03125
55,-0.059570312,-0.9307251,-0.13995361,-9.046875,-3.546875,-3.109375
56,0.08569336,-1.0332642,0.07952881,-8.1875,23.34375,0.171875
57,-0.06542969,-1.0108032,0.10491943,0.984375,10.40625,-0.171875
58,0.045898438,-0.9146118,0.031921387,14.296875,3.9375,2.34375
59,-0.06591797,-0.9636841,0.010437012,6.6875,-6.21875,-0.1875
60,-0.016601562,-0.9505005,-0.14337158,1.25,-1.53125,-0.953125
61,-0.010009766,-1.0523071,-0.11480713,0.546875,4.6875,-2.703125
62,-0.0637207,-1.0188599,-0.159729,7.578125,9.4375,-3.296875
63,-0.03173828,-1.0549927,-0.1873169,11.984375,12.84375,1.46875
64,0.012207031,-0.9043579,0.18597412,1.59375,1.671875,2.5625
65,-0.13842773,-1.1069946,0.09100342,4.578125,5.96875,1.640625
66,-0.020263672,-0.9585571,0.026306152,6.625,2.953125,2.515625
67,-0.04296875,-0.95440674,-0.026184082,3.0625,-5.171875,3.09375
68,-0.037353516,-0.989563,-0.11187744,1.5,-3.65625,-0.34375
69,-0.025634766,-0.9356079,-0.16729736,-0.65625,-3.375,0.0
70,-0.0053710938,-0.9944458,-0.16607666,-1.828125,2.8125,-0.4375
71,-0.030761719,-1.0462036,-0.09991455,-5.8125,-0.125,-0.671875
72,-0.044677734,-1.0274048,-0.09527588,-9.0,12.921875,-0.9375
73,-0.056884766,-0.99884033,0.086364746,-7.828125,2.84375,1.6875
74,-0.08178711,-1.0376587,0.043884277,-0.640625,-0.96875,0.921875
75,-0.028076172,-0.9817505,0.11785889,-2.8125,-12.65625,3.59375
76,-0.04663086,-0.8779907,-0.02130127,1.265625,-7.15625,3.390625
77,-0.044433594,-1.0357056,-0.043273926,-0.953125,-9.046875,2.328125
78,0.0063476562,-1.0169067,-0.06500244,-2.15625,-15.4375,-0.046875
79,-0.018310547,-1.0425415,-0.049865723,-2.484375,-13.1875,0.15625
80,-0.030273438,-1.0056763,-0.09674072,-8.28125,-12.6875,-0.5
81,0.030517578,-0.9429321,-0.019348145,-5.453125,-8.3125,-2.40625
82,-0.010986328,-0.9915161,-0.023254395,-7.265625,-11.09375,-3.84375
83,-0.051513672,-0.9849243,-0.11212158,-6.546875,-1.3125,-4.203125
84,0.039794922,-0.94317627,0.008483887,-6.546875,10.0625,-2.90625
85,-0.031982422,-1.076477,-0.020812988,4.0625,15.21875,1.171875
86,-0.049316406,-0.95147705,0.22161865,-3.25,2.171875,3.375
87,-0.051757812,-1.0855103,0.15814209,4.828125,5.515625,-1.28125
88,-0.036865234,-0.91241455,0.10614014,9.25,2.3125,2.453125
89,-0.046142578,-0.9702759,-0.0051879883,8.21875,-5.84375,1.921875
90,-0.0056152344,-1.036438,-0.06866455,2.140625,-9.265625,-1.046875
91,-0.004638672,-0.96221924,-0.078430176,2.984375,-1.921875,-0.6875
92,-0.022705078,-1.0383911,-0.097717285,7.6875,5.71875,-0.375
93,-0.0061035156,-1.0239868,-0.16070557,15.328125,14.578125,1.65625
94,0.009277344,-0.9365845,0.012634277,2.0625,13.96875,4.71875
95,-0.022705078,-0.9710083,0.03314209,-0.015625,0.859375,1.375
96,-0.031982422,-0.91778564,-0.03326416,0.65625,-6.1875,2.34375
97,-0.05444336,-1.0403442,-0.089416504,-2.921875,-10.75,-0.3125
98,0.015380859,-0.9553833,-0.14923096,-9.1875,-5.40625,-0.703125
99,-0.009033203,-1.0217896,-0.11236572,-5.375,-2.21875,-1.109375
100,0.03466797,-0.9998169,-0.09259033,-1.15625,-0.625,0.03125
101,-0.0546875,-0.97979736,0.10443115,-1.96875,-5.3125,-1.0625
102,0.021240234,-1.0049438,0.07977295,-0.875,13.625,2.078125
103,-0.038085938,-1.1021118,0.057556152,-1.53125,1.703125,0.40625
104,-0.027832031,-0.96710205,0.04534912,0.296875,-0.25,-1.125
105,-0.021728516,-0.93096924,0.055847168,4.046875,-5.640625,1.671875
106,-0.03149414,-0.93096924,-0.0413208,0.5,-6.03125,1.71875
107,0.016113281,-1.0181274,-0.070373535,-6.359375,-4.265625,0.109375
108,0.041259766,-1.0698853,-0.077697754,-11.125,-9.75,0.953125
109,0.0017089844,-1.0410767,-0.035705566,-8.65625,-11.734375,-1.296875
110,-0.0126953125,-0.98321533,0.031677246,-14.9375,-15.5,-3.234375
111,-0.026855469,-0.97979736,0.050720215,-13.828125,-21.296875,-4.125
112,-0.057128906,-0.94610596,0.01727295,-17.3125,-18.03125,-2.625
113,-0.022949219,-1.0401001,0.0072631836,-11.859375,-10.5,-5.890625
114,-0.005126953,-0.9258423,0.046081543,-5.8125,6.171875,-3.640625
115,-0.08251953,-1.0527954,0.022155762,-3.015625,4.75,-5.203125
116,-0.045166016,-0.8677368,0.06732178,1.578125,14.875,-0.9375
117,-0.0068359375,-1.0169067,-0.011779785,4.6875,21.265625,-1.0625
118,-0.02709961,-0.97369385,0.23358154,1.140625,6.21875,2.609375
119,-0.10522461,-1.0532837,0.152771,5.25,7.875,2.4375
120,0.022949219,-0.98150635,0.13861084,4.859375,1.078125,1.90625
121,0.0061035156,-0.9793091,0.09661865,2.140625,-12.984375,2.25
122,-0.027832031,-0.97369385,0.007751465,-0.359375,-9.78125,1.109375
123,-0.025146484,-1.0112915,0.018493652,0.375,-4.09375,0.0
124,-0.030761719,-0.9751587,0.11224365,2.3125,0.78125,-0.8125
125,-0.087890625,-0.97198486,-0.10870361,20.421875,14.390625,1.25
126,0.008056641,-0.94976807,0.13543701,3.65625,12.671875,1.234375
127,-0.12939453,-1.1096802,0.20843506,-1.34375,-3.796875,0.46875
128,0.016845703,-0.96173096,0.08685303,7.15625,3.890625,-0.40625
129,0.0,-0.94781494,0.011169434,10.0,-8.09375,-0.171875
130,-0.036865234,-0.9885864,-0.03668213,7.515625,-2.8125,-1.328125
131,0.0009765625,-0.9758911,-0.07525635,5.71875,-0.390625,0.265625
132,-0.02758789,-1.0213013,-0.07647705,1.109375,-1.703125,-1.734375
133,-0.04638672,-1.005188,-0.049865723,1.3125,-0.5,0.078125
134,0.004638672,-0.94366455,0.16131592,-0.65625,15.8125,2.8125
135,-0.11303711,-1.0112915,0.1239624,-2.578125,5.296875,4.6875
136,0.020019531,-1.0022583,0.062683105,0.453125,-7.84375,0.09375
137,-0.07836914,-0.92388916,0.06097412,6.734375,-11.5,5.4375
138,0.018798828,-1.019104,-0.0049438477,4.96875,-1.515625,1.765625
139,-0.030029297,-1.0108032,0.032409668,-1.6875,-5.234375,2.140625
140,0.00024414062,-0.99835205,-0.057434082,-15.40625,-0.140625,-3.0
141,0.0036621094,-1.0151978,0.070007324,-25.375,-4.328125,-5.34375
142,0.0,-1.0032349,0.030456543,-10.046875,-13.84375,-1.9375
143,-0.0068359375,-1.008606,0.066345215,-5.734375,-14.125,-2.46875
144,-0.0012207031,-1.0022583,-0.014953613,-7.71875,-14.984375,-2.984375
145,0.017578125,-0.9985962,-0.026428223,-6.71875,4.828125,-5.203125
146,-0.14746094,-1.0464478,0.090026855,-2.828125,14.921875,-3.359375
147,-0.09716797,-1.0464478,0.14715576,-2.78125,11.078125,-2.140625
148,0.02758789,-0.9121704,0.16937256,3.515625,-0.265625,0.21875
149,-0.084228516,-1.0857544,0.08123779,9.34375,-5.84375,-1.5
150,-0.007080078,-0.90826416,-0.016418457,-1.96875,-8.53125,-0.25
151,-0.030273438,-0.9968872,0.016784668,3.359375,-5.359375,-0.46875
152,-0.0390625,-0.9961548,-0.014953613,7.359375,3.484375,0.4375
153,0.009765625,-0.9963989,-0.003479004,5.21875,16.296875,3.34375
154,-0.13500977,-1.1343384,0.16595459,-1.625,-4.328125,1.21875
155,-0.009521484,-0.9990845,0.10443115,-0.140625,3.40625,1.28125
156,0.018554688,-1.0071411,0.18621826,-0.140625,-7.921875,-3.09375
157,-0.024169922,-0.91119385,-0.12701416,-12.359375,-10.359375,-3.640625
158,-0.021484375,-0.92266846,-0.09112549,-4.734375,-12.1875,-3.390625
159,-0.053955078,-0.96881104,-0.06036377,-7.90625,-9.46875,-1.953125
160,-0.12084961,-1.0088501,0.09613037,-13.5,-2.40625,4.890625
161,-0.064697266,-0.8772583,0.18792725,-14.9375,-12.21875,0.3125
162,-0.0024414062,-0.9734497,0.13250732,2.53125,-6.015625,0.375
163,-0.07421875,-1.0320435,0.18719482,2.984375,-12.0,1.15625
164,-0.049072266,-1.0134888,0.13348389,-5.515625,-16.59375,-1.28125
165,-0.05126953,-0.97784424,0.112976074,-1.984375,-16.6875,-1.46875
166,-0.084472656,-0.9612427,0.09539795,0.515625,-12.4375,-0.890625
167,-0.06933594,-0.99542236,0.11785889,-1.140625,-10.71875,-1.203125
168,-0.050048828,-0.9920044,0.051452637,-6.328125,-0.3125,-2.65625
169,-0.05810547,-1.0054321,0.06951904,-8.03125,-0.359375,-2.859375
170,-0.08642578,-0.85943604,-0.09625244,1.421875,21.1875,-0.15625
171,0.020019531,-0.9561157,0.20281982,4.140625,5.765625,1.359375
172,-0.03881836,-0.9702759,0.12322998,1.9375,-12.671875,-1.0625
173,-0.052490234,-0.942688,0.057556152,5.65625,-5.515625,-0.71875
174,-0.018310547,-0.99664307,0.02947998,8.6875,1.84375,0.078125
175,-0.001953125,-0.9812622,0.07366943,14.25,8.21875,4.53125
176,-0.060302734,-1.0723267,0.034362793,-0.578125,2.421875,0.625
177,0.059570312,-0.98883057,-0.00079345703,0.84375,-2.46875,-2.640625
178,0.0056152344,-0.97979736,-0.004699707,2.265625,-16.890625,-1.953125
179,-0.110839844,-0.95098877,-0.07525635,3.6875,-12.125,-1.109375
180,-0.044677734,-0.9668579,-0.06695557,9.21875,-3.109375,-1.140625
181,-0.08154297,-1.0020142,-0.032287598,3.90625,-0.265625,3.46875
182,0.0,-1.050354,-0.2029419,10.84375,14.390625,-0.546875
183,-0.03100586,-1.0310669,0.0036010742,-0.25,3.65625,3.21875
184,-0.061523438,-1.0213013,0.06829834,-8.984375,-13.5625,4.375
185,-0.048339844,-0.9439087,0.038269043,-10.84375,-13.328125,2.703125
186,-0.015380859,-0.95562744,-0.012023926,-15.03125,-13.46875,-0.0625
187,0.011962891,-1.0044556,-0.032043457,-8.046875,-12.265625,-0.765625
188,0.023925781,-1.0344849,0.01776123,-8.28125,-9.890625,-1.3125
189,-0.030273438,-1.0032349,0.001159668,-4.40625,-12.328125,-0.96875
190,-0.026367188,-0.975647,0.024353027,-2.03125,-8.484375,-2.171875
191,-0.047607422,-1.0012817,-0.010070801,-9.609375,-11.6875,-2.21875
192,0.032958984,-1.0215454,-0.09918213,-6.375,-8.890625,-3.171875
193,0.0024414062,-1.0154419,-0.124816895,6.859375,25.03125,-0.609375
194,0.029052734,-1.013977,0.070495605,-5.203125,10.59375,-0.5625
195,0.030517578,-0.90093994,0.018249512,-4.296875,-5.40625,1.015625
196,-0.053955078,-0.9678345,-0.008605957,-12.15625,-16.09375,-2.21875
197,-0.014160156,-0.97198486,-0.03692627,-2.203125,-6.515625,0.0625
198,-0.0925293,-0.94854736,0.016296387,14.09375,9.984375,1.5
199,-0.09887695,-1.0549927,0.21502686,5.96875,3.109375,3.421875
200,-0.0026855469,-1.0171509,0.04144287,9.484375,9.53125,2.59375
201,0.071777344,-0.98443604,0.013366699,10.796875,6.34375,0.1875
202,0.0024414062,-0.96881104,-0.054748535,12.40625,-8.859375,1.359375
203,-0.024902344,-0.95562744,-0.1404419,4.125,-7.375,-0.296875
204,-0.03540039,-1.0252075,-0.10333252,4.796875,-6.28125,-1.1875
205,-0.037353516,-0.9998169,-0.023254395,5.5625,0.21875,-1.359375
206,-0.038085938,-1.0427856,-0.14483643,9.6875,-1.734375,-2.0625
207,0.014892578,-1.0440063,0.06585693,-6.21875,-5.359375,-2.046875
208,-0.060546875,-0.93756104,-0.022766113,-6.796875,-3.734375,0.203125
209,-0.033935547,-1.0762329,0.06317139,-13.9375,-17.609375,-2.5625
210,-0.055908203,-0.9771118,0.050964355,-19.578125,-14.3125,-3.296875
211,0.0034179688,-0.9585571,-0.044006348,-21.1875,-15.390625,-3.6875
212,-0.06738281,-0.98223877,0.055114746,-19.359375,-18.890625,-1.921875
213,-0.017333984,-0.9873657,0.04144287,-15.171875,-16.515625,-1.546875
214,-0.0146484375,-1.0071411,0.04437256,-13.953125,-15.25,-2.625
215,0.00024414062,-1.0227661,0.08538818,-12.625,-14.75,-3.203125
216,-0.06567383,-0.9871216,0.07489014,-7.0625,-16.1875,-2.984375
217,-0.10058594,-0.9788208,0.07904053,-7.71875,-10.140625,-1.75
218,-0.030273438,-1.0044556,0.11468506,-9.84375,-5.625,-4.796875
219,-0.10913086,-0.96832275,0.005554199,-5.828125,7.984375,-4.328125
220,-0.09448242,-0.99346924,0.17547607,-0.703125,21.296875,-3.28125
221,-0.006591797,-0.93756104,-0.18145752,-8.625,17.78125,3.59375
222,-0.107666016,-1.0635376,0.23919678,3.953125,13.765625,4.59375
223,0.020507812,-0.9104614,0.20184326,4.125,9.71875,3.09375
224,0.0390625,-0.9866333,0.15374756,11.265625,-2.53125,1.140625
225,-0.012939453,-0.9746704,0.066833496,5.40625,0.75,1.78125
226,0.009033203,-0.96881104,0.055358887,14.03125,10.40625,0.125
227,0.06567383,-1.0012817,0.20159912,15.203125,12.78125,3.453125
228,-0.026367188,-1.0789185,0.13446045,2.109375,3.765625,3.453125
229,0.010253906,-0.9656372,0.04852295,4.03125,2.96875,0.390625
230,0.0063476562,-0.97784424,0.03778076,1.828125,-2.96875,0.203125
231,0.0041503906,-1.003479,-0.008117676,-7.84375,-15.234375,-0.015625
232,-0.06713867,-0.9873657,0.038024902,-19.21875,-21.96875,1.984375
233,0.006591797,-0.9170532,-0.05206299,-12.703125,-16.65625,-1.046875
234,-0.0061035156,-0.9702759,0.04071045,2.84375,4.15625,0.734375
235,-0.052490234,-1.0342407,0.04486084,-3.4375,0.484375,-0.5625
236,-0.021484375,-1.0222778,0.13372803,-1.984375,4.328125,0.96875
237,0.030761719,-0.9483032,0.16473389,5.125,0.40625,-0.390625
238,-0.028076172,-0.9841919,0.13348389,7.53125,-0.640625,-0.09375
239,-0.01171875,-0.975647,0.10858154,7.078125,-3.125,-0.6875
240,-0.0063476562,-1.0059204,0.06390381,-4.296875,-11.171875,-0.734375
241,-0.03540039,-1.0840454,0.10076904,-9.4375,-16.203125,-2.46875
242,-0.042236328,-1.0083618,0.0758667,-13.78125,-11.171875,-1.203125
243,-0.036132812,-0.95025635,0.13641357,-9.96875,-8.25,-1.046875
244,-0.037597656,-0.97979736,0.10467529,-4.15625,-10.46875,-2.265625
245,-0.03955078,-0.9805298,0.06732178,-5.96875,-10.28125,-0.53125
246,-0.018798828,-1.0039673,0.09857178,-3.359375,-7.984375,-0.90625
247,-0.009033203,-1.0032349,0.09588623,-3.390625,-5.5625,-2.4375
248,0.01171875,-1.1216431,-0.085754395,25.078125,8.46875,-1.28125
249,0.0690918,-1.0293579,-0.16412354,9.453125,19.359375,-1.546875
250,-0.115234375,-1.092102,0.11566162,7.390625,18.921875,2.171875
251,0.01586914,-0.9939575,0.044128418,4.875,9.984375,1.4375
252,0.039794922,-0.94781494,0.0079956055,5.265625,1.1875,1.640625
253,-0.0146484375,-0.9746704,-0.062072754,-6.828125,-12.265625,1.578125
254,0.029541016,-0.972229,-0.05987549,2.140625,-4.09375,1.546875
255,-0.061767578,-0.9902954,-0.0056762695,10.46875,6.59375,0.828125
256,0.0014648438,-1.0249634,0.09954834,13.6875,12.609375,4.421875
257,0.0029296875,-1.031311,0.014587402,7.484375,13.4375,3.21875
258,0.037109375,-0.99542236,-0.074035645,0.546875,5.703125,1.390625
259,0.026367188,-0.9578247,-0.051330566,-2.984375,-6.671875,-0.125
260,-0.029785156,-1.0151978,-0.08673096,-8.734375,-10.765625,-2.078125
261,0.0014648438,-0.9824829,-0.07501221,-12.09375,-3.796875,-1.984375
262,-0.011962891,-0.892395,-0.23248291,-14.640625,-7.609375,-1.875
263,-0.115234375,-1.0713501,0.1239624,-7.4375,0.390625,1.96875
264,0.048339844,-0.9727173,0.13470459,-4.4375,-1.078125,0.421875
265,-0.055908203,-0.9182739,0.12591553,1.46875,-8.390625,3.4375
266,0.032470703,-1.0020142,0.029968262,4.078125,-8.546875,-0.03125
267,0.030761719,-1.0383911,0.09881592,3.390625,-5.8125,-1.609375
268,0.0107421875,-1.0801392,0.074157715,-5.546875,-7.625,-2.09375
269,-0.02758789,-0.96832275,0.066345215,-17.65625,-12.875,-2.546875
270,-0.0390625,-0.9480591,0.04510498,-11.65625,-15.4375,-1.59375
271,-0.030029297,-1.0164185,0.07122803,-10.4375,-14.515625,-1.890625
272,0.016845703,-1.0098267,0.07611084,-3.734375,-9.28125,-0.921875
273,-0.088378906,-1.0325317,0.11859131,-10.9375,2.15625,2.359375
274,-0.037597656,-1.0215454,0.014099121,-4.828125,8.984375,-3.265625
275,0.020263672,-0.9697876,0.05706787,-3.09375,-4.453125,0.734375
276,0.0024414062,-0.9348755,-0.020324707,-4.453125,-16.90625,-0.421875
277,-0.052246094,-0.9607544,-0.07598877,-1.5,-2.703125,-1.03125
278,-0.061523438,-0.9505005,-0.15655518,20.734375,6.359375,0.125
279,0.0034179688,-1.0195923,-0.043273926,0.375,21.0625,2.40625
280,-0.103515625,-1.0769653,0.050720215,2.609375,10.75,1.5625
281,-0.021972656,-0.97735596,0.012634277,6.34375,13.390625,1.515625
282,0.03125,-0.9939575,-0.011779785,5.234375,4.0,1.390625
283,-0.017089844,-0.94976807,-0.011291504,8.859375,-1.078125,2.84375
284,-0.059570312,-1.0076294,-0.04473877,10.953125,1.25,0.71875
285,-0.0034179688,-0.9902954,0.013122559,16.109375,4.8125,2.421875
286,-0.014892578,-1.0569458,-0.21685791,3.03125,10.671875,-1.71875
287,-0.03466797,-1.0046997,-0.02545166,-2.59375,6.71875,1.796875
288,0.0017089844,-1.0635376,-0.0044555664,8.109375,2.984375,-1.96875
289,-0.05883789,-1.0588989,0.058044434,-16.828125,-19.484375,2.9375
290,0.015625,-0.9841919,-0.027404785,-14.453125,-12.96875,-2.046875
291,0.0034179688,-1.0244751,0.04510498,-13.53125,-10.9375,-0.921875
292,-0.029785156,-0.98223877,0.0758667,-19.09375,-11.0,-0.9375
293,-0.025146484,-1.0151978,-0.00982666,-17.875,-18.703125,-2.015625
294,-0.035888672,-0.9956665,0.04510498,-13.6875,-14.375,-3.0625
295,-0.045654297,-1.0049438,0.07366943,-11.25,-8.984375,-2.734375
296,-0.019042969,-1.0354614,-0.0020141602,6.578125,4.90625,-2.71875
297,0.021972656,-0.99957275,-0.13409424,-1.578125,13.796875,2.28125
298,0.0036621094,-0.9776001,0.12176514,-4.515625,-0.140625,0.265625
299,-0.008056641,-1.0237427,0.066101074,-2.734375,3.0,1.75
300,0.02368164,-0.9204712,-0.014709473,-4.078125,-6.234375,2.21875
301,-0.018798828,-0.9956665,0.06097412,-5.453125,-9.515625,1.25
302,0.0029296875,-0.98760986,-0.055725098,-1.625,-3.671875,1.46875
303,-0.029785156,-1.0950317,-0.16534424,9.5625,7.328125,1.078125
304,0.071777344,-0.9146118,-0.09869385,-7.765625,10.0625,5.46875
305,-0.060791016,-1.0344849,0.08514404,-0.640625,2.71875,4.75
306,-0.010009766,-1.0496216,0.070495605,1.453125,4.84375,3.75
307,0.07299805,-0.9819946,0.05316162,2.140625,-2.21875,3.828125
308,-0.01171875,-0.9463501,0.02508545,-11.984375,-8.015625,0.3125
309,0.037597656,-1.0088501,-0.016174316,-13.328125,-10.53125,-0.84375
310,0.0031738281,-0.87677,-0.14312744,-14.234375,-4.375,-0.671875
311,-0.009765625,-1.0855103,0.14154053,-11.1875,-9.234375,0.625
312,-0.046875,-0.98687744,0.22015381,-7.078125,-3.953125,4.5
313,-0.0012207031,-0.9319458,0.14227295,-7.09375,-8.09375,1.78125
314,0.030029297,-0.9734497,0.17010498,3.515625,-7.65625,0.671875
315,0.029296875,-1.0037231,0.10467529,5.78125,-7.703125,-0.125
316,0.0087890625,-1.0422974,0.09246826,2.59375,-5.203125,-0.578125
317,-0.010498047,-1.0535278,0.10809326,-0.34375,-4.015625,-0.40625
318,0.017089844,-1.0210571,0.051940918,3.203125,-0.859375,-1.890625
319,-0.015625,-0.94488525,0.105163574,-3.703125,-5.8125,-1.234375
320,0.020996094,-0.956604,-0.013000488,-3.765625,-6.609375,-0.0625
321,0.0021972656,-0.99713135,0.08441162,-3.234375,-4.25,-1.3125
322,0.053466797,-0.96832275,-0.0051879883,12.828125,14.390625,-5.109375
323,0.09887695,-1.0215454,0.029968262,6.671875,24.390625,-2.09375
324,-0.05517578,-1.0686646,0.1239624,3.28125,7.8125,-0.28125
325,-0.045898438,-1.0159302,0.06951904,1.65625,13.046875,-1.265625
326,0.043945312,-0.9927368,0.024841309,-2.09375,5.640625,-2.40625
327,0.030761719,-0.9636841,0.012634277,-7.078125,-12.515625,-2.28125
328,-0.0078125,-0.99298096,-0.011779785,-8.078125,-8.65625,-2.390625
329,-0.08227539,-0.97003174,0.011169434,-25.765625,-23.65625,-1.296875
330,0.018554688,-1.029602,0.04071045,2.8125,1.25,-2.25
331,-0.11376953,-1.0383911,0.14642334,3.6875,-3.90625,0.046875
332,0.025390625,-0.9541626,0.0914917,4.0625,11.171875,-0.9375
333,0.00390625,-0.95758057,0.11517334,3.734375,1.859375,2.0625
334,0.01953125,-1.0064087,0.057556152,8.375,4.8125,1.15625
335,0.016357422,-1.019104,0.022644043,5.765625,-0.71875,-0.125
336,-0.018066406,-0.9644165,-0.012756348,0.453125,-5.90625,1.03125
337,0.064941406,-0.9678345,-0.10455322,6.5625,0.9375,-2.4375
338,-0.0703125,-1.0564575,0.16351318,-1.0625,5.078125,0.03125
339,-0.014892578,-0.9990845,0.0836792,0.890625,4.40625,0.71875
340,-0.045654297,-0.9924927,0.058532715,2.125,3.578125,-1.390625
341,-0.0029296875,-0.9417114,0.051696777,6.453125,1.921875,-1.171875
342,-0.03857422,-0.975647,0.019470215,9.4375,-2.40625,-1.09375
343,-0.011474609,-1.0596313,0.012634277,2.15625,-4.0,-1.8125
344,-0.061523438,-1.0420532,0.04949951,0.984375,-10.21875,-0.328125
345,-0.024169922,-1.1052856,-0.003967285,-3.953125,-4.15625,-2.96875
346,-0.048583984,-0.9534302,-0.006164551,-10.78125,-6.265625,-3.484375
347,-0.01977539,-0.91656494,-0.026672363,-10.296875,-13.28125,-3.125
348,-0.043701172,-1.0005493,-0.09234619,-6.5625,-3.0,-3.546875
349,-0.030273438,-1.0164185,0.04949951,-2.171875,11.28125,-3.921875
350,-0.056396484,-1.0598755,0.22161865,-2.625,-4.875,-0.921875
351,-0.12890625,-1.071106,0.07659912,-2.125,6.515625,0.171875
352,0.004638672,-0.9619751,-0.024719238,1.828125,6.34375,-1.65625
353,-0.0053710938,-0.8953247,-0.06085205,1.53125,-6.625,-1.421875
354,-0.06347656,-1.0252075,-0.07672119,1.328125,-8.1875,-1.34375
355,-0.052001953,-0.94073486,-0.09161377,3.875,0.203125,-1.546875
356,-0.012207031,-1.0247192,-0.15484619,2.484375,13.875,2.578125
357,-0.08325195,-1.0213013,0.08758545,0.5625,0.6875,1.421875
358,-0.080566406,-1.0444946,-0.010070801,4.5625,8.21875,1.03125
359,0.020507812,-0.9702759,-0.051818848,0.296875,-2.96875,0.484375
360,-0.032226562,-0.98223877,-0.12921143,-6.875,-16.546875,0.265625
361,-0.15234375,-1.0999146,0.05291748,-8.828125,-4.96875,1.90625
362,-0.09326172,-1.0200806,0.07513428,-0.40625,5.421875,3.84375
363,-0.0021972656,-0.9885864,0.015808105,1.59375,4.96875,-0.46875
364,-0.049560547,-0.9673462,0.074645996,-0.578125,4.046875,1.296875
365,-0.021728516,-0.99102783,0.05267334,5.390625,6.375,-0.078125
366,-0.060546875,-1.0020142,0.05316162,11.015625,0.46875,-0.46875
367,-0.03149414,-0.9463501,-0.03741455,13.6875,-4.09375,1.671875
368,-0.028564453,-0.96759033,-0.07501221,1.28125,-7.34375,0.703125
369,-0.03100586,-1.0144653,-0.078430176,6.234375,-9.390625,4.40625
370,-0.047851562,-1.0247192,-0.051330566,-1.203125,-13.84375,2.484375
371,-0.022216797,-0.9854126,-0.04840088,-7.046875,-15.15625,-0.359375
372,0.01171875,-1.0132446,-0.11212158,-8.03125,-9.984375,-1.34375
373,-0.02734375,-1.0320435,-0.05645752,-8.609375,-9.859375,-1.8125
374,0.0087890625,-0.9534302,-0.16925049,4.046875,0.6875,-4.265625
375,-0.14916992,-0.9866333,-0.042297363,3.96875,15.53125,-0.15625
376,0.048583984,-0.9468384,-0.042541504,-4.328125,19.5,1.484375
377,-0.13110352,-1.05719,0.16619873,2.75,0.390625,0.75
378,-0.026123047,-1.0669556,0.12567139,11.734375,12.375,-0.125
379,-0.009277344,-0.9085083,-0.028869629,12.109375,0.765625,1.234375
380,-0.01953125,-1.0266724,-0.12872314,8.25,-12.453125,0.03125
381,-0.01928711,-0.9170532,-0.18658447,1.640625,-4.25,1.609375
382,0.05859375,-1.0698853,-0.074279785,-5.421875,15.5625,1.546875
383,-0.014892578,-0.9368286,-0.011291504,2.453125,1.0,0.9375
384,0.01977539,-0.9636841,-0.027648926,1.5625,-2.21875,-0.625
385,0.0,-0.95269775,-0.09088135,1.0,-14.078125,0.859375
386,-0.032958984,-0.97613525,-0.17218018,-1.21875,-6.328125,0.859375
387,0.032470703,-0.9819946,-0.17877197,-4.40625,-6.890625,-0.984375
388,0.0073242188,-1.0198364,-0.051086426,-13.015625,7.421875,3.015625
389,-0.07104492,-1.0413208,0.007019043,-3.453125,4.640625,1.8125
390,-0.0107421875,-0.9976196,0.034118652,-5.953125,0.46875,1.78125
391,-0.024414062,-0.9468384,0.09466553,-9.875,-9.359375,1.515625
392,-0.04638672,-0.9265747,-0.0037231445,-10.828125,-7.46875,0.265625
393,0.015625,-1.0122681,0.016540527,-3.96875,-7.875,1.8125
394,0.026367188,-1.048645,-0.024475098,-8.0,-15.109375,0.75
395,0.046142578,-0.98272705,-0.012023926,-8.203125,-9.875,0.40625
396,0.0075683594,-1.0007935,-0.005432129,-3.140625,-12.421875,0.09375
397,0.0014648438,-0.9849243,0.024597168,-8.03125,-10.40625,-1.328125
398,-0.024902344,-1.0215454,0.014587402,-8.3125,-9.078125,-0.984375
399,0.0068359375,-1.0630493,-0.07647705,0.28125,-7.328125,-0.9375
400,-0.05078125,-0.89019775,-0.09185791,16.234375,3.796875,-4.59375
401,-0.064453125,-1.0237427,-0.19464111,-1.34375,23.90625,-1.4375
402,0.10058594,-0.9216919,0.035583496,-0.71875,18.484375,-0.03125
403,-0.119628906,-1.1106567,0.20452881,3.171875,2.78125,4.0
404,-0.0063476562,-1.0234985,0.066345215,8.140625,16.5625,-0.09375
405,0.056640625,-0.9414673,0.020202637,7.0625,2.703125,0.109375
406,0.026123047,-0.99542236,-0.042297363,-2.296875,-4.390625,-3.15625
407,-0.015136719,-0.9019165,-0.07550049,7.4375,-0.734375,-1.34375
408,-0.021972656,-1.0418091,-0.22711182,13.875,15.125,-1.90625
409,0.022949219,-1.0195923,-0.08477783,14.765625,22.015625,-1.203125
410,-0.020751953,-1.000061,0.05706787,13.40625,17.1875,0.125
411,-0.052246094,-1.0220337,0.020446777,6.6875,6.703125,-1.046875
412,-0.025878906,-0.96710205,-0.08404541,4.125,-2.78125,-0.640625
413,0.009033203,-0.91973877,-0.10748291,4.390625,-6.515625,-2.109375
414,-0.0009765625,-0.956604,-0.18463135,2.75,-5.109375,-1.828125
415,-0.08154297,-1.1065063,-0.17730713,-0.21875,-8.0625,-2.078125
416,-0.084472656,-1.0215454,-0.042541504,-7.53125,5.265625,1.25
417,-0.051513672,-1.0615845,-0.014465332,-6.328125,1.359375,2.59375
418,-0.042236328,-0.97540283,0.05657959,-16.0625,-5.5,2.734375
419,0.043945312,-0.88775635,-0.058410645,-4.328125,-5.875,1.25
420,0.006591797,-0.9944458,-0.01739502,-9.671875,-14.5625,0.359375
421,-0.030517578,-1.0100708,-0.0022583008,-9.96875,-16.71875,-1.1875
422,-0.040771484,-1.0188599,-0.032287598,-13.578125,-16.890625,-2.34375
423,-0.03515625,-1.0149536,-0.008850098,-11.34375,-11.609375,-3.9375
424,-0.0068359375,-0.9951782,-0.027160645,-6.90625,-11.578125,-2.203125
425,-0.05126953,-0.9932251,0.016296387,-10.15625,-7.609375,-2.0
426,-0.011474609,-1.0335083,-0.03253174,1.953125,2.375,-1.953125
427,0.04272461,-1.0110474,0.17230225,-8.765625,9.546875,-1.859375
428,-0.0007324219,-1.013977,0.0446167,-2.984375,6.09375,-0.5
429,-0.0007324219,-0.89801025,-0.026672363,-0.9375,-4.875,1.46875
430,0.013916016,-0.9846802,-0.09454346,-0.5,-6.65625,-2.921875
431,-0.041015625,-0.975647,-0.07183838,-0.75,-4.796875,-1.734375
432,-0.08081055,-1.0325317,-0.19171143,10.375,12.109375,0.609375
433,0.03466797,-1.0332642,-0.08355713,-4.3125,17.953125,-0.375
434,-0.119628906,-1.0122681,0.090026855,-14.765625,0.8125,0.921875
435,-0.044921875,-0.9939575,0.0048217773,-4.484375,8.265625,0.09375
436,0.06542969,-1.0147095,-0.02130127,-4.265625,0.046875,-2.265625
437,0.01171875,-1.0220337,-0.016174316,-1.6875,-18.015625,-3.0625
438,-0.04711914,-0.9002075,-0.11651611,-4.703125,-13.171875,-1.609375
439,-0.045166016,-1.0332642,-0.12432861,-5.4375,-7.96875,-3.890625
440,-0.13891602,-1.0650024,0.14520264,-9.234375,0.609375,1.53125
441,-0.08129883,-0.97735596,0.036315918,-8.5,3.6875,3.796875
442,-0.012451172,-0.9434204,0.042663574,-3.546875,7.96875,3.5
443,0.011474609,-0.9627075,0.054870605,-0.96875,2.671875,1.21875
444,-0.03881836,-0.9898071,0.08050537,6.6875,-3.59375,2.96875
445,-0.043945312,-1.0801392,0.008728027,-4.84375,-7.203125,-0.09375
446,-0.0034179688,-0.9714966,0.030212402,-8.859375,-7.75,1.484375
447,0.017578125,-0.9717407,0.019226074,-2.40625,-11.25,2.296875
448,0.0056152344,-0.99053955,0.06463623,-1.265625,-10.09375,3.125
449,-0.0041503906,-0.97735596,0.057800293,-9.515625,-14.859375,1.46875
450,-0.00048828125,-1.0125122,0.046813965,-4.03125,-18.359375,0.6875
451,0.0036621094,-0.98565674,0.011657715,1.984375,-11.359375,1.03125
452,-0.09033203,-0.93951416,0.022399902,12.484375,2.265625,-0.15625
453,0.05102539,-0.91119385,0.08831787,5.703125,17.65625,4.59375
454,-0.0847168,-1.0891724,0.121032715,4.328125,0.046875,1.6875
455,-0.044677734,-0.99542236,0.058532715,5.1875,6.328125,-0.921875
456,0.018798828,-1.013977,0.00091552734,6.84375,0.0,-2.046875
457,0.030273438,-1.00177,-0.055725098,2.15625,-8.59375,-3.5
458,-0.03173828,-0.9468384,-0.10650635,-2.859375,-6.984375,-0.65625
459,0.03857422,-1.0110474,-0.07940674,-3.1875,-5.96875,-2.515625
460,-0.043701172,-0.9951782,-0.05987549,-9.046875,0.015625,-0.84375
461,-0.0021972656,-0.98223877,0.02557373,-6.84375,6.703125,0.546875
462,-0.068847656,-1.078186,0.07757568,-6.171875,-1.8125,-1.109375
463,-0.026855469,-1.0305786,0.08441162,-2.140625,-0.765625,-0.53125
464,-0.009033203,-0.9456177,0.06121826,-6.78125,-9.84375,-0.890625
465,0.022216797,-0.95635986,-0.042053223,-5.765625,-3.8125,-1.609375
466,-0.05810547,-0.99591064,-0.030578613,-5.625,-6.640625,-1.46875
467,0.011474609,-0.9949341,-0.05230713,-15.765625,-1.796875,-2.59375
468,-0.04711914,-0.9807739,0.019714355,-10.53125,5.703125,0.328125
469,-0.042236328,-1.0234985,0.12640381,-6.875,0.546875,1.484375
470,0.011962891,-1.038147,0.1293335,-0.328125,2.59375,0.90625
471,-0.0007324219,-0.9702759,0.15887451,3.78125,-11.421875,0.515625
472,-0.06225586,-0.95513916,0.086120605,0.515625,-8.1875,1.625
473,-0.0056152344,-1.0022583,0.11175537,-0.296875,-10.703125,0.84375
474,-0.0078125,-1.0349731,0.07293701,0.96875,-10.875,1.6875
475,-0.050048828,-1.0042114,0.055603027,-2.421875,-11.375,0.53125
476,-0.03564453,-0.9697876,0.06365967,-3.453125,-9.453125,-1.15625
477,-0.011230469,-0.99102783,0.051696777,-4.90625,-10.09375,-0.8125
478,0.0009765625,-1.0195923,0.06903076,0.9375,-8.21875,-1.84375
479,-0.13989258,-1.0120239,0.16107178,2.40625,6.671875,5.09375
480,-0.064208984,-1.086731,0.1251831,-2.15625,12.734375,1.15625
481,0.022460938,-0.989563,0.07244873,2.609375,8.640625,0.03125
482,-0.011230469,-0.99224854,0.05291748,1.703125,-2.59375,0.921875
483,0.0021972656,-0.9319458,-0.027893066,-8.671875,-4.90625,-1.4375
484,0.015136719,-0.9768677,-0.070129395,3.484375,-0.875,-1.703125
485,-0.053222656,-0.94976807,0.14154053,19.953125,16.328125,-0.328125
486,0.032714844,-0.98101807,-0.05279541,16.1875,14.984375,2.5625
487,-0.096191406,-1.0413208,0.078552246,8.3125,1.03125,3.28125
488,-0.01928711,-1.0354614,0.019470215,5.875,7.84375,0.78125
489,0.022949219,-1.000061,-0.04498291,3.65625,-0.640625,2.34375
490,-0.0043945312,-1.0010376,-0.085754395,2.21875,0.328125,-1.359375
491,-0.006591797,-0.9109497,-0.06036377,5.09375,1.46875,0.109375
492,-0.037597656,-1.0527954,-0.16778564,-0.625,0.140625,-2.921875
493,-0.005126953,-0.9937134,0.005065918,-8.21875,9.34375,-0.390625
494,-0.018310547,-1.0586548,0.008239746,-2.609375,7.078125,-0.15625
495,-0.02709961,-1.0650024,0.07733154,-11.453125,-9.8125,0.125
496,-0.0847168,-0.91412354,0.020935059,-12.21875,-10.375,1.0
497,0.064208984,-0.9299927,-0.0025024414,-11.0,-6.34375,-0.40625
498,-0.0024414062,-1.0291138,0.038757324,-13.53125,-13.6875,0.3125
499,-0.0068359375,-0.9793091,0.050720215,-9.375,-15.9375,-1.109375
500,-0.019042969,-0.9883423,0.027770996,-12.984375,-15.0,-3.578125
501,-0.057128906,-1.0217896,0.026550293,-9.359375,-8.796875,-2.3125
502,0.033935547,-1.0691528,-0.097717285,6.5625,6.0625,-2.28125
503,-0.014404297,-0.98272705,0.10467529,4.953125,6.28125,0.203125
504,-0.0715332,-1.078186,0.054382324,-1.609375,-0.34375,0.140625
505,-0.04272461,-1.0366821,0.023376465,4.296875,3.3125,1.671875
506,0.032958984,-0.90167236,-0.097229004,-0.34375,-11.046875,1.796875
507,-0.04345703,-0.9854126,-0.12921143,-14.75,-14.34375,1.359375
508,-0.012207031,-0.9402466,0.023864746,1.5625,-13.796875,-3.40625
509,0.020996094,-0.9939575,-0.17755127,6.28125,11.484375,1.828125
510,0.040527344,-0.9807739,0.0680542,0.8125,4.546875,1.03125
511,-0.096191406,-1.0903931,0.05316162,7.796875,9.125,1.421875
512,0.030761719,-0.97003174,-0.040100098,11.34375,3.28125,0.171875
513,-0.044921875,-1.1377563,-0.042053223,8.875,-10.609375,0.203125
514,-0.017578125,-0.98443604,-0.017150879,-0.109375,15.859375,0.90625
515,0.0021972656,-1.055481,-0.05230713,-4.390625,9.96875,-1.703125
516,-0.0056152344,-0.9678345,-0.054504395,2.75,-0.75,-1.25
517,0.009765625,-0.9768677,-0.05670166,3.171875,-6.65625,-2.1875
518,-0.03466797,-1.0049438,-0.05279541,5.890625,-14.328125,-1.328125
519,-0.03955078,-1.015686,-0.08135986,6.0,-3.4375,0.96875
520,-0.018310547,-0.9998169,-0.08428955,-6.5,-1.90625,0.859375
521,-0.009765625,-1.0171509,-0.054748535,-12.75,-8.84375,-0.046875
522,-0.009277344,-0.9939575,-0.03277588,-15.21875,-10.265625,-1.25
523,0.061035156,-0.94781494,-0.02520752,-20.1875,-5.328125,-0.515625
524,-0.06713867,-0.9968872,0.027526855,-14.34375,-9.234375,-2.1875
525,-0.052490234,-1.0252075,-0.0068969727,-6.0,5.59375,-0.96875
526,-0.03466797,-1.0278931,-0.011779785,-11.328125,1.9375,-0.90625
527,-0.037353516,-1.0496216,-0.027160645,-8.5,2.28125,-1.46875
528,0.017089844,-0.9768677,-0.03668213,-9.75,-9.53125,-2.203125
529,-0.057373047,-0.9360962,-0.10333252,-5.6875,-7.96875,-0.625
530,0.009033203,-0.9492798,0.008972168,-0.109375,-3.515625,-1.765625
531,-0.020263672,-1.0022583,-0.1482544,-9.421875,10.09375,0.734375
532,-0.011962891,-0.9819946,0.047790527,-4.4375,4.203125,0.734375
533,-0.084228516,-1.0530396,0.09613037,1.890625,1.484375,0.703125
534,-0.0043945312,-1.0166626,-0.078430176,3.96875,-15.25,3.890625
535,-0.07348633,-0.8843384,0.02166748,-14.640625,-11.921875,1.28125
536,0.060546875,-0.89678955,-0.10479736,-2.828125,-2.265625,2.4375
537,-0.037841797,-1.0335083,-0.023986816,1.265625,7.453125,1.625
538,0.0043945312,-1.053772,0.044128418,0.09375,11.5,-0.078125
539,-0.016357422,-1.00177,0.02557373,0.71875,8.78125,1.3125
540,0.02734375,-0.9673462,0.015808105,4.34375,2.46875,0.0625
541,-0.023925781,-1.0015259,0.051696777,7.28125,-5.03125,1.046875
542,-0.011962891,-0.9998169,-0.010314941,-0.5,-8.359375,0.8125
543,-0.00390625,-1.019104,-0.0115356445,0.90625,-9.953125,4.40625
544,0.0146484375,-0.99835205,-0.0064086914,-0.625,-10.1875,4.78125
545,0.010009766,-0.9849243,0.008728027,-5.015625,-13.0,2.046875
546,0.047851562,-1.010315,-0.050598145,-2.078125,-12.046875,-0.484375
547,0.063964844,-1.0308228,-0.1531372,3.171875,3.078125,-4.03125
548,-0.01953125,-0.9212036,-0.016906738,11.921875,16.78125,-5.703125
549,-0.03540039,-0.9421997,-0.031555176,1.390625,15.828125,1.3125
550,-0.05859375,-1.0730591,0.06585693,2.875,7.953125,-0.9375
551,-0.006591797,-0.99664307,-0.007873535,3.984375,-0.875,1.578125
552,-0.0053710938,-0.9248657,-0.08721924,0.03125,-11.0,1.1875
553,0.021484375,-0.895813,-0.09893799,-1.53125,-15.671875,-3.109375
554,-0.0009765625,-0.99835205,-0.22662354,-8.6875,-8.328125,-1.65625
555,-0.025390625,-0.99468994,-0.05206299,-6.96875,5.578125,-0.375
556,-0.021484375,-1.05719,0.015563965,-2.40625,8.4375,1.0
557,-0.047851562,-1.0300903,0.012634277,1.296875,9.90625,0.046875
558,0.03125,-0.9859009,-0.02520752,2.890625,-2.328125,1.171875
559,-0.02758789,-0.9837036,-0.13116455,-6.71875,-9.3125,1.234375
560,0.044189453,-0.8557739,-0.10064697,-9.25,-7.109375,1.953125
561,-0.040283203,-1.1243286,-0.04058838,-5.34375,-3.09375,1.171875
562,-0.024658203,-0.9793091,0.0018920898,-1.984375,7.125,4.828125
563,-0.0063476562,-1.0064087,0.032409668,1.953125,1.375,2.53125
564,0.014160156,-0.96881104,0.041931152,-3.078125,-7.046875,1.734375
565,0.018310547,-0.9590454,0.030700684,-10.46875,-7.578125,1.53125
566,0.021484375,-1.0349731,-0.022277832,-2.84375,-4.921875,1.875
567,-0.0021972656,-1.0056763,0.0060424805,-3.953125,-4.15625,1.875
568,0.001953125,-1.0100708,0.029724121,-1.96875,-5.171875,2.25
569,0.037841797,-1.0093384,0.017028809,-0.109375,-3.765625,2.25
570,0.024169922,-1.0105591,0.007507324,-2.015625,-7.390625,0.3125
571,0.0126953125,-1.1135864,0.082214355,-6.71875,6.0625,-4.78125
572,-0.13574219,-1.0151978,0.035827637,-4.265625,10.484375,1.3125
573,0.083496094,-0.99542236,0.020690918,1.359375,9.140625,-2.953125
574,0.0041503906,-0.95391846,-0.00079345703,3.296875,-5.40625,-0.234375
575,0.07373047,-1.0186157,-0.073791504,3.140625,-10.21875,-2.1875
576,0.0007324219,-0.97442627,0.031188965,6.828125,-5.390625,-2.203125
577,-0.07373047,-1.0193481,0.025817871,13.171875,6.40625,-0.59375
578,0.032226562,-1.0230103,-0.013000488,-1.34375,10.96875,-4.421875
579,-0.037841797,-0.96539307,-0.046447754,-2.453125,2.96875,-1.703125
580,0.046875,-0.9898071,-0.070373535,-0.234375,-6.125,-3.125
581,-0.052490234,-0.9961548,-0.047912598,0.859375,-5.796875,-1.65625
582,-0.017333984,-0.94781494,-0.06109619,0.3125,-3.90625,-0.90625
583,-0.05493164,-1.0645142,-0.016906738,-2.484375,-8.21875,-0.046875
584,-0.051513672,-1.0203247,-0.11407471,-8.46875,16.59375,-0.421875
585,-0.005859375,-1.0271606,-0.006652832,-6.4375,5.125,1.96875
586,-0.0034179688,-1.0137329,0.09075928,-9.4375,-3.765625,-1.703125
587,-0.040527344,-1.0098267,0.06854248,-12.734375,-13.375,-0.15625
588,-0.08544922,-0.97662354,-0.0015258789,-10.421875,-9.71875,0.65625
589,0.021240234,-0.9619751,0.028747559,-9.359375,-10.984375,0.359375
590,-0.049804688,-1.0474243,0.05682373,-2.671875,-12.734375,0.8125
591,-0.025390625,-0.9841919,0.05731201,-6.78125,-7.328125,-0.015625
592,-0.026611328,-0.9741821,0.046081543,-10.59375,-12.96875,-0.5625
593,-0.008544922,-0.9990845,0.0079956055,-7.578125,-11.171875,-1.375
594,-0.0546875,-1.0083618,0.054138184,-4.796875,-3.296875,-1.578125
595,-0.07397461,-1.0405884,0.08660889,18.5,7.65625,0.078125
596,-0.026855469,-1.0515747,-0.012756348,1.484375,2.109375,0.484375
597,-0.08886719,-1.0408325,-0.0178833,-6.71875,1.5625,-0.4375
598,0.0234375,-0.9981079,-0.093566895,-0.765625,-5.421875,0.359375
599,0.0026855469,-0.93170166,-0.10235596,-7.703125,-18.0,-0.046875
600,-0.041259766,-0.9680786,-0.019836426,-2.65625,-5.1875,-2.546875
601,-0.11791992,-1.0471802,0.005554199,0.484375,-1.15625,3.859375
602,0.052734375,-1.0422974,-0.022277832,2.75,14.265625,2.265625
603,-0.009521484,-0.99420166,0.0048217773,-0.484375,1.796875,4.96875
604,0.033203125,-0.9841919,-0.06085205,0.5,-3.03125,1.578125
605,0.026611328,-1.0181274,-0.018615723,1.21875,-5.859375,1.359375
606,-0.015136719,-1.0169067,-0.06304932,-0.671875,-3.203125,1.109375
607,-0.025390625,-0.9949341,0.0033569336,-0.1875,-1.125,1.390625
608,-0.046142578,-1.0581665,0.022155762,-0.4375,-8.9375,-1.015625
609,-0.028320312,-1.0440063,0.039001465,-17.921875,-13.234375,-2.03125
610,0.0078125,-0.9314575,-0.043762207,-16.78125,-18.71875,-2.671875
611,0.0,-0.97906494,-0.012756348,-11.375,-15.3125,-1.890625
612,-0.03466797,-0.99591064,0.06512451,-10.171875,-11.84375,1.125
613,-0.029052734,-0.9939575,-0.0064086914,-11.28125,-9.4375,1.6875
614,-0.011230469,-0.9981079,0.058288574,-10.453125,-10.453125,-0.953125
615,-0.033935547,-1.0874634,-0.007873535,11.546875,-1.1875,0.515625
616,0.05444336,-1.0203247,0.04071045,-5.6875,5.5625,0.984375
617,-0.09838867,-1.0606079,0.0018920898,-4.34375,3.140625,0.203125
618,0.052490234,-0.98809814,-0.0015258789,-2.234375,-2.359375,-0.40625
619,0.029541016,-1.1226196,0.02923584,5.796875,6.796875,-0.203125
620,0.022949219,-0.9961548,0.06072998,8.859375,12.328125,1.65625
621,-0.020263672,-1.0037231,0.015808105,11.0625,4.765625,1.078125
622,0.026367188,-0.9710083,-0.054992676,11.515625,6.15625,-0.15625
623,0.001953125,-0.9920044,-0.07159424,14.765625,4.796875,-1.25
624,0.041259766,-1.0039673,-0.024963379,5.03125,6.34375,2.265625
625,-0.01977539,-1.0315552,-0.08306885,3.875,5.5,1.71875
626,-0.028808594,-1.0222778,-0.024719238,2.578125,5.15625,2.234375
627,-0.0031738281,-1.0269165,0.013122559,6.15625,4.515625,2.453125
628,0.0087890625,-1.0264282,-0.050354004,-3.03125,-5.828125,2.765625
629,-0.015625,-0.9636841,-0.04815674,-24.0,-20.234375,0.328125
630,0.0021972656,-1.0059204,-0.047668457,-18.40625,-15.390625,-2.375
631,0.063964844,-1.0325317,-0.04083252,-13.625,-14.15625,-2.828125
632,-0.0007324219,-0.98101807,0.040222168,-16.25,-12.09375,-3.828125
633,-0.024902344,-0.99957275,0.028015137,-9.65625,-11.328125,-3.078125
634,-0.05419922,-1.0908813,-0.0115356445,5.9375,5.109375,-3.015625
635,0.050048828,-1.0149536,-0.05596924,10.578125,24.625,-0.5
636,0.0009765625,-1.0698853,0.00091552734,-7.46875,3.53125,-1.828125
637,-0.04345703,-1.0181274,0.020690918,-9.5,-2.0625,-0.46875
638,-0.013916016,-0.9963989,0.023376465,0.171875,2.859375,-0.40625
639,-0.021484375,-0.8569946,0.031188965,6.546875,-13.90625,0.546875
640,-0.016357422,-1.0305786,-0.097961426,3.6875,6.453125,0.828125
641,0.014892578,-0.97076416,-0.0635376,3.9375,1.328125,1.734375
642,0.020263672,-1.0339966,-0.117248535,5.734375,-0.8125,-0.078125
643,-0.044921875,-1.0110474,-0.17681885,-0.359375,-6.328125,1.375
644,0.056640625,-0.90167236,-0.16265869,-5.46875,-0.296875,-0.296875
645,0.00048828125,-1.0332642,-0.14801025,-2.265625,6.40625,-0.703125
646,-0.02709961,-1.067688,0.08441162,-3.796875,5.8125,0.84375
647,-0.019042969,-1.0442505,0.0099487305,-1.203125,-1.359375,0.171875
648,-0.10595703,-1.0073853,0.035339355,-4.390625,-5.609375,1.28125
649,0.040527344,-0.9006958,-0.04107666,1.46875,3.984375,1.546875
650,0.030761719,-0.9702759,-0.05645752,1.484375,-5.890625,-0.078125
651,0.008056641,-1.0264282,-0.02935791,-3.65625,-12.953125,0.828125
652,0.013183594,-1.0176392,-0.06964111,-8.234375,-16.9375,0.140625
653,0.00024414062,-1.0056763,-0.06036377,-8.125,-11.21875,-0.4375
654,0.01171875,-1.045227,-0.023010254,-0.5,-0.546875,-2.078125
655,0.045410156,-1.1399536,0.023132324,-13.234375,9.296875,-6.171875
656,-0.06689453,-1.0134888,-0.013977051,-8.875,-5.546875,0.875
657,-0.040771484,-1.0615845,-0.027160645,-2.453125,5.25,-2.4375
658,0.052246094,-0.8689575,-0.13214111,1.046875,-1.296875,-0.671875
659,-0.02319336,-0.98443604,-0.08404541,1.75,-4.03125,-2.640625
660,-0.0036621094,-0.97613525,-0.25177002,-5.265625,2.765625,-0.15625
661,0.018066406,-0.9873657,0.012390137,-8.25,3.34375,0.28125
662,-0.072509766,-1.0227661,-0.054748535,-1.875,1.59375,-0.03125
663,0.0234375,-1.0049438,-0.10089111,1.5625,-9.578125,-0.03125
664,-0.114990234,-1.0020142,0.047058105,0.921875,3.84375,-1.140625
665,-0.013183594,-0.9612427,0.02532959,3.296875,12.5,-4.65625
666,-0.028320312,-0.9307251,-0.026428223,10.546875,7.3125,-0.25
667,-0.030029297,-1.0029907,-0.03741455,18.484375,4.5625,-0.140625
668,-0.013183594,-1.0830688,-0.040100098,16.9375,3.828125,2.609375
669,-0.029541016,-1.0794067,-0.03717041,4.1875,0.015625,3.578125
670,-0.010253906,-0.9607544,-0.07672119,-1.1875,-0.234375,1.984375
671,0.0146484375,-0.99468994,-0.059143066,-5.5,-6.0625,0.40625
672,0.0026855469,-1.0151978,-0.0134887695,-10.328125,-8.75,0.09375
673,-0.017822266,-1.0081177,-0.04058838,-13.34375,-9.921875,0.0
674,-0.009277344,-1.039856,-0.06304932,-11.046875,-11.1875,-1.875
675,0.050048828,-0.98321533,-0.17559814,6.59375,-1.90625,-2.109375
676,0.0146484375,-0.9216919,-0.14752197,9.8125,4.8125,-4.265625
677,-0.07470703,-0.9788208,-0.07696533,6.53125,9.5625,0.78125
678,0.10595703,-1.0137329,0.1359253,19.9375,15.21875,-0.328125
679,0.022460938,-1.0154419,0.024108887,-5.28125,-6.578125,-0.484375
680,0.011474609,-0.9612427,-0.06719971,2.5,-5.34375,0.0625
681,-0.028076172,-0.90045166,-0.1560669,-0.671875,-17.6875,0.171875
682,0.009765625,-1.0193481,-0.19073486,-1.921875,-8.6875,-1.96875
683,0.022705078,-1.0215454,-0.23834229,-4.921875,-3.953125,-0.75
684,-0.037353516,-0.94610596,-0.269104,-6.75,7.78125,0.6875
685,-0.095458984,-1.0735474,0.018249512,3.046875,3.5,1.25
686,0.03564453,-0.9692993,-0.02178955,1.875,-3.203125,0.890625
687,-0.013427734,-0.9651489,-0.089416504,0.125,-8.25,1.59375
688,0.0017089844,-0.91729736,-0.101379395,1.46875,-5.609375,1.203125
689,0.03100586,-1.0200806,-0.02960205,2.828125,-0.234375,-0.046875
690,-0.031982422,-1.0630493,-0.08673096,-7.484375,9.375,1.9375
691,-0.042236328,-1.0122681,0.00091552734,5.171875,8.8125,2.4375
692,-0.024414062,-0.99298096,0.0119018555,-2.71875,2.125,-0.875
693,-0.012939453,-0.9631958,0.034606934,-16.953125,-11.34375,-0.65625
694,0.017333984,-0.9663696,-0.02520752,-18.96875,-16.015625,-1.40625
695,0.052490234,-0.9837036,-0.034973145,-10.03125,-8.15625,1.65625
696,-0.011474609,-1.0335083,0.006286621,-7.09375,-7.6875,0.890625
697,0.0048828125,-1.031311,0.024108887,-10.09375,-9.484375,0.203125
698,-0.001953125,-0.98931885,0.038024902,-7.65625,-11.09375,0.421875
699,-0.0014648438,-1.0100708,0.04071045,-11.390625,-7.25,-0.359375
700,-0.012207031,-0.98883057,0.051208496,-15.9375,-6.890625,-1.09375
701,0.033203125,-1.0032349,0.050476074,0.34375,-4.28125,0.078125
702,0.0078125,-1.0361938,-0.0044555664,18.328125,4.59375,0.875
703,-0.061035156,-0.9192505,-0.008117676,21.984375,19.25,1.140625
704,0.064941406,-0.89971924,-0.08453369,-7.765625,22.15625,-0.078125
705,-0.0012207031,-1.0317993,0.1071167,-3.578125,3.46875,1.921875
706,-0.04711914,-1.0708618,0.14154053,-0.59375,2.0,0.265625
707,0.052001953,-0.9512329,0.08319092,-7.765625,-8.875,-2.703125
708,-0.009277344,-0.93463135,0.06585693,-3.078125,-7.96875,-3.625
709,-0.021484375,-0.9673462,0.06732178,-2.0625,4.921875,-2.796875
710,-0.0041503906,-0.98223877,-0.06842041,0.046875,5.96875,-0.203125
711,-0.010009766,-1.0361938,0.08905029,4.03125,6.21875,0.5625
712,-0.0024414062,-1.0032349,0.046813965,8.015625,6.359375,0.3125
713,0.0053710938,-1.0247192,0.046569824,5.25,-4.6875,0.6875
714,-0.030029297,-0.9492798,-0.01739502,3.65625,-2.234375,-0.296875
715,0.014404297,-0.9817505,0.03265381,8.046875,3.40625,0.625
716,-0.009521484,-1.0217896,0.0079956055,-0.203125,7.140625,1.9375
717,-0.032958984,-1.0484009,0.019226074,-2.640625,7.421875,0.953125
718,0.017578125,-0.9824829,0.038513184,-5.828125,1.703125,2.296875
719,-0.026611328,-0.9973755,0.10662842,-12.359375,-5.75,1.4375
720,0.046142578,-0.95880127,0.066101074,-12.390625,-11.921875,1.53125
721,0.033935547,-0.9763794,0.073913574,-8.234375,-15.140625,0.25
722,-0.014404297,-1.0039673,0.124694824,-6.796875,-15.8125,0.984375
723,-0.012207031,-0.9981079,0.09075928,-7.65625,-16.140625,0.53125
724,0.010986328,-0.99786377,0.07269287,-2.59375,-13.296875,0.40625
725,-0.0007324219,-0.9883423,0.10491943,-0.125,-10.359375,0.546875
726,0.03540039,-1.0276489,-0.0134887695,8.203125,1.40625,0.765625
727,-0.007080078,-0.9421997,0.101745605,13.234375,10.203125,4.296875
728,0.06274414,-1.029602,0.09954834,22.6875,23.90625,1.953125
729,0.0012207031,-1.0195923,0.07928467,3.453125,-5.53125,-1.28125
730,0.05810547,-1.0979614,0.09686279,-2.21875,-9.6875,-4.359375
731,-0.016113281,-1.0220337,0.0048217773,-3.984375,-13.765625,-1.078125
732,-0.030273438,-0.911438,-0.05670166,-10.890625,-25.203125,-1.453125
733,-0.033447266,-0.9795532,-0.06842041,0.140625,-5.84375,-2.890625
734,0.005126953,-1.0154419,-0.02911377,1.515625,-4.859375,-1.828125
735,-0.0068359375,-0.98565674,-0.14678955,-7.328125,6.34375,-1.140625
736,0.016845703,-0.9702759,0.10223389,-6.828125,3.046875,-0.875
737,-0.06225586,-1.055481,0.08148193,-3.796875,1.328125,-0.46875
738,-0.014892578,-1.041565,0.062927246,-5.703125,2.1875,0.125
739,0.010253906,-0.92852783,0.042175293,-5.953125,-2.5,1.1875
740,-0.022949219,-0.95880127,0.06072998,4.234375,-9.078125,-0.3125
741,-0.010009766,-0.9871216,-0.04937744,2.5625,-5.40625,-1.734375
742,0.0021972656,-0.9871216,-0.020568848,-7.359375,7.71875,-0.671875
743,-0.052734375,-1.0083618,0.05218506,-5.015625,4.6875,-1.140625
744,-0.029785156,-1.0337524,0.08099365,-5.71875,2.375,-1.25
745,-0.022705078,-1.0130005,0.074645996,-4.0625,0.1875,-0.046875
746,-0.018798828,-0.956604,0.07220459,-6.0625,-5.203125,0.296875
747,-0.009765625,-0.9751587,0.105163574,-1.125,-4.484375,1.03125
748,-0.0029296875,-0.9998169,0.082214355,0.703125,-7.40625,1.96875
749,-0.0031738281,-0.9951782,0.057800293,1.359375,-6.046875,2.0
750,0.013671875,-1.008606,0.04144287,0.671875,-6.578125,1.390625
751,0.10229492,-1.0889282,-0.09039307,5.015625,-11.875,2.6875
752,-0.05493164,-1.067688,0.12640381,-1.171875,-4.5,1.078125
753,-0.029541016,-1.0447388,0.06317139,-1.171875,0.953125,-1.0
754,0.016357422,-0.9780884,-0.026672363,-1.15625,-3.203125,-0.609375
755,-0.0012207031,-0.90167236,-0.05718994,5.1875,-7.6875,-1.40625
756,-0.006591797,-0.9990845,-0.113098145,2.453125,-2.71875,-2.03125
757,0.02758789,-0.9920044,-0.031799316,-0.609375,11.546875,-0.140625
758,-0.008544922,-1.0413208,0.05291748,-1.484375,1.6875,0.609375
759,-0.08666992,-1.0723267,0.040222168,-5.5625,0.40625,1.453125
