sample_no,accel_x,accel_y,accel_z,gyro_x,gyro_y,gyro_z
0,-0.17773438,-1.0042114,0.001159668,0.015625,3.09375,4.421875
1,-0.122802734,-0.93048096,-0.032287598,0.8125,1.140625,0.125
2,-0.12402344,-1.0115356,0.04852295,2.0625,5.71875,-0.34375
3,-0.18261719,-1.0066528,0.03729248,-2.90625,-2.078125,6.40625
4,-0.20898438,-1.0249634,-0.21783447,-2.28125,-2.953125,4.828125
5,-0.03466797,-0.9204712,0.13983154,-7.34375,1.390625,3.625
6,-0.13183594,-1.0488892,-0.00079345703,-2.953125,5.265625,-0.953125
7,-0.08520508,-0.9644165,0.13861084,0.84375,4.8125,-3.28125
8,0.0014648438,-0.9795532,0.13739014,-6.46875,3.546875,-6.0625
9,-0.12524414,-1.010315,0.059753418,3.46875,-6.375,1.859375
10,-0.20605469,-0.95806885,0.06439209,2.15625,5.609375,1.484375
11,-0.18969727,-0.97540283,0.055847168,1.34375,14.765625,-1.71875
12,-0.12182617,-1.0442505,0.0060424805,-8.984375,8.765625,3.0
13,-0.1965332,-0.99957275,-0.038391113,-22.71875,1.421875,-4.609375
14,-0.115234375,-0.9927368,0.10028076,-4.5625,15.5,-1.71875
15,-0.15576172,-1.0176392,0.07269287,-7.046875,5.546875,-2.5625
16,-0.15673828,-0.97857666,0.09051514,-11.40625,1.25,-3.703125
17,-0.17236328,-0.97320557,0.11932373,-1.140625,-4.9375,-4.203125
18,-0.15185547,-0.98443604,0.043151855,14.453125,-3.03125,-1.453125
19,-0.12548828,-0.9421997,0.06707764,14.4375,-0.296875,1.015625
20,-0.14379883,-0.9627075,0.027770996,2.90625,-5.640625,1.921875
21,-0.17871094,-1.0015259,0.09686279,12.21875,-2.96875,4.953125
22,-0.06738281,-0.9795532,0.0014038086,7.6875,-7.328125,2.75
23,-0.1315918,-0.9546509,0.04925537,11.625,-2.953125,3.015625
24,-0.14624023,-1.0022583,-0.0044555664,11.140625,-4.203125,6.75
25,-0.14355469,-1.0291138,0.010437012,6.71875,2.0625,3.078125
26,-0.1940918,-0.97369385,0.019714355,7.578125,0.0625,5.09375
27,-0.076416016,-0.99591064,-0.022766113,5.890625,-0.375,0.046875
28,-0.18334961,-1.020813,-0.13702393,-1.921875,-4.703125,3.03125
29,0.014160156,-0.9776001,0.028503418,-0.921875,11.953125,1.53125
30,-0.2849121,-1.0703735,0.117126465,-6.0625,-2.421875,1.59375
31,-0.20043945,-0.9414673,0.02923584,-4.125,2.8125,-1.609375
32,-0.026611328,-0.93634033,-0.009338379,4.03125,2.953125,1.640625
33,-0.1381836,-1.0723267,-0.031555176,1.234375,2.328125,-0.859375
34,-0.083496094,-0.99298096,-0.038146973,-1.84375,-0.265625,-2.828125
35,-0.095458984,-0.97125244,-0.034729004,-1.90625,2.21875,-2.171875
36,-0.1538086,-1.0276489,0.0033569336,-3.484375,1.421875,-1.828125
37,-0.13549805,-0.98028564,0.007507324,-2.75,1.75,-0.390625
38,-0.15625,-1.0032349,0.014343262,-3.484375,-0.046875,-0.90625
39,-0.15429688,-0.9717407,-0.0064086914,-4.4375,1.71875,-0.421875
40,-0.092285156,-0.9522095,-0.07720947,-10.234375,0.65625,3.1875
41,-0.16870117,-1.0237427,0.066833496,-6.125,-4.203125,2.3125
42,-0.15332031,-1.0337524,0.11077881,-0.171875,2.421875,-1.171875
43,-0.17700195,-0.9805298,0.10296631,3.625,-0.21875,1.59375
44,-0.13452148,-0.97442627,0.013122559,-0.09375,-0.484375,-4.84375
45,-0.035888672,-0.973938,-0.05279541,8.3125,-1.546875,-0.46875
46,-0.19433594,-1.0410767,-0.028625488,2.578125,-1.578125,2.359375
47,-0.06323242,-1.0193481,-0.010803223,0.390625,3.6875,0.078125
48,-0.14624023,-0.99542236,0.012878418,-1.515625,2.4375,3.140625
49,-0.13354492,-0.9541626,0.03387451,-2.265625,3.46875,2.796875
50,-0.13134766,-0.928772,-0.08770752,-8.109375,-7.578125,1.28125
51,-0.08569336,-0.9614868,0.16815186,-1.8125,-5.59375,2.46875
52,-0.19555664,-1.0215454,0.035095215,-3.4375,1.34375,0.40625
53,-0.13183594,-1.036438,0.062683105,4.015625,3.078125,-0.734375
54,-0.11987305,-1.0420532,0.025817871,1.234375,-3.78125,0.375
55,-0.13012695,-0.942688,-0.023742676,4.484375,2.75,-4.90625
56,-0.072265625,-1.0164185,-0.047180176,0.6875,1.40625,1.140625
57,-0.08203125,-0.928772,-0.022277832,-0.78125,1.859375,2.796875
58,-0.14111328,-0.99005127,0.043151855,-0.421875,4.265625,2.21875
59,-0.091308594,-0.99298096,0.07757568,0.15625,3.25,2.078125
60,-0.09765625,-0.96343994,-0.22320557,-4.296875,-3.796875,-0.578125
61,-0.07080078,-0.9414673,0.13934326,-0.328125,-1.109375,4.390625
62,-0.2355957,-1.0979614,0.12591553,-6.3125,-3.703125,-0.234375
63,-0.026855469,-0.95269775,0.081970215,3.15625,8.03125,-2.78125
64,-0.15625,-1.0471802,0.086364746,4.09375,-1.34375,1.09375
65,-0.20043945,-1.0029907,0.023864746,-1.921875,-1.9375,-2.578125
66,-0.03857422,-0.9590454,-0.024963379,3.421875,5.171875,-2.5625
67,-0.06274414,-1.0291138,-0.027893066,0.15625,3.09375,3.625
68,-0.12939453,-0.96881104,0.007751465,0.109375,1.359375,0.375
69,-0.14111328,-0.93927,0.055114746,2.40625,2.546875,3.65625
70,-0.08325195,-0.97125244,-0.004699707,2.796875,1.671875,0.515625
71,-0.10083008,-1.0203247,0.02923584,1.03125,1.1875,0.46875
72,-0.028320312,-1.0112915,-0.13165283,0.671875,-5.453125,1.109375
73,-0.13891602,-1.0171509,0.093444824,-4.0,-7.9375,-1.375
74,-0.24194336,-1.013977,0.015563965,-8.171875,2.515625,-1.359375
75,-0.09472656,-0.9902954,0.030456543,-9.203125,2.03125,-4.78125
76,-0.06323242,-1.0327759,0.1593628,-10.546875,-1.71875,-7.796875
77,-0.10498047,-0.9216919,-0.10040283,-5.046875,4.515625,-3.0625
78,-0.15673828,-0.9343872,-0.008850098,1.140625,4.71875,-1.375
79,-0.11791992,-1.0164185,0.10760498,4.3125,11.171875,0.03125
80,-0.14160156,-1.0220337,0.0446167,4.640625,16.828125,4.21875
81,-0.114746094,-1.0059204,0.093933105,1.515625,10.453125,-1.546875
82,-0.15527344,-0.99346924,0.08050537,-17.78125,-2.59375,-1.875
83,-0.14550781,-0.95025635,0.00091552734,-2.140625,-11.234375,-0.6875
84,-0.080322266,-1.0230103,-0.029846191,11.234375,-2.59375,0.21875
85,-0.16064453,-0.99835205,-0.022766113,15.15625,4.34375,2.5625
86,-0.14111328,-0.90093994,-0.005432129,4.75,-2.28125,4.609375
87,-0.1875,-1.0112915,0.058288574,7.015625,-5.53125,-0.1875
88,-0.12792969,-1.0288696,-0.012512207,5.203125,-2.03125,4.515625
89,-0.03564453,-0.95928955,0.015808105,2.578125,1.65625,4.078125
90,-0.17211914,-0.97979736,0.004333496,5.109375,-2.53125,4.234375
91,-0.13598633,-0.9780884,-0.023254395,3.625,2.75,3.015625
92,-0.14672852,-0.96588135,0.010437012,2.390625,-0.5,6.453125
93,-0.09350586,-1.0471802,-0.037902832,4.84375,6.296875,3.625
94,0.09887695,-1.0796509,-0.09039307,0.25,-0.578125,-2.71875
95,-0.12011719,-0.98101807,-0.17755127,-9.484375,-8.921875,1.078125
96,-0.14941406,-0.8562622,0.12420654,-0.109375,-3.34375,4.0
97,-0.11694336,-1.1001587,-0.1404419,-4.15625,2.296875,-4.4375
98,-0.09375,-0.9480591,0.097839355,0.171875,1.859375,4.4375
99,-0.15576172,-1.0093384,0.04510498,0.59375,-0.609375,-0.40625
100,-0.08154297,-1.0205688,-0.058898926,-0.59375,1.625,-2.875
101,-0.009521484,-0.9819946,-0.04083252,0.953125,2.515625,2.421875
102,-0.059570312,-1.0274048,-0.046447754,-1.09375,1.65625,-1.140625
103,-0.08325195,-0.96466064,-0.00592041,0.09375,1.21875,1.484375
104,-0.13330078,-0.9780884,-0.047180176,-1.25,0.8125,1.09375
105,-0.10058594,-1.0044556,0.023620605,0.515625,2.484375,0.84375
106,-0.1015625,-0.9981079,-0.04156494,-0.671875,2.09375,0.796875
107,-0.088378906,-0.9631958,0.006286621,0.640625,3.09375,-0.4375
108,-0.07910156,-0.9927368,-0.04058838,-0.5,1.921875,0.15625
109,-0.059326172,-0.9841919,0.004333496,-0.46875,-0.0625,0.0625
110,-0.07495117,-1.0252075,-0.34869385,-7.0,-4.203125,-2.46875
111,-0.061523438,-0.9133911,0.046325684,-6.5,0.234375,0.921875
112,-0.16259766,-1.017395,0.1005249,-6.59375,3.890625,-0.4375
113,-0.19213867,-1.0178833,0.073913574,1.5625,4.0,-2.8125
114,-0.05859375,-0.91119385,0.026062012,1.890625,0.84375,4.234375
115,-0.10620117,-1.0264282,-0.037902832,1.984375,-0.28125,-3.65625
116,-0.04296875,-0.9963989,0.0014038086,2.953125,1.59375,-1.0625
117,-0.114746094,-1.0137329,-0.02935791,0.09375,0.8125,3.59375
118,-0.075927734,-0.99005127,-0.012023926,0.125,0.984375,-1.03125
119,-0.079833984,-0.96417236,0.046569824,2.5625,-2.328125,4.625
120,-0.15209961,-0.98883057,-0.0071411133,1.734375,-0.875,1.296875
121,-0.07104492,-1.0012817,-0.007385254,1.28125,1.546875,1.4375
122,-0.08862305,-1.010315,-0.050109863,0.078125,2.484375,1.21875
123,-0.016357422,-0.9273071,-0.0068969727,0.734375,4.296875,1.0625
124,-0.048095703,-0.99664307,-0.073791504,-5.203125,-1.84375,0.125
125,-0.16699219,-0.9956665,0.19134521,-2.171875,-2.765625,-0.625
126,-0.13305664,-1.0708618,-0.10845947,1.3125,5.859375,-2.0
127,0.010498047,-0.9651489,0.07928467,2.328125,3.75,3.171875
128,-0.24584961,-1.0237427,-0.0154418945,-2.5,-3.140625,0.140625
129,-0.010986328,-0.9390259,-0.028625488,0.921875,1.828125,0.625
130,-0.03100586,-1.0493774,0.01751709,0.28125,-2.828125,0.28125
131,-0.1303711,-0.9397583,-0.0037231445,-3.203125,-1.734375,-0.296875
132,-0.08496094,-0.96417236,0.018737793,-1.1875,0.765625,0.609375
133,-0.09887695,-1.0606079,-0.026672363,2.328125,3.734375,-2.359375
134,0.0087890625,-1.00177,-0.027648926,-1.296875,2.390625,0.09375
135,-0.07373047,-0.95928955,-0.03302002,-0.25,0.21875,1.8125
136,-0.11767578,-0.95098877,-0.030578613,2.8125,5.84375,2.59375
137,0.0048828125,-1.0210571,-0.06060791,0.109375,2.34375,2.03125
138,-0.11743164,-1.0789185,0.10296631,-4.0625,1.84375,-3.953125
139,-0.1953125,-0.94415283,0.066833496,-2.6875,-4.8125,0.359375
140,-0.10205078,-0.9417114,0.042907715,2.390625,1.25,2.53125
141,-0.060546875,-1.0918579,0.04046631,3.765625,0.734375,-1.0
142,-0.17822266,-1.0437622,-0.024963379,-3.1875,-2.15625,-0.25
143,-0.014160156,-0.8909302,-0.027404785,-1.6875,2.859375,-2.890625
144,-0.04296875,-1.0027466,-0.023986816,2.421875,-0.796875,1.25
145,-0.11450195,-1.0039673,-0.013977051,1.96875,-1.734375,-0.125
146,-0.09667969,-1.0154419,-0.014953613,2.796875,1.765625,-0.328125
147,-0.0847168,-1.0159302,-0.04937744,0.265625,8.0,0.09375
148,-0.048095703,-0.95147705,0.0033569336,1.34375,8.078125,0.40625
149,-0.055664062,-0.97442627,0.029968262,-0.6875,2.390625,3.03125
150,-0.0043945312,-0.96661377,-0.113342285,2.390625,2.09375,2.984375
151,-0.13867188,-1.0930786,0.08856201,-4.46875,-5.796875,0.078125
152,-0.13989258,-0.99591064,-0.005432129,-2.625,3.625,-3.65625
153,-0.15185547,-1.0046997,0.01361084,-5.734375,-3.34375,1.609375
154,-0.033447266,-1.0176392,0.030944824,-4.828125,-2.578125,-6.03125
155,-0.12695312,-0.9680786,-0.054992676,-1.640625,-6.03125,-3.359375
156,-0.11791992,-1.0393677,0.058776855,1.515625,2.3125,-2.8125
157,-0.012207031,-0.97320557,-0.03375244,-3.546875,3.734375,-2.09375
158,-0.026855469,-0.8633423,0.0602417,0.078125,6.515625,-0.546875
159,-0.11230469,-1.0195923,0.028747559,-0.796875,7.84375,-1.859375
160,-0.11254883,-1.0410767,-0.013244629,-4.171875,7.21875,-3.53125
161,-0.17919922,-0.9944458,0.017028809,-0.296875,13.875,-2.59375
162,-0.1508789,-1.0188599,0.004333496,-5.734375,15.78125,-1.671875
163,-0.10986328,-1.0293579,0.03387451,-7.3125,13.046875,-1.453125
164,-0.12207031,-0.991272,0.02142334,0.46875,16.890625,0.765625
165,-0.14501953,-0.9824829,0.027038574,2.546875,17.234375,0.171875
166,-0.1628418,-1.0164185,0.06488037,2.703125,18.984375,-0.25
167,-0.111816406,-1.0161743,0.04119873,4.328125,20.375,-0.46875
168,-0.1171875,-0.96466064,0.014099121,6.75,17.6875,-0.75
169,-0.13452148,-0.9849243,0.016052246,8.140625,12.234375,-0.46875
170,-0.106933594,-0.98028564,0.013366699,7.75,8.765625,-0.234375
171,-0.09741211,-1.005188,0.0053100586,-1.09375,1.859375,-0.921875
172,-0.12207031,-0.98150635,0.00970459,-0.265625,-5.546875,-0.484375
173,-0.10083008,-0.94781494,-0.014465332,6.796875,-11.671875,-1.171875
174,-0.103515625,-0.9302368,-0.10235596,29.46875,-7.203125,3.140625
175,-0.10668945,-0.9192505,-0.13482666,22.84375,-6.1875,6.6875
176,-0.15966797,-1.0950317,-0.09552002,6.5,-22.171875,4.171875
177,-0.068847656,-0.91729736,-0.06085205,-4.5625,-22.28125,1.75
178,-0.18481445,-1.0195923,-0.043029785,3.984375,-9.046875,-0.421875
179,-0.06640625,-1.0122681,-0.09820557,3.265625,-3.3125,0.296875
180,-0.060791016,-0.97979736,-0.1272583,6.21875,-8.28125,2.15625
181,-0.12792969,-0.9859009,-0.09698486,4.984375,-3.0625,1.265625
182,-0.041259766,-0.9414673,-0.13848877,2.875,-4.15625,2.796875
183,-0.10058594,-1.0076294,-0.10235596,4.453125,-2.046875,1.75
184,-0.1027832,-1.006897,-0.101867676,3.09375,-2.046875,1.265625
185,-0.09667969,-1.024231,-0.14849854,1.71875,-1.625,-0.9375
186,-0.05078125,-0.97198486,-0.15509033,-1.1875,-0.265625,-0.5625
187,0.005126953,-0.956604,-0.1585083,-3.625,-0.609375,0.90625
188,-0.12036133,-0.9163208,-0.023498535,-3.6875,-5.53125,2.09375
189,-0.103271484,-1.0025024,-0.02130127,-6.53125,-1.796875,-0.515625
190,-0.13989258,-0.9854126,-0.10455322,-4.65625,-1.03125,-1.984375
191,-0.041503906,-1.0176392,-0.11456299,-3.921875,0.515625,1.078125
192,-0.07836914,-0.97784424,-0.10601807,-4.25,-1.1875,-2.171875
193,-0.048583984,-0.989563,-0.12384033,-5.859375,1.109375,0.96875
194,-0.07739258,-0.97540283,-0.03668213,-4.125,1.171875,-0.359375
195,-0.09667969,-0.9956665,-0.05670166,-5.34375,-0.703125,1.4375
196,-0.091308594,-1.0095825,-0.07720947,-3.921875,-1.84375,0.375
197,-0.08129883,-0.9758911,-0.04156494,-2.75,-0.75,0.4375
198,-0.10205078,-1.0291138,-0.053771973,3.109375,1.078125,-0.875
199,-0.057373047,-0.9522095,-0.050842285,4.578125,-1.828125,0.640625
200,-0.083496094,-0.99053955,-0.08111572,2.5,-1.78125,1.421875
201,-0.08520508,-1.0383911,-0.036193848,0.46875,2.0,2.296875
202,-0.007080078,-1.0547485,-0.36187744,-14.3125,-7.078125,-1.671875
203,-0.08520508,-0.9104614,0.089782715,-14.625,4.8125,1.59375
204,-0.2019043,-0.94415283,0.12615967,-12.34375,1.046875,1.765625
205,-0.0847168,-1.0508423,0.039733887,2.046875,5.34375,-5.328125
206,-0.09008789,-0.9819946,0.01361084,2.859375,1.9375,-0.65625
207,-0.052490234,-0.9939575,-0.058654785,2.953125,-0.6875,0.75
208,-0.056152344,-1.0266724,-0.09088135,-0.0625,0.96875,-0.5
209,-0.04711914,-1.0234985,-0.062316895,0.5,-0.90625,2.765625
210,-0.11376953,-0.9446411,-0.04498291,-0.796875,-0.3125,-1.046875
211,-0.0146484375,-1.0054321,-0.055725098,-1.390625,2.265625,0.53125
212,0.030273438,-1.0288696,-0.20806885,-10.9375,-0.09375,-0.921875
213,-0.16064453,-0.89141846,0.262146,-10.828125,-5.3125,2.0625
214,-0.14233398,-1.0513306,0.0036010742,-3.21875,7.40625,-4.984375
215,-0.09350586,-1.0379028,0.016540527,6.234375,3.125,0.765625
216,-0.0087890625,-0.9976196,-0.026672363,6.921875,-3.703125,2.328125
217,-0.14916992,-1.0032349,-0.07965088,4.0,1.015625,-4.046875
218,0.009033203,-1.0274048,-0.108947754,0.875,3.109375,3.0625
219,-0.0041503906,-0.89434814,-0.055725098,0.828125,0.0625,2.796875
220,-0.14355469,-0.9644165,-0.043029785,4.125,-0.046875,2.453125
221,-0.0048828125,-0.98223877,-0.21954346,-2.6875,-1.984375,2.640625
222,-0.10668945,-1.0964966,0.18450928,-0.78125,3.984375,5.96875
223,-0.2290039,-1.104065,0.14422607,-10.359375,0.28125,-0.8125
224,-0.12792969,-0.9356079,-0.019836426,6.234375,4.90625,-0.140625
225,0.0043945312,-1.0667114,0.011657715,4.03125,1.28125,-0.71875
226,-0.15942383,-0.98443604,-0.054260254,-0.703125,-3.375,-3.046875
227,-0.0126953125,-0.9365845,-0.09503174,0.46875,2.515625,-2.578125
228,0.09082031,-0.99176025,-0.093811035,2.28125,-1.546875,1.75
229,-0.1237793,-0.9585571,-0.0335083,3.671875,1.25,2.921875
230,-0.14477539,-0.9512329,-0.038879395,3.703125,4.296875,2.40625
231,-0.025390625,-1.0772095,0.105895996,1.65625,2.953125,5.125
232,-0.20507812,-1.0525513,0.16693115,-9.109375,-5.65625,-1.0
233,-0.16137695,-0.9146118,-0.13409424,3.40625,8.578125,-4.40625
234,0.02758789,-1.0545044,-0.028625488,2.578125,3.546875,-1.4375
235,-0.118652344,-1.0523071,-0.0134887695,-0.15625,-4.828125,0.640625
236,-0.07421875,-0.8533325,-0.12652588,0.9375,2.671875,-2.71875
237,0.005126953,-1.0369263,-0.05255127,4.6875,4.703125,2.515625
238,-0.08959961,-1.0108032,-0.07623291,-0.625,2.515625,-1.203125
239,0.0031738281,-0.85772705,-0.20855713,1.5625,5.203125,1.75
240,-0.024414062,-0.98565674,-0.024475098,-3.671875,1.75,4.171875
241,-0.15429688,-1.055481,0.1161499,-7.5625,-4.34375,-4.375
242,-0.09790039,-0.92755127,-0.005432129,-1.828125,-0.5,-1.8125
243,-0.09399414,-1.092102,0.0053100586,3.265625,-3.171875,-1.046875
244,-0.15039062,-1.0303345,-0.057434082,-1.140625,-3.765625,-1.890625
245,-0.045166016,-0.9019165,-0.062561035,-2.203125,-0.5625,0.234375
246,-0.008544922,-0.9998169,-0.043029785,-0.953125,0.953125,2.640625
247,-0.09033203,-1.0115356,0.014831543,-1.671875,5.53125,-0.953125
248,-0.020751953,-1.034729,-0.06939697,8.234375,4.25,-1.484375
249,-0.14355469,-0.95098877,-0.044006348,3.59375,4.734375,0.875
250,-0.119140625,-0.9299927,-0.061828613,0.171875,10.765625,1.65625
251,-0.07470703,-1.1067505,-0.06890869,0.25,8.484375,-3.734375
252,-0.07324219,-1.0491333,-0.03326416,-13.0625,3.53125,-3.84375
253,-0.13500977,-0.90411377,-0.035217285,-12.453125,9.328125,-3.65625
254,-0.12011719,-0.960022,-0.004699707,-9.375,14.28125,-5.3125
255,-0.092041016,-1.0457153,0.022399902,-3.453125,16.953125,-2.171875
256,-0.10546875,-1.0059204,0.008972168,-0.140625,16.390625,-0.328125
257,-0.11303711,-0.9859009,0.005065918,1.21875,13.84375,-0.671875
258,-0.10986328,-0.99420166,0.016052246,1.296875,10.9375,-1.484375
259,-0.1159668,-0.9793091,-0.012023926,4.1875,8.40625,-0.171875
260,-0.096191406,-0.954895,-0.022277832,9.546875,12.40625,-0.921875
261,-0.14379883,-0.9824829,-0.03668213,13.8125,11.84375,-1.328125
262,-0.06689453,-0.9890747,0.00018310547,3.484375,-15.109375,1.921875
263,-0.20532227,-0.9055786,-0.101867676,12.9375,-39.8125,5.625
264,-0.068115234,-1.0137329,-0.12701416,12.15625,-22.21875,4.375
265,-0.0048828125,-0.97906494,-0.09527588,1.359375,-13.84375,0.640625
266,-0.08886719,-1.0120239,-0.05987549,5.203125,-7.25,3.671875
267,-0.09667969,-1.0098267,-0.109436035,5.921875,-3.96875,2.9375
268,-0.028320312,-0.93536377,-0.066711426,6.359375,-0.28125,1.6875
269,-0.119628906,-0.9951782,-0.11187744,5.40625,-1.140625,3.640625
270,-0.095458984,-1.0322876,-0.07086182,5.6875,1.3125,0.71875
271,-0.008056641,-0.991272,-0.13116455,3.0625,1.046875,0.28125
272,-0.099365234,-1.0437622,-0.28912354,2.796875,3.15625,1.328125
273,0.011230469,-0.9812622,-0.0803833,-4.0625,11.203125,1.125
274,-0.17626953,-0.956604,-0.105773926,-1.03125,-0.25,2.671875
275,-0.09008789,-0.9788208,-0.06011963,-3.09375,-3.296875,-0.640625
276,-0.10839844,-1.0007935,-0.12188721,-0.671875,-3.46875,0.453125
277,-0.013427734,-0.9961548,-0.14727783,-2.171875,0.265625,0.515625
278,-0.064208984,-1.0176392,-0.14556885,-3.0,-0.703125,-1.90625
279,-0.08251953,-0.9546509,-0.124572754,-4.359375,-0.53125,0.484375
280,-0.06616211,-0.9846802,-0.0569458,-4.140625,-0.078125,-1.921875
281,-0.09277344,-0.9824829,-0.10699463,-5.609375,-0.421875,-0.078125
282,-0.03149414,-0.99468994,-0.042297363,-5.421875,0.3125,0.515625
283,-0.07788086,-1.0181274,-0.070373535,-5.0625,-1.09375,-1.953125
284,-0.15576172,-1.005188,-0.057922363,1.21875,2.6875,-3.171875
285,-0.042236328,-0.95758057,-0.07574463,2.3125,-0.59375,1.6875
286,-0.09057617,-0.9673462,-0.08404541,2.90625,-0.09375,1.21875
287,-0.026611328,-1.0357056,-0.089904785,-0.609375,0.390625,0.9375
288,-0.10107422,-0.99005127,-0.12261963,-3.75,-0.046875,1.703125
289,-0.041259766,-1.0352173,-0.12188721,-3.515625,4.484375,1.78125
290,-0.17382812,-1.0020142,0.12298584,-6.953125,-4.28125,1.046875
291,-0.14038086,-0.99542236,-0.124816895,-1.125,6.75,-1.421875
292,0.0009765625,-0.9614868,-0.032043457,3.21875,3.234375,1.625
293,-0.05517578,-1.0557251,-0.085998535,4.265625,0.53125,0.28125
294,-0.072021484,-0.94415283,-0.074523926,-1.96875,2.171875,-0.359375
295,-0.015625,-0.98028564,-0.039855957,2.875,2.328125,3.671875
296,-0.045898438,-1.0142212,-0.051574707,0.234375,-1.28125,0.265625
297,-0.060302734,-0.99884033,-0.05230713,0.40625,1.578125,1.828125
298,-0.068847656,-0.9458618,-0.050109863,-1.5625,2.078125,0.609375
299,-0.0024414062,-1.0022583,-0.3328247,-6.4375,1.734375,-0.796875
300,-0.018310547,-1.0042114,0.074401855,-8.21875,0.796875,3.140625
301,-0.18847656,-1.020813,0.039245605,-12.546875,-0.4375,0.0
302,-0.1352539,-0.989563,0.015563965,5.484375,6.234375,-2.5625
303,-0.015136719,-1.0166626,0.014099121,3.96875,-0.765625,1.953125
304,-0.15917969,-0.98223877,-0.08746338,2.875,-2.84375,0.03125
305,-0.020996094,-0.9920044,-0.1104126,2.1875,3.4375,-2.5625
306,-0.011962891,-1.0039673,-0.08892822,-0.078125,1.0625,2.140625
307,-0.0546875,-0.989563,-0.05718994,0.375,2.28125,-0.640625
308,-0.08227539,-0.9151001,-0.039123535,3.1875,2.3125,1.1875
309,-0.029296875,-1.0291138,-0.14190674,1.375,2.765625,-0.59375
310,-0.053466797,-1.0432739,0.1762085,-0.59375,6.3125,4.96875
311,-0.22314453,-1.0420532,0.13275146,-3.640625,-3.734375,2.109375
312,-0.06591797,-0.9338989,-0.058166504,2.28125,7.09375,-3.109375
313,-0.014404297,-1.0789185,-0.05255127,1.640625,-0.78125,2.703125
314,-0.103027344,-0.9714966,-0.097473145,-0.171875,-6.859375,-1.53125
315,-0.020751953,-0.82110596,-0.1260376,2.875,0.140625,-1.109375
316,-0.03857422,-1.0769653,-0.06890869,6.9375,-1.859375,1.96875
317,-0.1003418,-1.0327759,-0.07598877,1.0,-0.375,-0.65625
318,-0.037353516,-0.9492798,-0.09454346,2.953125,4.609375,1.734375
319,-0.024414062,-0.9758911,-0.13677979,0.046875,3.96875,1.484375
320,0.01586914,-1.0720825,0.1473999,-0.203125,7.84375,5.40625
321,-0.28857422,-1.0562134,0.11639404,-9.03125,-5.09375,-3.5625
322,-0.016357422,-0.91729736,-0.0335083,-9.109375,1.203125,-1.6875
323,-0.028564453,-1.1130981,0.007019043,-10.21875,-1.21875,-7.9375
324,-0.064941406,-0.99884033,-0.08502197,-3.28125,-6.0625,0.6875
325,-0.1015625,-0.92559814,-0.05670166,4.171875,-0.21875,-0.84375
326,-0.08203125,-0.97442627,-0.02911377,3.546875,4.5625,0.171875
327,-0.06762695,-0.9807739,-0.014465332,2.8125,8.78125,0.359375
328,-0.05444336,-0.9780884,-0.019592285,-0.5,7.84375,-2.359375
329,-0.12109375,-1.0366821,-0.0029907227,-4.125,9.140625,-3.6875
330,-0.10546875,-1.0354614,-0.038879395,-8.9375,11.515625,-3.203125
331,-0.050048828,-0.9819946,-0.057678223,-11.90625,10.203125,-3.90625
332,-0.072753906,-0.9746704,-0.023010254,-12.78125,11.578125,-2.859375
333,-0.11254883,-1.0213013,0.018249512,0.78125,14.0,-2.96875
334,-0.13085938,-0.9985962,0.001159668,1.859375,12.953125,-2.140625
335,-0.09277344,-0.9927368,0.020446777,3.984375,14.09375,0.421875
336,-0.12084961,-0.97784424,-0.019592285,2.015625,7.765625,-0.34375
337,-0.1003418,-0.98394775,0.0016479492,-2.359375,1.5,-1.671875
338,-0.110839844,-0.98760986,0.0014038086,-0.0625,1.125,-1.84375
339,-0.10180664,-1.0115356,0.028503418,2.578125,1.78125,1.28125
340,-0.09008789,-0.94610596,-0.050598145,9.71875,-6.796875,1.5625
341,-0.09472656,-0.9356079,-0.08721924,20.0625,-7.875,5.203125
342,-0.10107422,-0.9187622,-0.09698486,17.421875,-17.359375,5.546875
343,-0.05493164,-1.098938,-0.09820557,21.140625,-11.5,5.8125
344,-0.064208984,-0.972229,-0.066223145,10.375,-6.984375,5.25
345,-0.061523438,-0.97540283,-0.14093018,1.40625,-6.671875,2.1875
346,-0.06616211,-1.0320435,-0.13189697,8.515625,-4.203125,4.8125
347,-0.05810547,-0.9937134,-0.07696533,7.21875,0.96875,4.796875
348,-0.08862305,-0.9595337,-0.16046143,4.140625,-2.296875,3.90625
349,-0.03564453,-0.96295166,-0.14605713,2.78125,1.28125,3.421875
350,-0.030517578,-1.0003052,-0.17242432,1.1875,1.203125,4.390625
351,-0.0625,-1.0261841,-0.3555298,-1.375,-0.734375,1.75
352,-0.009521484,-0.9758911,-0.10479736,-10.640625,8.421875,4.625
353,-0.08959961,-0.97442627,-0.086242676,-4.390625,-1.8125,1.25
354,-0.014404297,-0.97491455,-0.06964111,-3.984375,-1.8125,3.140625
355,-0.07397461,-1.010315,-0.10430908,-0.984375,-1.8125,0.671875
356,0.032226562,-0.98443604,-0.15655518,-2.640625,-0.8125,0.171875
357,0.0073242188,-0.9451294,-0.13018799,-5.203125,-1.375,0.65625
358,-0.028076172,-0.9685669,-0.12237549,-3.0,-1.671875,-1.15625
359,-0.0053710938,-1.0122681,-0.10211182,-3.640625,-0.921875,-2.0
360,-0.029541016,-0.98516846,-0.06549072,-2.515625,-2.09375,-2.296875
361,-0.05444336,-1.0025024,-0.06427002,-0.484375,-1.515625,-3.015625
362,0.00048828125,-0.975647,-0.113586426,1.96875,-0.0625,-1.515625
363,-0.038085938,-0.9834595,-0.13116455,0.5625,-2.203125,1.421875
364,-0.024658203,-0.95880127,-0.12017822,-0.265625,-0.140625,0.8125
365,-0.0793457,-1.0291138,-0.1104126,0.453125,2.015625,1.28125
366,-0.0026855469,-0.9727173,-0.08917236,-2.140625,1.71875,-0.796875
367,0.057861328,-0.98687744,-0.3118286,-10.296875,0.15625,-0.84375
368,-0.072265625,-0.86602783,0.20916748,-9.75,-6.65625,-1.109375
369,-0.13793945,-0.97076416,-0.04425049,-4.25,5.828125,-1.296875
370,-0.024414062,-1.0127563,-0.035461426,7.0625,6.375,-0.359375
371,-0.064453125,-1.0337524,-0.06109619,6.390625,2.0,1.984375
372,-0.048828125,-0.9463501,-0.12579346,3.5625,4.375,1.15625
373,0.025634766,-1.000061,-0.11187744,3.265625,4.140625,0.453125
374,0.009277344,-1.006897,-0.08355713,1.734375,0.46875,2.59375
375,-0.041259766,-0.9780884,-0.097717285,0.671875,-0.5,0.828125
376,0.0056152344,-1.0171509,-0.09429932,-0.703125,0.921875,-0.4375
377,-0.033447266,-0.97320557,-0.09893799,-2.078125,-0.890625,0.6875
378,-0.03857422,-0.96710205,-0.11578369,-2.6875,0.015625,-0.171875
379,0.07104492,-1.0042114,-0.3862915,-5.78125,0.34375,0.3125
380,-0.03125,-0.92755127,0.03314209,-12.03125,-3.890625,0.015625
381,-0.09741211,-0.9998169,-0.031066895,-5.8125,-0.109375,-1.640625
382,-0.056396484,-1.0327759,0.009216309,6.75,2.984375,-1.046875
383,-0.075683594,-0.93951416,-0.030578613,3.046875,-0.796875,1.828125
384,-0.07543945,-1.0042114,-0.13092041,6.90625,-4.703125,-1.234375
385,0.05419922,-0.9680786,-0.12921143,1.234375,0.578125,-2.640625
386,-0.0026855469,-0.99102783,-0.09454346,2.0625,-1.1875,2.53125
387,-0.08325195,-1.0064087,-0.11016846,0.8125,1.125,0.640625
388,0.06616211,-0.9902954,-0.089904785,0.84375,2.328125,1.03125
389,-0.059814453,-0.97198486,-0.112854004,-2.578125,2.265625,0.984375
390,-0.004638672,-0.9661255,-0.066467285,-0.796875,2.015625,0.859375
391,0.045166016,-0.97662354,-0.3682251,-0.5,2.828125,-0.171875
392,-0.053955078,-0.99176025,0.05657959,-8.625,-2.96875,0.390625
393,-0.10888672,-1.0042114,-0.10406494,-1.921875,3.359375,-1.53125
394,0.051513672,-0.9644165,-0.057434082,2.3125,4.046875,0.09375
395,-0.048583984,-1.050354,-0.050354004,3.046875,-2.328125,-2.59375
396,-0.12451172,-1.0130005,-0.08892822,-1.046875,-6.625,-5.796875
397,-0.0031738281,-0.833313,-0.06060791,-4.40625,8.890625,-5.953125
398,0.03515625,-1.0545044,-0.09576416,2.390625,3.5,2.5625
399,-0.029541016,-1.0549927,-0.070373535,-0.40625,-0.984375,-5.96875
400,-0.053466797,-0.94732666,-0.019104004,-1.84375,6.265625,-1.6875
401,-0.037353516,-1.0178833,-0.07354736,-7.5,6.046875,-4.75
402,-0.13354492,-1.0108032,-0.06573486,-10.890625,5.453125,-5.328125
403,-0.10522461,-0.9522095,-0.06524658,-2.265625,9.21875,-6.65625
404,0.025390625,-1.0161743,-0.06866455,-3.4375,5.65625,-4.703125
405,-0.12084961,-1.03302,-0.03643799,-5.46875,4.4375,-9.640625
406,-0.13598633,-1.0010376,-0.012756348,-3.25,7.265625,-8.421875
407,-0.09326172,-0.98565674,-0.028137207,-2.65625,8.1875,-6.171875
408,-0.076171875,-0.96661377,-0.013244629,-3.34375,1.984375,-3.5
409,-0.122558594,-0.9976196,-0.05596924,-7.890625,-4.765625,-5.140625
410,-0.12011719,-0.96954346,0.030212402,3.75,-5.375,-4.828125
411,-0.16601562,-0.9331665,-0.085998535,24.015625,-3.765625,4.75
412,-0.08984375,-0.95147705,-0.15557861,21.984375,-5.890625,4.0625
413,-0.1472168,-1.013977,-0.026916504,8.796875,-13.1875,0.59375
414,-0.13256836,-1.0447388,-0.1975708,3.265625,-9.34375,5.578125
415,-0.1105957,-0.8648071,-0.07989502,4.40625,-6.296875,0.328125
416,-0.1665039,-1.0007935,-0.13116455,5.421875,-1.015625,5.796875
417,-0.17041016,-1.0393677,-0.14190674,6.21875,3.921875,2.78125
418,-0.07080078,-0.9570923,-0.14385986,1.6875,4.3125,5.515625
419,-0.110839844,-0.9209595,-0.12799072,1.671875,4.4375,5.140625
420,-0.11303711,-0.9944458,-0.14385986,1.734375,3.21875,5.21875
421,-0.09887695,-0.97857666,-0.11505127,2.65625,4.3125,3.96875
422,-0.12817383,-1.0396118,-0.24298096,1.9375,2.609375,4.375
423,0.015380859,-1.0357056,-0.05255127,-4.203125,14.03125,6.84375
424,-0.15771484,-0.94073486,-0.011047363,-0.9375,-1.984375,2.78125
425,-0.056396484,-0.9690552,-0.13433838,-1.609375,-0.953125,1.671875
426,-0.040039062,-0.95391846,-0.10430908,-1.140625,3.921875,4.234375
427,-0.017822266,-1.0857544,-0.120666504,-1.78125,3.21875,3.203125
428,-0.053222656,-1.0003052,-0.12872314,-3.15625,0.453125,2.828125
429,-0.04638672,-0.95025635,-0.10992432,-2.046875,1.15625,3.203125
430,-0.030029297,-0.9768677,-0.12774658,-0.625,1.8125,0.5
431,-0.005126953,-0.97003174,-0.08331299,2.296875,-0.21875,1.0625
432,-0.072753906,-0.98272705,-0.035949707,3.421875,0.25,-1.40625
433,-0.04638672,-1.0425415,-0.10797119,-2.328125,-1.4375,-0.140625
434,-0.0053710938,-0.96099854,-0.14141846,-0.09375,0.96875,0.234375
435,-0.06982422,-0.9795532,-0.11090088,-0.28125,-1.3125,1.3125
436,-0.01977539,-0.96588135,-0.13433838,-0.421875,1.140625,0.53125
437,-0.0793457,-1.0037231,-0.32183838,-5.953125,-0.75,1.03125
438,0.008544922,-1.0127563,-0.0044555664,-10.53125,5.96875,4.15625
439,-0.13867188,-0.9944458,-0.01373291,-5.140625,0.875,-0.109375
440,-0.02368164,-1.0408325,-0.08062744,7.171875,1.734375,-2.703125
441,-0.067871094,-1.0039673,0.008728027,3.28125,-2.6875,1.96875
442,-0.09716797,-1.0073853,-0.14971924,4.890625,0.390625,-1.53125
443,0.060302734,-0.98931885,-0.11456299,0.96875,1.703125,3.21875
444,-0.013183594,-0.9175415,-0.1362915,-0.421875,-0.578125,3.484375
445,-0.046875,-0.99176025,-0.11407471,-0.1875,1.765625,-0.015625
446,-0.009277344,-1.0178833,-0.08868408,-1.71875,-0.515625,1.125
447,-0.07006836,-1.0215454,-0.10406494,-1.28125,-0.78125,-0.8125
448,0.016601562,-0.9800415,-0.128479,-2.234375,0.140625,-4.078125
449,-0.047607422,-0.9277954,-0.1296997,-3.359375,-0.8125,-0.71875
450,-0.032226562,-0.9365845,-0.1638794,-0.4375,0.5625,0.515625
451,-0.06274414,-1.0847778,-0.089660645,-2.234375,10.1875,2.28125
452,-0.19506836,-1.1116333,0.16815186,-4.9375,-6.875,0.1875
453,0.017822266,-0.8826294,-0.1482544,1.921875,7.09375,-3.234375
454,-0.053955078,-0.9507446,0.04095459,4.859375,-0.484375,3.796875
455,-0.080322266,-1.0774536,-0.12750244,6.0,-1.65625,0.203125
456,0.0021972656,-0.9614868,-0.10772705,2.125,2.3125,-0.96875
457,-0.033447266,-1.0095825,-0.1326294,-0.515625,1.203125,1.71875
458,-0.017822266,-0.9805298,-0.12384033,-2.53125,3.640625,-1.921875
459,-0.036621094,-0.9741821,-0.07232666,-1.59375,1.171875,-2.046875
460,-0.05810547,-0.97076416,-0.09552002,-1.46875,2.515625,-1.296875
461,-0.03564453,-1.0012817,-0.09259033,-2.9375,0.5,-4.15625
462,-0.044433594,-0.95098877,-0.097961426,-1.3125,-1.328125,0.328125
463,-0.063964844,-0.97198486,-0.12261963,-1.5625,-0.359375,0.609375
464,-0.036621094,-0.9595337,-0.10235596,2.546875,2.40625,1.78125
465,0.008544922,-1.0230103,-0.21051025,3.03125,4.71875,4.546875
466,-0.06713867,-1.1074829,0.050476074,-5.0,-2.296875,0.375
467,-0.13110352,-0.92510986,-0.08868408,-4.734375,-2.21875,-6.0625
468,0.03881836,-0.9155884,-0.10089111,0.265625,-0.71875,1.78125
469,-0.12792969,-1.0796509,-0.05279541,-0.71875,-2.1875,-2.578125
470,-0.110839844,-0.9678345,-0.0713501,-3.484375,-1.59375,-1.0
471,-0.023925781,-0.9854126,-0.040100098,-4.140625,-2.125,-1.453125
472,-0.09350586,-1.0200806,-0.043273926,-1.671875,6.640625,2.53125
473,-0.057861328,-0.9859009,-0.06817627,-1.25,12.171875,-0.8125
474,0.0029296875,-0.9656372,-0.066711426,-1.75,9.796875,-4.984375
475,-0.09423828,-1.000061,-0.061584473,-1.25,10.0625,-2.78125
476,-0.06274414,-1.031311,-0.09161377,-3.90625,8.625,-0.734375
477,-0.09472656,-1.0112915,-0.06500244,-5.28125,10.953125,-2.984375
478,-0.0637207,-0.9924927,-0.097473145,-5.828125,13.78125,-3.375
479,-0.10205078,-0.98443604,-0.07208252,-7.9375,8.546875,-4.703125
480,-0.078125,-1.0044556,-0.023986816,0.703125,13.984375,-1.734375
481,-0.10058594,-0.9873657,-0.061340332,-7.0,10.8125,-2.703125
482,-0.057373047,-0.97784424,0.015808105,-8.359375,10.53125,-6.1875
483,-0.13549805,-1.031311,-0.00079345703,1.03125,6.296875,-0.671875
484,-0.052246094,-0.9795532,0.0053100586,-1.96875,2.6875,-1.078125
485,-0.11743164,-0.989563,0.003112793,-4.21875,0.53125,-2.203125
486,-0.16796875,-0.99176025,-0.004699707,-3.859375,0.90625,-1.453125
487,-0.16723633,-0.9729614,0.016540527,-3.71875,2.09375,-2.109375
488,-0.17626953,-0.9819946,-0.014465332,3.296875,0.84375,1.375
489,-0.14794922,-0.9492798,-0.05645752,20.796875,-2.828125,0.515625
490,-0.05493164,-0.9036255,-0.10479736,21.953125,-6.375,8.234375
491,-0.14892578,-1.0322876,-0.08331299,19.953125,-15.28125,5.8125
492,-0.034423828,-1.0032349,-0.09503174,4.921875,-12.375,4.234375
493,-0.075927734,-0.94976807,-0.16265869,6.015625,1.46875,5.859375
494,-0.06738281,-1.0247192,-0.105041504,6.390625,-2.953125,3.265625
495,-0.06689453,-1.0022583,-0.14776611,3.96875,-0.46875,4.625
496,-0.04736328,-0.95684814,-0.11065674,5.984375,-0.515625,4.578125
497,-0.06713867,-1.003479,-0.15264893,3.59375,-2.671875,4.71875
498,-0.042236328,-0.9338989,-0.1350708,3.859375,-1.34375,2.515625
499,-0.060058594,-0.9920044,-0.15264893,6.546875,-2.28125,4.0
500,-0.049560547,-1.003479,-0.17462158,3.125,-1.921875,0.953125
501,-0.048339844,-0.9768677,-0.16949463,1.359375,-0.546875,0.421875
502,-0.02734375,-0.99542236,-0.19561768,1.296875,-0.3125,1.328125
503,-0.0063476562,-0.9365845,-0.23468018,-15.15625,-2.5,-0.9375
504,-0.0087890625,-0.8792114,0.012878418,-4.34375,-0.59375,0.84375
505,-0.02709961,-1.0745239,-0.07672119,-8.65625,4.125,0.90625
506,-0.09472656,-0.95025635,-0.15679932,-3.359375,-0.765625,-4.578125
507,-0.056640625,-0.9248657,-0.12579346,-1.09375,-0.5,3.015625
508,-0.09277344,-1.0203247,-0.10308838,-1.140625,2.078125,0.078125
509,-0.02368164,-1.0117798,-0.1572876,-4.703125,-1.421875,0.953125
510,0.01171875,-0.95977783,-0.11260986,-4.015625,-2.328125,2.171875
511,-0.05810547,-0.98565674,-0.109436035,-3.625,-1.390625,1.140625
512,-0.045166016,-1.0088501,-0.05670166,2.8125,2.546875,0.328125
513,-0.041748047,-0.99468994,-0.14361572,1.265625,1.65625,0.984375
514,-0.020263672,-0.9487915,-0.09161377,3.171875,0.5,1.109375
515,0.013916016,-0.9949341,-0.12652588,0.578125,-0.484375,1.890625
516,-0.001953125,-1.0403442,-0.48809814,-8.25,-5.734375,1.15625
517,-0.017578125,-1.0117798,-0.04473877,-15.28125,0.71875,0.390625
518,-0.11669922,-0.9915161,0.038024902,-7.359375,0.390625,-1.421875
519,-0.068847656,-0.93927,-0.023986816,3.171875,2.046875,-0.34375
520,-0.053466797,-0.9873657,-0.05596924,9.53125,1.5,0.921875
521,-0.016601562,-1.0806274,-0.12799072,7.109375,-0.84375,0.515625
522,0.063964844,-0.96710205,-0.16168213,0.546875,2.5,0.28125
523,-0.052001953,-1.0054321,-0.093566895,2.109375,-1.515625,3.453125
524,-0.051757812,-0.9866333,-0.13238525,-0.546875,0.9375,-0.859375
525,0.075927734,-1.0542603,-0.39898682,-9.765625,4.109375,-0.75
526,-0.044189453,-0.83966064,0.0021362305,-12.578125,-2.21875,-0.6875
527,-0.08618164,-0.973938,-0.008605957,-7.921875,0.53125,-2.265625
528,-0.031982422,-1.0969849,-0.010070801,4.109375,0.515625,-0.15625
529,-0.08105469,-0.93585205,-0.016174316,3.828125,-4.671875,4.34375
530,-0.103271484,-0.973938,-0.07232666,7.484375,-3.0,-1.125
531,0.022460938,-1.0366821,-0.08477783,7.375,1.109375,-0.796875
532,-0.020019531,-1.0110474,-0.14508057,1.375,-0.3125,0.78125
533,-0.056640625,-0.93585205,-0.13824463,1.8125,1.796875,1.03125
534,0.12207031,-0.9026489,-0.4463501,6.5,14.1875,5.734375
535,0.015380859,-1.0088501,-0.034240723,-6.03125,0.296875,4.484375
536,-0.022949219,-0.95025635,-0.0012817383,-6.6875,-4.0625,-5.796875
537,0.0063476562,-0.99468994,-0.077697754,2.515625,1.59375,1.03125
538,-0.095458984,-1.0435181,-0.047180176,1.984375,-3.359375,-0.015625
539,-0.13745117,-1.0042114,-0.12554932,5.640625,-1.609375,1.734375
540,0.052246094,-0.9644165,-0.14483643,1.9375,1.375,-0.796875
541,0.067871094,-1.0095825,-0.13555908,2.671875,1.8125,1.25
542,-0.022216797,-0.9351196,-0.18341064,2.140625,3.546875,-0.125
543,0.107666016,-0.94976807,-0.19244385,3.328125,2.890625,5.3125
544,-0.14111328,-1.1084595,-0.010070801,-9.375,-2.21875,-2.0625
545,-0.13989258,-0.911438,-0.13848877,-5.859375,1.578125,-3.109375
546,0.14379883,-0.9639282,-0.081848145,2.921875,-3.0,3.828125
547,-0.11669922,-1.0859985,-0.070373535,-1.28125,-6.21875,-3.3125
548,-0.067871094,-0.9846802,-0.11236572,-8.0,-1.515625,-5.046875
549,0.04272461,-0.91973877,-0.11090088,-1.03125,-0.234375,1.25
550,-0.025146484,-1.0498657,-0.054016113,-1.96875,0.265625,-0.828125
551,-0.0625,-1.0425415,-0.06109619,-5.234375,8.65625,-5.0
552,0.01977539,-0.98809814,-0.06036377,-5.03125,10.15625,0.109375
553,-0.06323242,-0.9924927,-0.1506958,-6.171875,3.609375,-3.5625
554,-0.0703125,-0.9414673,-0.09844971,-6.078125,7.984375,-4.90625
555,-0.048828125,-1.0015259,-0.07647705,-2.765625,9.75,-5.046875
556,-0.052734375,-1.0108032,-0.06695557,-3.421875,8.203125,-5.65625
557,-0.068115234,-0.99176025,-0.06842041,-7.203125,7.5625,-4.4375
558,-0.05053711,-1.0066528,-0.036193848,-1.171875,12.375,-2.5625
559,-0.11767578,-0.97613525,-0.018615723,2.5625,14.5,-1.515625
560,-0.075927734,-1.006897,-0.041809082,-0.125,9.984375,-1.59375
561,-0.07885742,-0.98516846,-0.07159424,-3.25,9.078125,-2.859375
562,-0.068115234,-0.9793091,-0.047668457,-2.34375,7.75,-2.03125
563,-0.11767578,-0.9907837,-0.037902832,0.59375,2.921875,-2.046875
564,-0.09326172,-0.9829712,-0.06524658,5.21875,-0.203125,0.65625
565,-0.08544922,-0.91534424,-0.14727783,24.8125,-3.875,2.625
566,-0.11279297,-0.8765259,-0.1182251,16.328125,-3.421875,6.40625
567,-0.14648438,-1.0606079,-0.09967041,20.40625,-16.15625,4.71875
568,0.021728516,-0.9170532,-0.1609497,3.96875,-13.53125,-0.25
569,-0.08300781,-0.97662354,-0.1272583,2.765625,-8.015625,3.875
570,-0.099365234,-1.0178833,-0.18048096,5.34375,-6.109375,3.53125
571,-0.025634766,-0.98760986,-0.09307861,6.21875,-0.8125,2.75
572,-0.041992188,-0.9873657,-0.16778564,7.453125,-0.953125,2.4375
573,-0.068115234,-0.975647,-0.15777588,5.453125,-3.515625,2.578125
574,-0.049560547,-0.9846802,-0.19293213,3.703125,1.671875,2.515625
575,-0.0073242188,-1.0547485,-0.22955322,3.921875,-0.09375,3.03125
576,-0.0031738281,-0.99346924,-0.08355713,-5.96875,11.828125,4.328125
577,-0.111083984,-0.7764282,-0.070373535,-3.203125,-0.96875,4.796875
578,0.035888672,-0.9421997,-0.09844971,0.25,3.234375,2.28125
579,-0.061279297,-1.055481,-0.18389893,-1.875,-3.875,1.09375
580,-0.024658203,-1.0027466,-0.19317627,-0.453125,-1.171875,-1.75
581,0.033935547,-0.97003174,-0.1807251,-2.65625,-1.3125,-2.03125
582,-0.012207031,-0.9558716,-0.19976807,-4.671875,-3.0625,-0.8125
583,-0.037109375,-1.003479,-0.1560669,-5.40625,-1.65625,-0.578125
584,-0.036376953,-0.98272705,-0.15924072,-7.8125,-0.421875,0.59375
585,-0.038330078,-0.98223877,-0.12384033,-7.546875,-0.609375,-0.0625
586,-0.01928711,-0.9639282,-0.11480713,-7.71875,-0.15625,-1.5
587,-0.052001953,-1.0029907,-0.07330322,-4.078125,1.109375,-1.53125
588,-0.03466797,-0.94610596,-0.089660645,-2.0,-0.546875,-2.359375
589,-0.029296875,-1.0076294,-0.11798096,-2.21875,0.0,-0.484375
590,-0.012207031,-0.9819946,-0.07672119,-1.890625,0.484375,1.5
591,-0.11401367,-0.986145,-0.07891846,-1.375,0.3125,2.984375
592,0.06274414,-0.987854,-0.21905518,-4.671875,0.421875,1.109375
593,-0.040039062,-0.96466064,0.05316162,-6.734375,-8.71875,-0.125
594,-0.13232422,-0.9663696,-0.117004395,-2.8125,5.421875,-2.859375
595,0.038330078,-0.94903564,-0.038635254,7.953125,1.515625,4.125
596,-0.09716797,-1.0623169,-0.097229004,7.5,-0.84375,0.234375
597,0.011230469,-0.956604,-0.13433838,0.578125,2.671875,-0.890625
598,0.056396484,-0.9729614,-0.13433838,1.578125,0.78125,0.90625
599,-0.05444336,-0.9981079,-0.11798096,-1.515625,1.359375,0.28125
600,-0.0690918,-0.9746704,-0.15338135,-2.53125,1.578125,-0.25
601,0.05029297,-0.9932251,-0.11456299,-3.375,4.640625,-0.78125
602,0.05908203,-0.9614868,-0.15167236,-9.28125,2.78125,0.1875
603,-0.055908203,-0.94000244,0.09320068,-6.359375,-5.109375,1.625
604,-0.091552734,-1.0545044,-0.025939941,1.671875,1.765625,-3.453125
605,-0.091552734,-1.0530396,-0.081604004,2.9375,0.75,2.53125
606,-0.05029297,-1.010315,-0.06524658,2.125,-0.296875,-0.328125
607,-0.053222656,-0.9326782,-0.124816895,3.484375,-0.015625,-1.609375
608,0.037597656,-0.93756104,-0.13555908,1.703125,-0.25,2.234375
609,-0.012207031,-0.9714966,-0.11968994,0.703125,-0.625,1.546875
610,-0.034179688,-0.99346924,-0.09869385,1.140625,0.171875,2.734375
611,0.0014648438,-0.97076416,-0.07720947,1.0,1.40625,3.328125
612,0.010009766,-1.0100708,-0.17242432,3.1875,1.609375,3.40625
613,-0.06201172,-1.0493774,0.066101074,0.28125,3.625,7.484375
614,-0.060546875,-1.0342407,-0.011047363,-0.359375,-4.640625,-4.0
615,0.044189453,-0.91534424,-0.16119385,0.109375,3.125,-1.515625
616,0.0024414062,-1.0276489,-0.10675049,2.859375,1.625,1.046875
617,-0.056640625,-0.92022705,-0.15093994,2.34375,0.84375,-1.15625
618,0.025390625,-0.927063,-0.16680908,4.15625,0.984375,2.59375
619,-0.0056152344,-1.0835571,-0.13067627,2.359375,1.6875,1.3125
620,-0.033691406,-0.9170532,-0.11260986,0.421875,1.71875,2.875
621,0.036132812,-1.010315,-0.16534424,1.75,2.484375,2.265625
622,0.06225586,-1.0144653,-0.112854004,5.796875,2.625,6.359375
623,-0.010986328,-1.0962524,-0.014465332,-4.5625,-9.78125,-1.34375
624,-0.12109375,-0.9421997,-0.10455322,-4.6875,3.75,-4.671875
625,0.04272461,-1.0161743,-0.09893799,-5.0,-0.609375,-4.90625
626,-0.10644531,-1.0552368,-0.0095825195,-8.796875,-2.796875,-12.734375
627,-0.022705078,-0.92266846,-0.12237549,-10.125,6.0,-5.90625
628,0.09741211,-0.92974854,-0.14434814,-0.71875,4.71875,-3.34375
629,-0.03564453,-1.0186157,-0.065979004,-0.921875,1.859375,-4.75
630,-0.071777344,-1.024231,-0.05230713,-3.8125,9.40625,-2.6875
631,-0.057617188,-0.99591064,-0.07867432,-0.484375,13.625,-2.046875
632,-0.08691406,-0.9859009,-0.12384033,-2.90625,11.015625,-4.546875
633,-0.06518555,-0.98101807,-0.09967041,-0.984375,13.53125,-4.515625
634,-0.049560547,-0.99420166,-0.105041504,-3.40625,11.4375,-3.03125
635,-0.079833984,-1.0164185,-0.085754395,-3.28125,11.859375,-2.078125
636,-0.123535156,-0.9924927,-0.03765869,3.4375,16.78125,-1.734375
637,-0.08203125,-0.9837036,-0.046936035,1.578125,11.28125,-1.671875
638,-0.12670898,-1.0132446,-0.077697754,-5.671875,4.03125,-2.5625
639,-0.14257812,-0.9680786,-0.093322754,-4.3125,5.5625,-0.75
640,-0.0625,-0.97613525,-0.051086426,-1.90625,6.03125,-3.90625
641,-0.09008789,-0.99420166,-0.051330566,1.625,2.890625,0.296875
642,-0.11279297,-0.9602661,-0.09136963,8.984375,3.078125,1.3125
643,-0.04321289,-0.9175415,-0.14727783,31.71875,2.109375,2.375
644,-0.111328125,-0.9024048,-0.1741333,29.203125,-4.484375,7.328125
645,-0.0793457,-1.0459595,-0.15093994,19.28125,-15.40625,7.375
646,0.0029296875,-0.9656372,-0.1951294,2.578125,-8.59375,3.71875
647,-0.059570312,-0.9500122,-0.1897583,4.40625,-8.25,2.953125
648,-0.044189453,-0.989563,-0.2210083,6.234375,-10.71875,3.3125
649,-0.037841797,-0.9480591,-0.15167236,6.59375,-6.328125,0.890625
650,-0.088378906,-0.9932251,-0.21148682,5.84375,-4.09375,3.328125
651,-0.08081055,-0.94854736,-0.14801025,6.421875,-0.375,4.234375
652,-0.041748047,-1.0195923,-0.442688,0.375,-3.6875,7.046875
653,0.06225586,-0.9866333,-0.13043213,-9.578125,-2.375,9.6875
654,-0.17602539,-0.96417236,-0.22564697,1.0,0.15625,3.5
655,0.10180664,-0.9553833,-0.23614502,-1.15625,-1.28125,1.5
656,0.056640625,-0.9102173,-0.24932861,-2.84375,-5.46875,-1.28125
657,0.01586914,-0.97857666,-0.24127197,-3.53125,-3.671875,-1.40625
658,0.026123047,-0.9368286,-0.23101807,-6.203125,-1.890625,-3.546875
659,-0.0026855469,-0.9846802,-0.20318604,-8.046875,-0.765625,-3.5625
660,0.0146484375,-0.9939575,-0.1428833,-7.625,1.625,-4.921875
661,-0.0017089844,-1.0025024,-0.18927002,-10.484375,2.375,-5.6875
662,-0.075927734,-0.97052,-0.16168213,-6.0,0.078125,-7.59375
663,-0.0017089844,-0.92755127,-0.14776611,-7.21875,0.78125,-5.71875
664,-0.07470703,-0.88409424,-0.12213135,-7.109375,-1.734375,-1.40625
665,-0.12768555,-1.0188599,-0.09552002,-4.796875,1.265625,1.78125
666,-0.07861328,-1.0276489,-0.19610596,-4.703125,-2.359375,-0.671875
667,0.014404297,-1.0342407,-0.011779785,-12.4375,10.4375,0.171875
668,-0.1665039,-0.94781494,0.06121826,-5.609375,-7.796875,-3.453125
669,-0.064941406,-0.9553833,-0.081848145,-1.828125,2.671875,-0.859375
670,0.006591797,-0.96539307,-0.062805176,3.625,1.1875,3.09375
671,-0.041503906,-1.0125122,-0.09820557,5.78125,-2.734375,1.46875
672,-0.056396484,-0.9956665,-0.12188721,-2.390625,-1.03125,-2.171875
673,-0.040771484,-0.9985962,-0.120910645,-1.375,1.546875,1.578125
674,-0.043945312,-0.9824829,-0.13214111,-2.484375,0.296875,-0.796875
675,-0.03540039,-0.9993286,-0.13555908,-4.015625,1.90625,-0.109375
676,0.016113281,-0.93829346,-0.0881958,-3.875,2.609375,-0.328125
677,-0.029052734,-0.97857666,-0.0713501,-1.90625,-0.375,-2.0
678,-0.060791016,-0.9932251,-0.08087158,-2.703125,0.3125,-0.546875
679,-0.08300781,-0.9998169,-0.120910645,-2.6875,-0.296875,4.359375
680,-0.17797852,-0.9981079,0.14349365,-5.375,-3.3125,-1.578125
681,-0.083740234,-0.96173096,-0.054748535,0.484375,2.453125,0.5
682,-0.010009766,-0.9924927,-0.10284424,5.40625,3.125,-0.515625
683,0.014160156,-1.0227661,-0.035217285,3.59375,0.0,2.515625
684,-0.03173828,-0.96221924,-0.128479,2.984375,3.09375,-1.484375
685,-0.04345703,-1.0110474,-0.077697754,0.75,3.328125,1.875
686,-0.061523438,-1.0112915,-0.10845947,-0.234375,6.625,1.3125
687,-0.0048828125,-0.9446411,-0.07989502,-1.765625,3.359375,-0.828125
688,-0.012939453,-0.9570923,-0.12310791,-0.625,1.359375,-0.015625
689,-0.03173828,-0.989563,-0.089904785,0.703125,-0.234375,-1.640625
690,-0.033691406,-1.0029907,-0.1038208,0.28125,-1.03125,-1.15625
691,0.07055664,-0.9973755,-0.16827393,0.609375,-8.046875,-2.828125
692,-0.08569336,-0.9902954,0.06854248,-13.546875,-5.9375,-1.1875
693,-0.15405273,-1.0266724,-0.121154785,1.625,1.609375,-2.421875
694,-0.048828125,-0.94781494,0.0036010742,6.078125,1.203125,3.46875
695,-0.11669922,-0.9854126,-0.03253174,5.953125,0.734375,3.96875
696,-0.08251953,-1.0025024,-0.024963379,2.203125,-1.390625,-2.734375
697,0.07324219,-0.95684814,-0.13702393,-3.546875,13.21875,0.65625
698,-0.010009766,-1.038147,-0.12188721,2.765625,7.21875,1.6875
699,-0.064941406,-1.0120239,-0.10650635,4.1875,5.046875,0.046875
700,-0.040283203,-1.0061646,-0.09503174,5.046875,9.5625,-0.515625
701,-0.06762695,-0.99420166,-0.09136963,-3.046875,10.765625,-1.59375
702,-0.11645508,-0.94976807,-0.0960083,-1.578125,13.0,-0.796875
703,-0.07080078,-1.0003052,-0.0791626,-2.34375,10.8125,-5.09375
704,-0.07324219,-1.0081177,-0.07281494,-11.109375,8.15625,-7.578125
705,-0.05078125,-0.98883057,-0.11407471,-9.125,10.53125,-4.75
706,-0.12915039,-0.9717407,-0.081604004,6.25,17.65625,-3.234375
707,-0.09692383,-1.008606,-0.06060791,13.84375,25.0625,2.84375
708,-0.10424805,-0.9636841,-0.09942627,18.28125,28.234375,2.421875
709,-0.103515625,-0.9678345,-0.11871338,21.125,26.625,1.828125
710,-0.095947266,-0.9741821,-0.17633057,6.3125,4.4375,0.3125
711,-0.10961914,-0.90826416,-0.22149658,18.25,-17.984375,-1.703125
712,-0.07910156,-1.0161743,-0.29937744,14.515625,-27.84375,6.609375
713,-0.005126953,-0.90753174,-0.09552002,-7.6875,-17.46875,-1.4375
714,-0.16015625,-1.0391235,-0.15411377,3.625,-12.4375,1.078125
715,-0.10424805,-0.98272705,-0.2498169,-4.328125,-17.59375,-1.703125
716,0.02368164,-0.86920166,-0.16778564,-2.625,-10.75,-1.875
717,-0.12402344,-1.0252075,-0.2131958,1.40625,-18.0625,0.859375
718,0.040283203,-0.94317627,-0.14215088,-0.59375,-6.125,0.25
719,-0.13378906,-0.95758057,-0.17242432,-0.625,-8.75,3.9375
720,-0.053222656,-0.9697876,-0.19073486,3.96875,-7.625,4.234375
721,-0.10473633,-1.1709595,-0.28497314,-6.46875,2.265625,3.25
722,-0.016357422,-0.923645,-0.09454346,-7.671875,-4.296875,0.828125
723,-0.0007324219,-0.94317627,-0.19268799,-1.71875,0.46875,0.0625
724,-0.05126953,-0.9326782,-0.15924072,-2.6875,-3.71875,0.96875
725,-0.040039062,-0.9360962,-0.17852783,0.953125,-0.578125,-0.53125
726,-0.0146484375,-1.017395,-0.17779541,-2.9375,1.390625,-1.3125
727,-0.044189453,-1.0215454,-0.18658447,-6.09375,0.171875,0.0
728,-0.020019531,-0.97003174,-0.15899658,-6.359375,-0.375,-0.078125
729,-0.018554688,-0.986145,-0.12164307,-4.140625,-0.703125,1.296875
730,-0.046142578,-0.972229,-0.09918213,-5.875,0.421875,-0.484375
731,-0.10668945,-0.9981079,-0.13458252,-2.96875,-0.03125,-0.78125
732,-0.00024414062,-0.92803955,-0.11871338,0.3125,-0.0625,-0.234375
733,-0.052246094,-1.0203247,-0.14996338,2.203125,-2.78125,0.8125
734,-0.045654297,-0.98638916,-0.16656494,-0.078125,-1.796875,2.296875
735,0.059570312,-0.94073486,-0.15167236,-4.4375,-0.984375,4.265625
736,-0.17163086,-0.9319458,0.04168701,-5.03125,-5.8125,0.484375
737,0.00024414062,-1.0049438,-0.12237549,-1.390625,0.6875,-0.046875
738,-0.06323242,-0.9656372,-0.066223145,4.828125,-1.234375,5.28125
739,-0.06542969,-0.9649048,-0.07281494,6.0,2.796875,-1.078125
740,0.013427734,-1.0432739,-0.16119385,4.3125,4.421875,1.921875
741,-0.05078125,-1.0283813,-0.14581299,0.171875,1.171875,1.234375
742,0.03955078,-1.0234985,-0.16412354,-5.8125,5.671875,-1.84375
743,-0.0026855469,-0.9187622,-0.17218018,-4.0625,1.5,-0.453125
744,-0.012939453,-0.8928833,-0.12896729,-0.5,-1.78125,1.390625
745,-0.014160156,-0.9690552,-0.12384033,0.6875,-1.828125,0.75
746,0.08691406,-0.9710083,-0.39801025,2.53125,1.53125,-0.25
747,-0.021240234,-1.0779419,0.024841309,-3.03125,-1.875,8.359375
748,-0.18334961,-0.99591064,-0.11456299,-4.578125,-0.453125,-7.1875
749,0.071777344,-0.9390259,-0.08404541,8.625,5.375,3.09375
750,-0.029785156,-1.053772,-0.046447754,2.625,1.671875,1.453125
751,-0.12768555,-0.9541626,-0.22442627,0.765625,2.453125,-2.953125
752,0.14428711,-0.91485596,-0.11920166,2.421875,2.125,0.59375
753,0.037353516,-1.034729,-0.1453247,-0.765625,-3.453125,0.921875
754,-0.041259766,-0.94366455,-0.11212158,-0.71875,-3.078125,-2.140625
755,-0.076416016,-1.0593872,-0.18389893,-0.046875,-1.90625,0.109375
756,-0.08520508,-1.0015259,-0.19537354,-1.140625,2.453125,2.09375
757,-0.06640625,-0.8792114,-0.22393799,1.0,8.015625,4.609375
758,-0.014160156,-0.9746704,-0.05987549,0.890625,10.390625,2.5
759,0.076660156,-1.0132446,-0.012268066,-6.5,-2.4375,-2.484375
