sample_no,accel_x,accel_y,accel_z,gyro_x,gyro_y,gyro_z
0,0.0009765625,-0.99224854,0.016540527,1.6875,-1.46875,1.375
1,0.011230469,-0.99346924,0.029724121,0.359375,-0.53125,0.28125
2,-0.0026855469,-1.0025024,-0.0064086914,0.6875,-0.59375,0.625
3,0.0017089844,-1.0007935,0.021911621,0.21875,0.515625,-0.15625
4,0.006591797,-1.0083618,0.016052246,-0.25,-0.25,0.578125
5,-0.0056152344,-0.99176025,-0.004211426,-0.03125,0.0625,0.5625
6,-0.00390625,-0.99176025,0.015563965,0.359375,-0.484375,0.578125
7,0.00024414062,-0.99224854,0.0014038086,0.734375,-0.8125,0.578125
8,0.0041503906,-1.0078735,0.014587402,1.390625,-1.78125,0.859375
9,0.0078125,-1.00177,0.0072631836,1.515625,-0.671875,0.671875
10,-0.010009766,-0.99346924,0.019470215,1.71875,-1.28125,0.953125
11,0.012207031,-0.99346924,-0.005432129,2.984375,-2.421875,1.3125
12,-0.018310547,-0.9920044,-0.00030517578,5.5,-3.9375,1.53125
13,0.0043945312,-0.99591064,-0.018127441,5.203125,-3.828125,1.5625
14,0.020996094,-0.99224854,-0.012512207,5.46875,-3.375,1.828125
15,0.0041503906,-0.99053955,-0.02545166,4.609375,-2.359375,1.796875
16,0.0107421875,-1.003479,-0.01739502,5.8125,-2.203125,1.78125
17,0.0053710938,-1.0020142,-0.050842285,2.3125,-2.34375,1.890625
18,-0.0036621094,-1.0015259,-0.023498535,4.78125,-6.1875,1.640625
19,-0.020751953,-1.0386353,-0.12164307,9.1875,-3.0,4.125
20,0.06665039,-0.9151001,-0.050842285,10.1875,7.046875,3.8125
21,0.061767578,-0.9812622,-0.09259033,5.46875,7.625,3.046875
22,0.021484375,-0.9951782,-0.045959473,4.640625,5.8125,3.578125
23,-0.00048828125,-0.9636841,-0.038635254,1.265625,4.375,2.828125
24,0.016601562,-0.9536743,-0.05670166,0.671875,1.53125,1.078125
25,0.014160156,-0.9932251,-0.06085205,-1.84375,-3.125,-1.09375
26,0.024658203,-1.0266724,-0.08062744,-1.875,-2.09375,0.84375
27,0.0034179688,-1.0239868,-0.069885254,-0.328125,-1.328125,1.4375
28,0.010498047,-0.9763794,-0.06719971,0.890625,-2.078125,0.46875
29,0.020996094,-0.97662354,-0.0635376,0.21875,-1.265625,0.46875
30,0.018310547,-0.9758911,-0.09967041,0.96875,-4.09375,0.953125
31,0.033203125,-0.9837036,-0.065979004,1.71875,-3.203125,0.359375
32,0.041992188,-1.0098267,-0.08111572,2.21875,-2.53125,1.96875
33,0.019042969,-0.9824829,-0.08526611,2.25,-0.9375,2.0625
34,0.032470703,-0.9763794,-0.06768799,2.296875,-0.9375,1.9375
35,0.022216797,-0.9890747,-0.11798096,0.0,0.328125,1.109375
36,0.030761719,-0.973938,-0.0647583,1.421875,-0.9375,1.46875
37,0.040283203,-0.9898071,-0.10040283,0.25,-0.21875,0.984375
38,0.021240234,-0.99298096,-0.07672119,1.46875,-0.890625,1.015625
39,0.028076172,-1.0029907,-0.07208252,1.203125,-0.65625,1.40625
40,0.03564453,-0.972229,-0.082336426,0.9375,0.28125,1.25
41,0.03930664,-0.9846802,-0.09625244,0.703125,-0.1875,1.40625
42,0.03466797,-0.98565674,-0.089904785,0.46875,-0.578125,0.84375
43,0.044189453,-0.99298096,-0.11260986,0.59375,-3.484375,1.609375
44,-0.02758789,-1.0320435,-0.18096924,12.625,5.5,5.921875
45,0.16894531,-0.89019775,-0.07086182,6.65625,15.078125,4.671875
46,-0.0078125,-0.99102783,-0.08135986,4.046875,3.4375,2.375
47,0.09741211,-0.9771118,-0.0947876,4.015625,6.078125,2.5625
48,0.011962891,-0.911438,-0.09552002,2.671875,3.65625,0.234375
49,0.032714844,-0.97906494,-0.1104126,-7.703125,-3.875,-1.828125
50,0.029052734,-1.0444946,-0.12359619,-6.90625,-2.609375,-0.96875
51,0.045166016,-1.0244751,-0.101623535,-3.734375,-2.46875,-0.671875
52,0.034423828,-0.99053955,-0.10845947,-0.28125,-1.203125,0.96875
53,0.035888672,-0.975647,-0.0947876,-0.1875,0.65625,0.546875
54,0.037597656,-0.9771118,-0.08770752,-0.65625,0.25,-0.09375
55,0.04321289,-0.9805298,-0.066467285,-0.875,0.6875,-0.984375
56,0.033203125,-1.0022583,-0.10845947,-5.0,3.046875,-4.484375
57,-0.0026855469,-0.9661255,-0.10406494,-7.046875,1.65625,-6.265625
58,0.041259766,-0.9710083,-0.08404541,-8.796875,0.546875,-4.0
59,-0.00024414062,-1.0025024,-0.042541504,-4.78125,-0.796875,-0.09375
60,0.011474609,-0.9993286,-0.06768799,-3.3125,0.3125,1.171875
61,0.0024414062,-0.9619751,-0.058410645,-1.796875,-0.625,0.734375
62,0.013916016,-0.9710083,-0.070617676,-1.09375,-1.328125,0.5625
63,0.01586914,-0.9871216,-0.07110596,-0.0625,-3.78125,1.125
64,0.0234375,-0.99298096,-0.08892822,1.625,-1.8125,1.65625
65,0.012939453,-0.9866333,-0.08111572,2.21875,-3.578125,1.5625
66,-0.0009765625,-0.9834595,-0.039611816,3.40625,-3.546875,1.328125
67,0.020263672,-0.9898071,-0.061828613,3.203125,-3.3125,1.59375
68,0.0146484375,-0.98760986,-0.06768799,3.0,-2.953125,1.5625
69,0.028564453,-1.0037231,-0.0647583,2.984375,-2.875,1.171875
70,0.010498047,-1.0007935,-0.08428955,2.5625,-3.0625,2.453125
71,0.015380859,-0.9829712,-0.06304932,3.046875,-1.859375,1.96875
72,0.010986328,-0.99591064,-0.11236572,1.59375,-4.109375,3.734375
73,-0.022705078,-1.0230103,-0.16925049,17.9375,1.21875,7.109375
74,0.17480469,-0.9607544,-0.11236572,5.359375,8.15625,6.015625
75,-0.005859375,-0.9783325,-0.097717285,4.609375,6.3125,3.484375
76,0.06567383,-0.96099854,-0.06695557,4.875,8.0625,3.125
77,0.013183594,-0.9077759,-0.101867676,0.125,5.125,1.859375
78,0.045166016,-0.9534302,-0.08746338,-6.59375,-1.59375,-1.34375
79,0.028564453,-1.0422974,-0.10333252,-6.359375,-3.765625,-1.703125
80,0.019042969,-1.0444946,-0.097473145,-1.796875,-1.703125,0.796875
81,0.045166016,-0.99224854,-0.09869385,0.65625,0.546875,0.984375
82,0.025878906,-0.972229,-0.09503174,-0.0625,0.28125,1.171875
83,0.041015625,-0.97052,-0.089416504,-0.328125,0.875,0.828125
84,0.041748047,-0.9780884,-0.093811035,0.375,0.453125,0.703125
85,0.025878906,-0.9944458,-0.10675049,-0.09375,0.390625,-0.765625
86,0.03564453,-1.0115356,-0.0881958,-2.25,1.734375,-4.59375
87,0.011962891,-0.9932251,-0.0869751,-5.625,4.0625,-6.015625
88,0.01953125,-0.97125244,-0.08111572,-7.546875,2.75,-3.875
89,0.008056641,-0.98272705,-0.07330322,-6.125,0.484375,-3.6875
90,0.016845703,-0.9968872,-0.054992676,-6.75,0.40625,0.328125
91,0.00024414062,-0.9927368,-0.0725708,-4.640625,-0.109375,0.234375
92,0.0056152344,-0.9746704,-0.035705566,-3.25,-1.03125,-0.078125
93,-0.017333984,-0.9817505,-0.050109863,-2.40625,-1.578125,0.359375
94,0.010009766,-0.9834595,-0.051574707,-0.75,-2.9375,1.015625
95,-0.005126953,-0.99884033,-0.059631348,2.3125,-3.515625,1.875
96,0.022216797,-0.9819946,-0.050354004,4.078125,-3.40625,1.625
97,0.0078125,-0.9883423,-0.07476807,6.421875,-3.65625,2.484375
98,0.0073242188,-0.9920044,-0.05230713,6.03125,-5.640625,1.75
99,0.014160156,-0.98272705,-0.06549072,9.734375,-2.375,5.53125
100,0.030761719,-0.99298096,-0.06524658,8.15625,-1.671875,3.953125
101,0.016357422,-0.9788208,-0.08453369,5.8125,-1.375,4.484375
102,0.03125,-0.9849243,-0.09259033,5.65625,0.375,3.625
103,-0.0009765625,-0.975647,-0.1729126,5.90625,-2.515625,5.390625
104,0.091552734,-0.98321533,-0.057922363,12.828125,14.046875,4.40625
105,0.075927734,-0.93170166,-0.1272583,10.234375,9.609375,7.203125
106,-0.011474609,-0.9763794,-0.08453369,5.0,3.078125,0.75
107,0.043945312,-0.93756104,-0.097473145,-0.609375,3.828125,2.609375
108,0.022949219,-0.94854736,-0.13824463,-5.34375,-1.984375,-1.875
109,0.05834961,-1.0132446,-0.13458252,-4.859375,-3.8125,-1.171875
110,0.034179688,-1.019104,-0.13043213,-3.140625,-4.203125,0.5625
111,0.035888672,-0.9949341,-0.12042236,-0.984375,-2.703125,0.78125
112,0.03881836,-0.95977783,-0.11480713,-0.46875,-1.796875,0.515625
113,0.026855469,-0.97247314,-0.109436035,-2.25,-1.21875,-0.75
114,0.060302734,-0.9949341,-0.0947876,-4.015625,-1.640625,-1.671875
115,0.035888672,-1.0010376,-0.08843994,-6.453125,-2.53125,-5.421875
116,0.022460938,-0.99420166,-0.11114502,-10.03125,0.625,-6.828125
117,0.015380859,-0.9619751,-0.10064697,-10.984375,2.328125,-6.03125
118,-0.005859375,-0.98101807,-0.05206299,-7.9375,0.671875,-2.421875
119,0.009521484,-1.0220337,-0.049865723,-7.765625,1.703125,-0.25
120,0.0048828125,-0.975647,-0.0491333,-5.34375,0.828125,0.4375
121,0.0053710938,-0.9812622,-0.038879395,-5.359375,0.71875,0.25
122,-0.0075683594,-0.9849243,-0.04864502,-4.1875,-0.921875,0.03125
123,0.00390625,-0.9841919,-0.04107666,-4.109375,-1.765625,-0.125
124,-0.009277344,-0.9944458,-0.03253174,-1.59375,-1.265625,-0.21875
125,-0.0087890625,-0.9924927,-0.019104004,-0.09375,-1.796875,1.015625
126,0.0036621094,-0.97491455,-0.03326416,1.484375,-2.75,1.015625
127,0.0014648438,-0.99053955,-0.047180176,3.078125,-2.921875,1.453125
128,0.0146484375,-0.97442627,-0.053771973,5.40625,-3.90625,1.9375
129,-0.009521484,-0.9968872,-0.043029785,7.09375,-4.84375,2.546875
130,0.016845703,-0.99298096,-0.013244629,5.59375,-3.921875,2.328125
131,-0.0031738281,-0.9985962,-0.074523926,9.421875,-2.265625,4.28125
132,0.015136719,-0.9763794,-0.070129395,5.6875,-1.796875,3.90625
133,0.021240234,-0.99420166,-0.09893799,6.46875,1.890625,4.328125
134,0.041503906,-1.0022583,-0.073791504,4.625,0.828125,4.359375
135,0.037841797,-0.9692993,-0.1416626,2.78125,0.09375,3.796875
136,0.017089844,-1.0383911,-0.12945557,11.0,-2.265625,3.703125
137,0.10180664,-0.9534302,-0.017150879,6.921875,14.109375,5.875
138,0.03149414,-0.91363525,-0.12579346,5.609375,8.453125,4.578125
139,0.036376953,-0.9890747,-0.07330322,3.171875,5.53125,1.125
140,0.018310547,-0.9336548,-0.09844971,-2.0,4.53125,1.78125
141,0.047607422,-0.95928955,-0.10211182,-7.0625,-3.53125,-2.21875
142,0.05029297,-1.0361938,-0.10821533,-7.328125,-6.765625,-1.71875
143,0.013183594,-1.036438,-0.097961426,-1.40625,-4.84375,-0.296875
144,0.026611328,-0.989563,-0.089416504,0.546875,-2.375,1.40625
145,0.032470703,-0.97198486,-0.08453369,-0.140625,-1.296875,0.765625
146,0.03564453,-0.97198486,-0.07745361,-1.046875,-0.59375,0.75
147,0.047851562,-0.989563,-0.07940674,-0.875,-0.84375,-0.796875
148,-0.0009765625,-0.9944458,-0.09259033,-0.84375,-0.09375,-4.1875
149,0.025146484,-0.989563,-0.08380127,-5.703125,2.828125,-4.890625
150,0.016113281,-0.9771118,-0.07525635,-6.796875,2.546875,-3.09375
151,-0.0014648438,-0.99664307,-0.06085205,-6.375,0.6875,-2.015625
152,0.025878906,-0.9902954,-0.04034424,-5.0,0.609375,-2.078125
153,-0.001953125,-0.9939575,-0.058898926,-6.21875,0.703125,-0.40625
154,-0.0073242188,-0.98223877,-0.051086426,-5.265625,1.546875,-1.15625
155,0.0014648438,-0.9890747,-0.028625488,-4.25,-1.09375,-0.078125
156,-0.0087890625,-0.9866333,-0.041809082,-1.75,-0.484375,0.34375
157,0.0056152344,-0.98223877,-0.031066895,-0.5,-1.78125,0.671875
158,-0.0078125,-0.9890747,-0.036193848,-0.375,-2.125,0.515625
159,0.013671875,-0.9800415,-0.047912598,1.890625,-3.515625,1.453125
160,0.0007324219,-0.9795532,-0.053527832,2.59375,-3.96875,0.71875
161,-0.0078125,-0.9973755,-0.029846191,5.296875,-4.4375,1.8125
162,-0.0063476562,-0.9920044,-0.054260254,4.640625,-6.421875,2.015625
163,-0.0056152344,-0.9932251,-0.0335083,4.09375,-4.8125,2.0
164,0.0061035156,-1.0059204,-0.050109863,3.921875,-3.25,3.21875
165,0.025634766,-0.98565674,-0.08355713,2.953125,-4.265625,3.84375
166,-0.0012207031,-0.9976196,-0.042541504,6.78125,0.015625,3.671875
167,0.007080078,-0.99713135,-0.12628174,6.515625,-0.46875,6.421875
168,0.051513672,-0.9854126,-0.097961426,15.25,14.484375,6.390625
169,0.1586914,-0.92266846,-0.13970947,7.359375,16.96875,5.671875
170,-0.064208984,-0.98223877,-0.027648926,6.140625,6.09375,0.578125
171,0.060791016,-0.95147705,-0.11920166,0.359375,6.546875,3.65625
172,0.0048828125,-0.9314575,-0.09503174,-5.3125,1.421875,-3.453125
173,0.050048828,-1.0269165,-0.094055176,-9.921875,-7.8125,-2.546875
174,0.012451172,-1.0505981,-0.077941895,-6.21875,-5.8125,-1.0
175,0.017089844,-1.003479,-0.07330322,-1.609375,-1.515625,0.203125
176,0.0234375,-0.9763794,-0.06060791,-1.203125,-0.484375,0.109375
177,0.021240234,-0.9776001,-0.06768799,-0.84375,-0.375,-0.734375
178,0.02758789,-0.99542236,-0.07476807,-1.015625,-1.34375,-3.09375
179,0.0034179688,-1.0005493,-0.07501221,-2.890625,-2.046875,-4.296875
180,-0.0021972656,-0.9973755,-0.05670166,-5.078125,-0.84375,-4.8125
181,0.0012207031,-0.9915161,-0.05279541,-5.71875,0.28125,-3.15625
182,-0.022705078,-0.98223877,-0.049621582,-4.703125,1.40625,-2.546875
183,-0.0078125,-0.9973755,-0.036193848,-5.609375,1.375,-1.28125
184,0.016845703,-0.9993286,-0.034973145,-4.765625,1.5625,1.140625
185,-0.013671875,-0.98394775,-0.046936035,-2.703125,0.8125,0.703125
186,-0.020996094,-0.97735596,-0.02960205,-2.171875,-1.40625,0.234375
187,0.00048828125,-1.0010376,-0.042541504,-3.484375,1.796875,0.21875
188,-0.010009766,-0.9849243,-0.025939941,-2.0,-0.5,0.875
189,-0.01171875,-0.9907837,-0.03741455,-2.0625,-0.078125,-0.078125
190,-0.010498047,-0.9939575,-0.015930176,0.546875,-1.953125,0.296875
191,-0.005859375,-0.99664307,-0.043029785,1.65625,-2.21875,0.9375
192,-0.016601562,-0.9741821,-0.039123535,2.6875,-2.25,0.828125
193,-0.0087890625,-0.98638916,-0.047180176,5.59375,-4.171875,2.671875
194,-0.011962891,-0.9961548,-0.026672363,6.078125,-4.328125,2.109375
195,-0.017578125,-1.0037231,-0.023498535,3.359375,-3.734375,2.078125
196,0.009033203,-0.97857666,-0.050354004,5.328125,-3.828125,2.40625
197,0.004638672,-0.9939575,-0.05279541,6.640625,-2.4375,3.65625
198,0.009521484,-1.0022583,-0.054016113,4.015625,-3.265625,3.015625
199,-0.014404297,-0.991272,-0.035949707,4.96875,-3.125,3.65625
200,0.060302734,-0.9746704,-0.073791504,8.4375,2.203125,6.015625
201,-0.0078125,-0.9795532,-0.1362915,1.390625,-8.171875,3.640625
202,0.006591797,-1.0603638,-0.077697754,15.140625,3.109375,4.78125
203,0.16357422,-0.927063,-0.09893799,5.109375,10.1875,5.96875
204,-0.060791016,-0.9697876,-0.058410645,4.46875,4.140625,1.71875
205,0.060058594,-0.9898071,-0.062561035,2.421875,6.265625,3.109375
206,0.017578125,-0.95318604,-0.09918213,-1.078125,2.71875,1.21875
207,0.006591797,-0.99786377,-0.10845947,-5.84375,-2.0,-2.53125
208,0.030273438,-1.0305786,-0.09234619,-5.59375,-0.8125,-2.53125
209,0.033203125,-1.0090942,-0.09649658,-4.203125,0.4375,0.0625
210,0.009765625,-0.9656372,-0.085510254,-1.9375,0.578125,-0.625
211,0.01928711,-0.97076416,-0.08673096,-1.15625,-0.828125,1.203125
212,0.022949219,-0.9771118,-0.07989502,-0.078125,-0.734375,0.65625
213,0.020751953,-0.9932251,-0.078430176,0.09375,-0.34375,0.640625
214,0.01977539,-0.9944458,-0.0647583,-0.296875,1.03125,0.40625
215,0.028320312,-0.9973755,-0.05206299,-0.921875,1.53125,-0.640625
216,0.011230469,-1.0100708,-0.040100098,-3.890625,1.546875,-2.25
217,0.0034179688,-1.0046997,-0.06549072,-7.578125,2.0,-3.34375
218,0.006591797,-0.9763794,-0.074523926,-7.5625,0.375,-4.34375
219,0.0034179688,-0.98687744,-0.047180176,-6.890625,-0.390625,-3.234375
220,-0.0107421875,-0.9939575,-0.04815674,-5.15625,0.6875,-0.359375
221,-0.0107421875,-0.98101807,-0.019836426,-2.890625,-0.40625,1.578125
222,0.0061035156,-0.98272705,-0.040100098,-3.796875,0.875,-0.109375
223,-0.014160156,-0.97320557,-0.0335083,-3.015625,-1.984375,0.125
224,0.0012207031,-0.99957275,-0.037902832,-2.3125,-0.34375,-0.671875
225,-0.0068359375,-0.99835205,-0.01373291,0.53125,-2.4375,0.609375
226,-0.0031738281,-0.9849243,-0.046936035,1.75,-1.984375,1.609375
227,-0.0029296875,-0.97979736,-0.03692627,4.046875,-3.109375,1.734375
228,-0.014160156,-0.99298096,-0.040100098,4.59375,-4.828125,2.4375
229,-0.013427734,-0.9939575,-0.020568848,4.375,-6.03125,1.4375
230,0.006591797,-1.0081177,-0.046203613,8.859375,-3.484375,3.984375
231,-0.010009766,-0.9981079,-0.054016113,10.234375,-1.8125,5.15625
232,0.018310547,-0.99786377,-0.07647705,7.515625,0.515625,5.03125
233,0.027832031,-0.9714966,-0.07696533,6.6875,4.203125,4.9375
234,0.034423828,-0.97442627,-0.066711426,5.515625,-0.015625,4.140625
235,0.014404297,-0.9902954,-0.1026001,3.234375,-0.5,3.046875
236,0.032226562,-0.986145,-0.093811035,4.390625,-0.5625,2.828125
237,-0.020996094,-1.006897,-0.17559814,9.171875,1.40625,4.03125
238,0.14746094,-0.9338989,-0.061828613,2.640625,10.6875,2.109375
239,-0.025146484,-0.986145,-0.06304932,3.625,2.125,2.453125
240,0.055908203,-0.99176025,-0.08526611,1.4375,4.765625,2.234375
241,0.025146484,-0.9421997,-0.08673096,-2.828125,1.21875,1.6875
242,0.021728516,-0.9883423,-0.097229004,-5.421875,-2.90625,-0.921875
243,0.037841797,-1.0286255,-0.10870361,-4.375,-3.484375,-1.078125
244,0.034179688,-1.0115356,-0.10015869,-1.734375,-1.609375,0.578125
245,0.034179688,-0.98321533,-0.085510254,-1.171875,-1.21875,0.59375
246,0.032226562,-0.9673462,-0.0869751,-0.96875,-0.40625,0.984375
247,0.03466797,-0.98101807,-0.09088135,-1.34375,0.0,0.03125
248,0.036621094,-0.99298096,-0.08770752,-0.578125,0.171875,-0.59375
249,0.03930664,-0.99835205,-0.06939697,-1.84375,0.828125,-3.703125
250,0.014404297,-1.0010376,-0.07183838,-5.453125,1.515625,-4.828125
251,0.0024414062,-0.9829712,-0.06793213,-7.515625,1.234375,-4.296875
252,0.0048828125,-0.9710083,-0.06427002,-6.75,1.5625,-3.203125
253,0.0043945312,-0.99298096,-0.054016113,-6.234375,0.546875,-1.171875
254,0.0014648438,-0.9951782,-0.039855957,-4.640625,0.671875,-0.359375
255,-0.0024414062,-0.9758911,-0.03375244,-3.140625,-0.640625,0.0625
256,-0.0043945312,-0.991272,-0.045715332,-4.109375,0.90625,-0.984375
257,-0.008056641,-0.9807739,-0.024963379,-3.3125,-0.46875,0.359375
258,-0.005126953,-1.0007935,-0.037902832,-2.4375,0.5625,-0.09375
259,-0.0061035156,-1.0012817,-0.0051879883,-1.34375,-0.640625,0.140625
260,-0.00048828125,-0.9963989,-0.037902832,-0.546875,-0.234375,0.71875
261,-0.0043945312,-0.9649048,-0.02520752,1.171875,-1.796875,0.90625
262,-0.006591797,-0.98223877,-0.03668213,2.21875,-2.703125,1.296875
263,0.0012207031,-1.0110474,-0.054260254,6.5625,-4.9375,2.1875
264,-0.0024414062,-0.9834595,-0.04547119,8.78125,-5.515625,3.0
265,-0.012451172,-0.9817505,-0.04425049,8.3125,-5.953125,2.984375
266,0.0026855469,-0.99420166,-0.0803833,7.484375,-1.09375,5.046875
267,0.032226562,-0.9834595,-0.044006348,4.828125,-1.640625,3.796875
268,0.0009765625,-0.99664307,-0.07086182,4.421875,-0.078125,3.1875
269,0.044189453,-0.99884033,-0.09527588,4.328125,2.28125,3.71875
270,-0.0012207031,-0.9558716,-0.11480713,6.90625,-3.53125,3.96875
271,0.01586914,-1.0230103,-0.13604736,11.234375,5.40625,4.09375
272,0.10595703,-0.9182739,-0.08355713,2.484375,8.3125,4.640625
273,-0.018066406,-0.9937134,-0.06378174,1.3125,0.78125,0.234375
274,0.0637207,-0.9602661,-0.08843994,-1.0,3.28125,2.390625
275,0.012939453,-0.94976807,-0.09698486,-2.3125,1.171875,0.671875
276,0.022949219,-1.022522,-0.08258057,-1.6875,-1.03125,-1.4375
277,0.0043945312,-1.0232544,-0.07891846,-1.8125,-0.609375,-0.1875
278,0.022216797,-0.9734497,-0.09307861,-0.375,0.21875,0.75
279,0.029296875,-0.9783325,-0.1026001,1.390625,-0.71875,0.609375
280,0.020507812,-0.97735596,-0.10675049,-0.296875,-1.140625,0.6875
281,0.030029297,-0.9714966,-0.09503174,-2.109375,-1.265625,-0.09375
282,0.029541016,-0.9834595,-0.08013916,-1.9375,-0.4375,0.34375
283,0.017822266,-0.99224854,-0.073791504,-2.078125,1.109375,-0.078125
284,0.030517578,-1.00177,-0.06695557,-2.5625,0.734375,-1.390625
285,0.01171875,-1.0042114,-0.07208252,-4.796875,0.796875,-3.734375
286,-0.0061035156,-0.9768677,-0.066467285,-7.375,0.84375,-4.078125
287,0.005859375,-0.96954346,-0.07159424,-8.734375,-0.203125,-3.96875
288,0.011230469,-0.98809814,-0.07183838,-5.5,-0.28125,-0.78125
289,-0.016601562,-1.0025024,-0.047424316,-3.640625,-1.171875,0.734375
290,0.009277344,-0.98687744,-0.027160645,-2.0,0.0,0.03125
291,-0.009033203,-0.9812622,-0.0413208,-2.859375,0.109375,-0.03125
292,-0.019042969,-0.9949341,-0.021057129,-3.0,0.28125,-0.6875
293,0.0031738281,-0.9939575,-0.019348145,-2.078125,-1.28125,0.390625
294,-0.001953125,-1.0022583,-0.027893066,-0.84375,-0.015625,0.0625
295,-0.0063476562,-0.9837036,-0.034973145,-0.390625,-1.265625,0.609375
296,0.0078125,-0.98223877,-0.038391113,1.90625,-2.0,1.125
297,0.001953125,-0.989563,-0.05303955,4.0,-2.71875,1.421875
298,-0.012207031,-0.98638916,-0.043029785,4.859375,-3.203125,1.90625
299,-0.0107421875,-0.9849243,-0.03668213,7.046875,-5.203125,2.21875
300,-0.00024414062,-1.0010376,-0.04547119,9.109375,-2.15625,3.9375
301,-0.0024414062,-0.9927368,-0.08892822,10.890625,5.15625,3.75
302,0.03149414,-0.97662354,-0.0803833,9.328125,3.5,5.03125
303,0.0126953125,-1.008606,-0.07965088,7.3125,5.0625,3.28125
304,0.013916016,-0.97369385,-0.097717285,8.375,2.609375,4.65625
305,0.018554688,-0.9805298,-0.13922119,12.109375,0.78125,4.015625
306,0.0043945312,-0.98394775,-0.18389893,6.9375,-1.046875,3.046875
307,0.09838867,-0.94317627,-0.09161377,0.96875,5.375,0.734375
308,0.015136719,-1.0120239,-0.11138916,-1.875,1.375,0.125
309,0.068359375,-0.97320557,-0.109436035,-5.359375,2.296875,1.484375
310,0.012207031,-0.9661255,-0.11456299,-2.28125,2.21875,0.34375
311,0.0048828125,-0.99884033,-0.089416504,-1.34375,-2.28125,0.125
312,0.005126953,-0.9990845,-0.11016846,-1.515625,-2.53125,-0.421875
313,0.03149414,-0.9902954,-0.11431885,0.421875,-2.015625,1.234375
314,0.024658203,-0.97442627,-0.097717285,1.140625,-1.25,1.640625
315,0.014404297,-0.9553833,-0.1194458,0.90625,-0.28125,0.875
316,0.0234375,-0.96466064,-0.120666504,-0.578125,-1.203125,0.78125
317,0.02368164,-0.9800415,-0.11407471,-2.921875,-1.625,0.421875
318,0.032958984,-0.9841919,-0.097717285,-4.9375,-1.703125,-0.828125
319,0.03149414,-0.9993286,-0.07965088,-3.1875,-1.5625,-1.59375
320,0.020507812,-1.0042114,-0.07550049,-4.78125,0.453125,-3.5
321,-0.0061035156,-0.9800415,-0.10333252,-6.859375,0.515625,-3.640625
322,0.0061035156,-0.9710083,-0.06890869,-6.53125,-0.609375,-2.859375
323,0.012207031,-0.991272,-0.08795166,-5.1875,0.40625,-1.515625
324,0.017578125,-0.98394775,-0.07183838,-2.109375,-0.875,1.90625
325,-0.010498047,-0.9951782,-0.06768799,-2.90625,0.75,0.0625
326,-0.014404297,-0.9927368,-0.02130127,-3.703125,0.203125,0.171875
327,-0.009033203,-0.9976196,-0.047424316,-5.0,0.890625,0.1875
328,0.015136719,-0.96954346,-0.058898926,-3.578125,-0.109375,-0.09375
329,-0.006591797,-1.003479,-0.038146973,-3.109375,-0.78125,-0.109375
330,-0.001953125,-1.003479,-0.035217285,-1.390625,-0.734375,0.265625
331,0.009521484,-0.9788208,-0.042541504,-1.03125,-0.84375,1.046875
332,-0.0029296875,-0.9951782,-0.033996582,0.421875,-1.875,0.484375
333,-0.005859375,-0.98638916,-0.031311035,1.40625,-1.234375,1.0
334,-0.0009765625,-0.98516846,-0.04888916,1.6875,-1.515625,1.15625
335,0.008300781,-0.99468994,-0.046447754,3.125,-1.234375,1.21875
336,-0.0048828125,-0.98443604,-0.05596924,4.078125,-3.140625,1.71875
337,-0.004638672,-0.98638916,-0.07550049,4.53125,-4.71875,1.71875
338,-0.004638672,-1.0198364,-0.09063721,5.0625,1.765625,3.734375
339,0.0107421875,-0.9512329,-0.036193848,13.21875,3.453125,7.265625
340,0.0063476562,-0.9871216,-0.11212158,16.875,0.6875,6.875
341,0.03930664,-1.0007935,-0.14508057,8.0625,-9.640625,4.453125
342,0.091308594,-0.9602661,-0.046691895,-0.328125,4.671875,-0.03125
343,0.032470703,-0.9859009,-0.08013916,1.546875,3.125,3.078125
344,0.045166016,-0.99053955,-0.05279541,-2.484375,1.078125,1.046875
345,0.01928711,-0.97491455,-0.10308838,-2.03125,4.546875,1.40625
346,0.016357422,-0.991272,-0.08673096,-1.390625,0.90625,-1.140625
347,0.021484375,-0.9963989,-0.07989502,-0.9375,-1.578125,-0.609375
348,0.025146484,-0.99713135,-0.10992432,1.75,-0.25,1.09375
349,0.032470703,-0.9710083,-0.08526611,2.015625,-0.421875,1.109375
350,0.012451172,-0.97613525,-0.08673096,1.421875,-0.375,1.1875
351,0.026855469,-0.97784424,-0.082092285,-0.953125,-0.390625,0.859375
352,0.029541016,-0.99713135,-0.08770752,-2.59375,-1.0625,-0.421875
353,0.021484375,-1.0044556,-0.085754395,-4.015625,-1.34375,-3.375
354,0.013916016,-0.9885864,-0.07476807,-5.46875,1.296875,-4.8125
355,0.010253906,-0.97784424,-0.07940674,-9.21875,1.40625,-3.15625
356,0.0029296875,-0.9915161,-0.06060791,-5.84375,0.671875,-1.796875
357,-0.017822266,-0.99786377,-0.06939697,-5.9375,0.359375,-1.0625
358,0.01586914,-0.9817505,-0.0413208,-4.6875,0.15625,-0.671875
359,-0.00390625,-0.9985962,-0.0647583,-4.984375,1.421875,-0.046875
360,-0.018066406,-0.98883057,-0.026916504,-4.09375,1.0625,-0.796875
361,-0.011230469,-1.0029907,-0.015930176,-5.71875,0.28125,-0.484375
362,-0.0063476562,-0.9837036,-0.042053223,-3.984375,1.28125,0.421875
363,-0.014892578,-0.9871216,-0.020080566,-3.15625,0.640625,0.109375
364,0.0034179688,-0.99420166,-0.022277832,-1.765625,-0.046875,0.625
365,-0.0029296875,-0.9907837,-0.017150879,-1.515625,-2.03125,0.953125
366,-0.010009766,-0.991272,-0.0256958,0.34375,-1.765625,0.59375
367,-0.01586914,-0.98443604,-0.020324707,2.28125,-2.53125,1.171875
368,0.00048828125,-0.9907837,-0.022766113,2.515625,-2.140625,1.1875
369,-0.009277344,-0.9915161,-0.022277832,3.8125,-4.046875,1.703125
370,-0.012939453,-0.99298096,-0.02545166,6.421875,-4.703125,1.890625
371,-0.0009765625,-1.000061,-0.039855957,8.171875,-6.6875,3.375
372,-0.0034179688,-0.9961548,-0.06817627,10.578125,-1.671875,4.75
373,-0.0036621094,-1.0200806,-0.043762207,10.921875,8.859375,6.578125
374,0.015380859,-0.9248657,-0.05645752,14.421875,7.71875,8.640625
375,0.0036621094,-1.0049438,-0.15435791,17.703125,0.640625,5.171875
376,0.10424805,-0.9522095,0.042175293,6.109375,4.828125,4.46875
377,0.08154297,-0.96881104,-0.14312744,2.640625,6.34375,3.5
378,0.0061035156,-0.9793091,-0.021057129,0.203125,-1.0,0.84375
379,0.03955078,-0.9758911,-0.10235596,-2.78125,3.0,1.578125
380,0.030517578,-0.9768677,-0.1116333,-5.03125,1.953125,-2.0
381,0.018554688,-1.0252075,-0.0881958,-3.90625,-3.234375,-0.703125
382,0.015136719,-1.0249634,-0.089904785,-0.390625,-1.53125,-0.140625
383,0.03100586,-0.9837036,-0.097717285,1.90625,-0.9375,1.15625
384,0.034423828,-0.9651489,-0.0960083,1.109375,-2.21875,0.4375
385,0.010498047,-0.9690552,-0.09210205,-1.171875,-2.3125,0.375
386,0.042236328,-0.9834595,-0.10601807,-1.625,-1.84375,-0.34375
387,0.03515625,-1.0042114,-0.08721924,-2.484375,-1.453125,-2.65625
388,0.028808594,-1.0012817,-0.08502197,-3.234375,-1.125,-3.984375
389,-0.009521484,-0.9976196,-0.070373535,-6.921875,1.59375,-3.03125
390,0.0014648438,-0.99053955,-0.058898926,-10.6875,4.8125,-4.15625
391,0.010498047,-0.97735596,-0.061828613,-11.1875,3.53125,-3.34375
392,-0.020019531,-0.9949341,-0.051086426,-9.03125,0.953125,-2.171875
393,-0.009277344,-1.0088501,-0.032043457,-3.828125,-1.21875,-1.71875
394,-0.001953125,-0.97125244,-0.008850098,-0.578125,-2.671875,0.6875
395,-0.025390625,-0.9837036,-0.047912598,0.078125,-3.453125,0.96875
396,-0.0056152344,-0.97906494,-0.038146973,-0.015625,-1.546875,-0.265625
397,-0.0053710938,-1.008606,-0.014465332,0.5,-1.375,0.828125
398,-0.016845703,-0.9998169,-0.02935791,1.625,-0.15625,1.40625
399,-0.0036621094,-0.9805298,-0.02960205,1.546875,-0.546875,0.90625
400,-0.0036621094,-0.9939575,-0.04083252,1.65625,-1.671875,1.21875
401,-0.017089844,-0.9961548,-0.028381348,2.3125,-2.484375,1.609375
402,-0.0043945312,-0.9998169,-0.03717041,2.375,-1.90625,1.9375
403,-0.0087890625,-0.99420166,-0.035461426,2.640625,-2.5,2.0
404,0.0034179688,-0.9829712,-0.043029785,3.515625,-2.828125,2.734375
405,-0.0026855469,-0.99591064,-0.04156494,3.828125,-1.875,2.078125
406,0.004638672,-0.9920044,-0.050109863,1.75,-1.953125,1.953125
407,0.017822266,-0.991272,-0.058898926,3.1875,-1.0,1.828125
408,0.007080078,-0.9898071,-0.062561035,4.3125,-1.578125,3.21875
409,0.0012207031,-1.0110474,-0.05987549,4.671875,-0.984375,2.40625
410,0.017822266,-0.96881104,-0.06768799,4.375,-1.046875,2.875
411,0.0029296875,-0.9907837,-0.06915283,2.71875,-1.6875,2.171875
412,0.03100586,-0.9949341,-0.0635376,4.15625,-0.9375,2.265625
413,0.016845703,-0.98272705,-0.07598877,2.9375,-0.28125,2.40625
414,0.028320312,-0.986145,-0.093566895,3.296875,0.0625,1.953125
415,0.0024414062,-1.0003052,-0.08306885,2.78125,-0.375,2.59375
416,0.040771484,-0.98760986,-0.09967041,4.796875,1.4375,3.03125
417,0.021484375,-0.97052,-0.09307861,3.9375,2.03125,3.109375
418,0.03515625,-0.9746704,-0.13140869,3.671875,1.453125,2.765625
419,0.026123047,-0.96221924,-0.11407471,6.578125,0.1875,4.0
420,0.03149414,-0.9902954,-0.08282471,6.359375,1.125,2.90625
421,0.020263672,-0.9529419,-0.09967041,-0.125,1.03125,2.609375
422,0.064697266,-0.9470825,-0.11016846,-0.953125,3.515625,0.546875
423,0.03491211,-1.0120239,-0.07598877,-0.734375,0.578125,0.328125
424,0.045898438,-0.9636841,-0.12213135,-1.375,4.546875,2.25
425,0.012451172,-0.97369385,-0.10308838,-2.75,-0.546875,0.015625
426,0.036865234,-1.0230103,-0.082336426,-1.5,-1.046875,-0.421875
427,0.013427734,-0.98565674,-0.105285645,0.265625,-0.875,0.4375
428,0.045166016,-0.9614868,-0.09649658,2.359375,-1.515625,0.890625
429,0.049804688,-0.9973755,-0.12286377,0.6875,-0.984375,0.90625
430,0.026611328,-0.975647,-0.11529541,0.8125,-0.1875,1.203125
431,0.040039062,-0.96539307,-0.11871338,-0.25,1.296875,0.421875
432,0.028808594,-0.9751587,-0.09210205,-1.015625,0.046875,0.40625
433,0.025634766,-0.99420166,-0.089660645,-3.140625,1.328125,-0.046875
434,0.03857422,-0.9973755,-0.09967041,-4.984375,2.390625,-1.1875
435,0.036865234,-1.0098267,-0.08062744,-5.890625,1.34375,-4.5
436,0.016357422,-0.9883423,-0.077941895,-7.1875,-0.65625,-6.515625
437,0.010253906,-0.9783325,-0.0869751,-9.265625,-1.0625,-4.9375
438,-0.01586914,-0.9837036,-0.070129395,-7.0,-0.03125,-3.640625
439,-0.0009765625,-0.99835205,-0.03717041,-5.59375,0.765625,-2.125
440,0.00024414062,-0.9937134,-0.0413208,-4.84375,0.125,0.40625
441,-0.016113281,-0.98443604,-0.038635254,-3.125,0.265625,0.40625
442,-0.008300781,-0.9824829,-0.02911377,-3.234375,-0.15625,-0.359375
443,-0.0043945312,-0.98931885,-0.03326416,-3.375,-0.4375,0.359375
444,-0.0034179688,-0.9961548,-0.031066895,-2.265625,-0.265625,0.46875
445,-0.0063476562,-0.9793091,-0.02154541,-0.0625,-1.59375,0.6875
446,0.009033203,-0.99298096,-0.051818848,-0.375,-0.046875,0.640625
447,-0.010253906,-0.98101807,-0.034729004,1.90625,-2.375,1.703125
448,0.010009766,-0.9890747,-0.06866455,2.53125,-2.015625,1.3125
449,-0.0043945312,-0.99664307,-0.023254395,7.546875,-4.421875,2.59375
450,-0.005859375,-1.0064087,-0.055236816,8.96875,-5.234375,4.359375
451,-0.0048828125,-0.9751587,-0.044006348,7.25,-2.609375,3.375
452,-0.0053710938,-1.0159302,-0.093811035,6.46875,1.625,5.34375
453,0.045898438,-0.9651489,-0.07720947,6.578125,1.46875,5.703125
454,0.0053710938,-0.9993286,-0.062561035,6.671875,1.859375,4.609375
455,0.044433594,-0.9780884,-0.089904785,5.390625,1.5,3.734375
456,0.011962891,-0.9793091,-0.07110596,5.15625,-2.484375,3.484375
457,0.060302734,-0.9768677,-0.097473145,3.6875,0.703125,1.96875
458,0.04736328,-0.94976807,-0.081604004,4.875,1.9375,3.84375
459,0.029541016,-1.0032349,-0.13287354,1.953125,2.578125,1.28125
460,0.05078125,-0.9710083,-0.11505127,0.625,3.765625,1.375
461,0.033935547,-0.98101807,-0.10430908,-0.703125,0.359375,0.90625
462,0.03125,-0.9920044,-0.097473145,-0.40625,-1.453125,-0.234375
463,0.03857422,-1.0022583,-0.10723877,-1.921875,0.140625,-1.0625
464,0.03173828,-0.97491455,-0.10430908,-0.125,-1.140625,0.75
465,0.03857422,-0.97784424,-0.11993408,-0.6875,0.3125,-0.046875
466,0.032226562,-0.9920044,-0.097717285,0.203125,-0.609375,0.625
467,0.03857422,-0.9898071,-0.097717285,-0.34375,-0.015625,0.28125
468,0.0234375,-0.975647,-0.10040283,-0.125,1.15625,0.453125
469,0.03125,-0.972229,-0.105773926,-1.125,0.265625,0.40625
470,0.03100586,-0.97906494,-0.09991455,-1.390625,0.078125,0.21875
471,0.030761719,-0.9985962,-0.08135986,-2.421875,0.5,-0.484375
472,0.03564453,-0.99835205,-0.08062744,-4.0625,0.34375,-3.15625
473,0.018310547,-0.9927368,-0.07159424,-7.34375,-0.03125,-5.34375
474,-0.001953125,-0.9817505,-0.077697754,-8.921875,0.0,-4.3125
475,0.009521484,-0.9834595,-0.07305908,-6.671875,0.296875,-2.5625
476,-0.0017089844,-0.99005127,-0.049621582,-5.96875,-0.484375,-1.6875
477,-0.012451172,-0.9981079,-0.037902832,-5.8125,0.78125,-1.28125
478,0.0068359375,-0.9849243,-0.038879395,-4.203125,0.53125,0.1875
479,-0.0107421875,-0.9871216,-0.024963379,-3.375,0.03125,0.125
480,0.00024414062,-0.99053955,-0.04473877,-4.484375,1.484375,0.453125
481,0.008544922,-0.987854,-0.02520752,-2.9375,-1.015625,0.234375
482,-0.0041503906,-0.9949341,-0.040100098,-3.625,-0.25,-0.625
483,-0.014892578,-0.9985962,0.003112793,-2.1875,-0.59375,-0.234375
484,0.0043945312,-0.99786377,-0.020812988,-1.1875,-0.3125,0.6875
485,-0.016845703,-0.97857666,-0.006164551,1.75,-1.765625,0.734375
486,-0.0056152344,-1.000061,-0.054992676,8.71875,-4.96875,3.015625
487,-0.009277344,-1.0020142,-0.070129395,13.0,-4.4375,4.78125
488,-0.016357422,-0.9902954,-0.043518066,12.15625,-0.453125,6.03125
489,0.046142578,-0.96417236,-0.09698486,15.625,2.71875,7.203125
490,0.022705078,-0.99884033,-0.06427002,8.625,-6.21875,3.734375
491,0.032714844,-0.9990845,-0.090148926,7.484375,1.09375,4.25
492,0.060058594,-0.96295166,-0.0881958,1.75,0.75,2.953125
493,0.012207031,-0.9729614,-0.05230713,-0.828125,-2.453125,0.875
494,0.056396484,-0.9819946,-0.10479736,-1.53125,0.109375,0.734375
495,0.0146484375,-0.96759033,-0.066223145,0.296875,1.5,0.53125
496,0.020507812,-0.98809814,-0.093811035,-0.359375,1.421875,0.265625
497,0.019042969,-1.0005493,-0.085510254,0.15625,0.203125,-0.421875
498,0.018310547,-0.9949341,-0.09283447,-1.671875,0.984375,0.03125
499,0.017089844,-0.9763794,-0.090148926,0.140625,0.75,-0.109375
500,0.009521484,-0.9837036,-0.08111572,0.390625,-0.875,1.109375
501,0.026611328,-0.99224854,-0.09210205,-0.109375,-0.09375,0.21875
502,0.025634766,-0.9841919,-0.08135986,-0.046875,0.046875,1.296875
503,0.026123047,-0.98321533,-0.07989502,0.125,0.109375,1.046875
504,0.023925781,-0.97857666,-0.085754395,0.03125,0.34375,1.0625
505,0.02709961,-0.9841919,-0.081848145,-0.515625,0.0,0.265625
506,0.020019531,-0.986145,-0.0791626,-0.890625,0.234375,0.171875
507,0.024169922,-0.9949341,-0.07623291,-1.71875,1.09375,-0.015625
508,0.032958984,-0.99835205,-0.05670166,-2.71875,1.421875,-1.015625
509,0.0053710938,-1.0037231,-0.05230713,-5.375,1.953125,-2.859375
510,-0.0012207031,-0.9829712,-0.06695557,-7.265625,2.1875,-3.40625
511,0.001953125,-0.9849243,-0.057922363,-8.734375,2.171875,-3.328125
512,0.007080078,-0.99224854,-0.046691895,-7.453125,0.90625,-1.65625
513,-0.012451172,-1.0010376,-0.030578613,-4.140625,-0.34375,0.25
514,0.0034179688,-0.9963989,0.0026245117,-3.46875,0.875,-1.140625
515,-0.009033203,-0.9758911,-0.042053223,-4.609375,0.109375,0.1875
516,-0.013183594,-0.9944458,-0.014465332,-3.671875,0.734375,-1.0625
517,-0.018554688,-1.0088501,-0.0025024414,-2.546875,-0.515625,-0.171875
518,0.0029296875,-0.99346924,-0.022766113,-2.203125,0.640625,0.296875
519,-0.015625,-0.99102783,-0.0071411133,-1.171875,-0.390625,0.46875
520,-0.015136719,-0.99053955,0.0021362305,-1.03125,-1.0625,0.46875
521,-0.0078125,-0.9951782,-0.012268066,-0.578125,-1.921875,0.421875
522,-0.013916016,-0.98321533,-0.016662598,1.15625,-2.921875,1.09375
523,-0.011474609,-0.99542236,-0.016418457,3.59375,-2.609375,1.6875
524,-0.0048828125,-0.9944458,-0.01739502,5.578125,-4.875,2.484375
525,-0.026367188,-1.005188,-0.027648926,13.546875,-8.203125,4.59375
526,0.011230469,-0.9817505,-0.0803833,12.953125,-5.484375,8.078125
527,-0.005126953,-0.97857666,-0.07598877,16.40625,3.265625,8.5
528,0.040039062,-0.9495239,-0.014465332,13.046875,-1.953125,8.46875
529,0.039794922,-0.9841919,-0.03741455,5.96875,-1.3125,4.078125
530,0.033447266,-0.9714966,-0.051086426,1.375,0.46875,2.046875
531,0.07495117,-0.9685669,-0.09063721,-1.359375,0.125,1.34375
532,0.037597656,-0.9873657,-0.0791626,-4.65625,0.28125,-0.171875
533,0.011962891,-0.9924927,-0.0725708,-3.609375,-0.296875,-1.046875
534,0.043701172,-1.0042114,-0.09063721,1.6875,0.484375,-0.015625
535,0.022216797,-0.9771118,-0.077697754,1.953125,-0.09375,1.03125
536,0.010009766,-0.989563,-0.08306885,0.65625,0.59375,0.515625
537,0.022949219,-0.9885864,-0.08355713,0.375,0.5,1.296875
538,0.028564453,-0.9841919,-0.0869751,0.4375,0.3125,1.03125
539,0.028320312,-0.9824829,-0.08795166,0.359375,0.59375,0.3125
540,0.03149414,-0.99176025,-0.08306885,0.203125,0.125,0.84375
541,0.0234375,-0.9883423,-0.08721924,0.140625,-0.015625,0.875
542,0.026367188,-0.9841919,-0.09088135,0.078125,0.125,0.84375
543,0.03125,-0.98760986,-0.08477783,0.40625,-0.015625,0.34375
544,0.024658203,-0.9829712,-0.08306885,0.078125,0.25,0.59375
545,0.03564453,-0.9927368,-0.07330322,-0.421875,1.21875,-0.125
546,0.029296875,-1.0046997,-0.047180176,-2.375,0.328125,-1.375
547,0.014892578,-1.0046997,-0.054748535,-6.21875,0.875,-3.84375
548,-0.0078125,-0.9776001,-0.07867432,-9.8125,1.6875,-3.8125
549,0.00048828125,-0.9973755,-0.07354736,-9.25,2.375,-6.96875
550,0.0036621094,-1.0029907,-0.02154541,-7.265625,1.90625,-3.734375
551,-0.0024414062,-0.99298096,-0.02911377,-5.546875,1.546875,-1.375
552,-0.012207031,-0.98272705,-0.0178833,-4.53125,1.25,0.15625
553,-0.013916016,-0.9727173,-0.024963379,-3.578125,0.015625,0.359375
554,-0.014892578,-0.9898071,-0.016906738,-3.71875,-0.703125,0.328125
555,-0.0087890625,-1.0010376,-0.012268066,-3.5,-0.109375,0.03125
556,-0.018798828,-1.0012817,-0.002746582,-2.25,-0.4375,0.65625
557,-0.014160156,-0.99884033,0.0016479492,-1.421875,-1.46875,0.375
558,-0.012207031,-0.97979736,-0.011291504,-0.984375,-2.078125,0.34375
559,-0.015625,-0.9834595,-0.012512207,0.59375,-2.28125,0.515625
560,-0.015136719,-0.98638916,-0.012023926,2.34375,-2.640625,1.296875
561,-0.0031738281,-0.99224854,-0.010070801,3.921875,-2.734375,1.671875
562,-0.022216797,-0.9939575,0.02532959,12.53125,-8.359375,4.84375
563,-0.0031738281,-0.89190674,-0.26153564,36.578125,15.046875,22.953125
564,0.06518555,-0.94317627,-0.024230957,29.9375,-2.359375,13.8125
565,0.063964844,-1.1343384,-0.082092285,9.328125,-0.671875,1.9375
566,-0.03955078,-0.96539307,-0.039611816,1.25,-0.375,3.359375
567,0.08666992,-0.88067627,-0.089660645,-3.125,-2.0625,-2.03125
568,0.039794922,-0.9890747,-0.10821533,-5.4375,-4.75,-2.09375
569,0.05859375,-1.0496216,-0.14434814,-2.25,-1.234375,0.671875
570,0.03955078,-1.0203247,-0.10211182,0.34375,-0.53125,1.203125
571,0.02319336,-0.95098877,-0.086242676,0.8125,-1.609375,1.03125
572,0.020751953,-0.9468384,-0.09674072,-0.328125,-0.71875,-0.03125
573,0.036865234,-0.9898071,-0.097961426,-1.078125,0.171875,-0.078125
574,0.04248047,-0.9968872,-0.109191895,-1.578125,0.71875,0.671875
575,0.033691406,-0.99346924,-0.0947876,-1.71875,1.25,0.09375
576,0.0390625,-0.97320557,-0.097229004,-1.34375,1.109375,-0.390625
577,0.030761719,-0.98394775,-0.09283447,-1.75,0.640625,-1.609375
578,0.02368164,-1.0090942,-0.07647705,-3.6875,0.84375,-4.125
579,0.024658203,-0.99713135,-0.055480957,-6.25,0.296875,-4.703125
580,0.012939453,-0.986145,-0.08135986,-8.6875,2.25,-5.015625
581,0.00048828125,-0.97369385,-0.053527832,-8.234375,1.046875,-3.71875
582,0.0012207031,-0.98760986,-0.049621582,-8.671875,1.96875,-2.6875
583,-0.015625,-1.0049438,-0.019836426,-6.5625,1.265625,-0.171875
584,0.0068359375,-1.00177,-0.029846191,-5.859375,1.890625,-0.703125
585,-0.0029296875,-0.9751587,-0.02178955,-4.765625,0.71875,-0.421875
586,-0.011474609,-0.98883057,-0.013244629,-4.859375,-0.703125,0.078125
587,-0.0009765625,-0.9920044,-0.006652832,-4.09375,-0.5,-0.265625
588,-0.0075683594,-0.99053955,-0.010559082,-3.25,-1.09375,0.078125
589,-0.017089844,-0.9944458,0.0053100586,-2.203125,-0.6875,0.390625
590,-0.0063476562,-0.99468994,-0.0012817383,-1.25,-1.234375,0.359375
591,-0.016601562,-0.9805298,-0.010559082,-0.546875,-1.890625,0.921875
592,-0.0053710938,-0.98760986,-0.018371582,0.59375,-2.21875,0.359375
593,-0.01171875,-0.9902954,-0.009338379,2.671875,-2.484375,1.015625
594,-0.012207031,-0.9939575,-0.010559082,3.375,-2.78125,1.171875
595,-0.013183594,-0.9924927,-0.002746582,5.359375,-3.625,1.421875
596,-0.013671875,-0.9998169,-0.03765869,11.078125,-5.640625,4.0
597,-0.0063476562,-0.97369385,0.020202637,6.859375,-5.390625,2.59375
598,-0.0048828125,-0.9949341,-0.054992676,7.171875,-0.875,5.0625
599,0.015136719,-0.99664307,-0.07183838,7.59375,-0.625,5.375
600,0.016845703,-1.015686,-0.028381348,8.640625,-0.140625,4.984375
601,0.0078125,-0.9949341,-0.055480957,9.296875,2.125,4.8125
602,0.026855469,-0.9741821,-0.08526611,5.796875,0.625,4.015625
603,-0.011230469,-1.008606,-0.13482666,10.296875,-0.328125,5.671875
604,0.122558594,-0.9390259,-0.004211426,6.46875,5.5625,2.140625
605,0.038085938,-0.9456177,-0.1338501,2.546875,6.328125,4.046875
606,0.017578125,-0.9937134,-0.06817627,0.328125,3.5,-0.359375
607,0.034423828,-0.9585571,-0.06890869,0.546875,1.15625,2.546875
608,0.012939453,-0.9668579,-0.08355713,-1.734375,-2.140625,0.9375
609,0.030517578,-1.0198364,-0.09527588,-2.078125,-3.734375,-0.171875
610,0.037353516,-1.0056763,-0.09918213,-1.421875,-2.1875,0.515625
611,0.023925781,-0.9890747,-0.09307861,0.234375,-0.828125,0.90625
612,0.036621094,-0.97076416,-0.09234619,0.609375,-0.390625,0.5
613,0.034423828,-0.9758911,-0.0960083,-0.359375,-0.015625,0.6875
614,0.040527344,-0.97735596,-0.09429932,0.140625,-0.390625,0.484375
615,0.04272461,-0.9885864,-0.11138916,-1.046875,0.4375,0.328125
616,0.037109375,-0.986145,-0.0960083,-1.234375,0.328125,-1.03125
617,0.03540039,-1.0110474,-0.06549072,-3.328125,0.234375,-3.015625
618,0.0146484375,-1.0061646,-0.06573486,-6.25,0.890625,-4.34375
619,-0.0075683594,-0.97076416,-0.08453369,-8.265625,1.4375,-5.328125
620,0.016845703,-0.9690552,-0.066223145,-9.84375,1.171875,-5.015625
621,0.0041503906,-0.98687744,-0.05987549,-8.8125,-0.4375,-2.796875
622,-0.016357422,-0.99884033,-0.030578613,-5.296875,0.4375,-1.015625
623,-0.01953125,-0.9937134,-0.02178955,-4.0,0.71875,0.34375
624,-0.0036621094,-0.98321533,-0.02911377,-3.890625,-0.421875,-0.046875
625,-0.0021972656,-0.9902954,-0.016418457,-3.90625,-0.296875,-0.1875
626,-0.009765625,-0.9968872,-0.018615723,-4.015625,-0.125,-0.125
627,-0.004638672,-0.9981079,-0.003479004,-3.5,-0.265625,0.234375
628,-0.005859375,-0.9990845,-0.016418457,-2.421875,-0.234375,0.375
629,-0.0061035156,-0.9902954,-0.0032348633,-1.390625,-0.703125,0.640625
630,-0.015625,-0.99786377,-0.019592285,-1.15625,-2.203125,1.265625
631,-0.00390625,-0.98101807,0.015319824,1.59375,-1.34375,0.15625
632,-0.019042969,-0.9841919,-0.028625488,0.515625,-0.703125,0.671875
633,-0.016113281,-0.9973755,0.0006713867,2.3125,-1.421875,0.046875
634,-0.014892578,-1.003479,0.0006713867,3.984375,-2.765625,1.640625
635,-0.012207031,-0.9812622,-0.030822754,5.78125,-3.390625,1.59375
636,-0.00048828125,-0.98809814,-0.016174316,6.421875,-5.578125,2.421875
637,-0.014892578,-1.0339966,-0.066223145,11.3125,-4.515625,3.609375
638,-0.014404297,-1.0073853,-0.05596924,9.484375,4.984375,7.421875
639,0.013183594,-0.9175415,-0.15875244,28.359375,2.5625,12.125
640,0.0703125,-0.9834595,0.055847168,10.125,-2.25,2.734375
641,0.037109375,-0.9976196,-0.14190674,3.171875,6.515625,4.1875
642,0.02709961,-0.9734497,-0.044006348,-1.984375,1.484375,0.375
643,0.052001953,-0.99102783,-0.08453369,-1.609375,0.75,0.9375
644,0.0056152344,-1.0061646,-0.09210205,-0.328125,-0.78125,0.375
645,0.022705078,-0.9902954,-0.085754395,0.453125,-1.421875,0.34375
646,0.008544922,-0.99102783,-0.08087158,0.78125,-1.953125,0.953125
647,0.016113281,-0.99346924,-0.09429932,0.25,-1.25,1.984375
648,0.032470703,-0.9690552,-0.08917236,1.0,-2.015625,1.15625
649,0.03491211,-0.98028564,-0.10455322,-0.1875,0.265625,0.609375
650,0.030273438,-0.9763794,-0.10284424,-0.96875,-0.171875,0.1875
651,0.02368164,-0.9985962,-0.08453369,-2.078125,-0.609375,-0.4375
652,0.034179688,-0.9885864,-0.08306885,-2.359375,0.71875,-0.078125
653,0.026123047,-0.9846802,-0.0791626,-2.375,0.953125,-0.09375
654,0.027832031,-0.99835205,-0.049621582,-3.140625,1.1875,-1.546875
655,0.026367188,-1.0188599,-0.062561035,-6.921875,1.3125,-3.765625
656,-0.022460938,-0.97857666,-0.08062744,-9.390625,1.234375,-4.609375
657,0.00390625,-0.9807739,-0.06500244,-8.609375,1.4375,-6.0
658,-0.011962891,-0.9763794,-0.038146973,-6.234375,1.125,-1.921875
659,-0.021240234,-1.0054321,-0.032287598,-5.6875,0.609375,0.28125
660,0.00048828125,-0.9981079,-0.018371582,-4.046875,0.625,0.25
661,-0.010498047,-0.9776001,-0.02178955,-4.21875,-0.4375,0.0
662,-0.009033203,-0.9883423,-0.003479004,-3.171875,-0.390625,0.03125
663,-0.010498047,-0.99176025,-0.0134887695,-2.546875,-0.546875,0.53125
664,-0.016113281,-1.010315,-0.0032348633,-2.46875,-0.421875,0.359375
665,-0.016113281,-1.0044556,-0.003479004,-0.84375,-1.359375,1.140625
666,-0.009277344,-0.98760986,0.028503418,-0.578125,-0.265625,-0.140625
667,-0.020507812,-0.9800415,-0.0068969727,-2.21875,-0.828125,0.375
668,-0.01953125,-1.0032349,0.006286621,-1.09375,-0.421875,-0.546875
669,-0.01586914,-1.0003052,0.008972168,0.484375,-1.65625,0.53125
670,-0.012939453,-0.98516846,-0.0115356445,1.203125,-0.875,0.640625
671,-0.011474609,-0.9859009,-0.0015258789,2.828125,-2.65625,1.234375
672,-0.019042969,-0.98687744,-0.009094238,5.3125,-5.0625,1.90625
673,-0.044189453,-1.0567017,-0.07525635,15.84375,-10.75,6.421875
674,0.08520508,-0.90704346,-0.20513916,37.1875,12.09375,15.71875
675,0.014892578,-0.9976196,0.008239746,14.015625,-11.796875,6.40625
676,0.068603516,-0.9968872,-0.09088135,3.390625,5.53125,2.96875
677,0.012207031,-0.97125244,-0.055480957,1.078125,1.03125,2.78125
678,0.049072266,-0.9924927,-0.089660645,-0.921875,-1.4375,1.078125
679,0.0041503906,-0.9956665,-0.08111572,-2.8125,-0.78125,-1.125
680,0.03125,-0.9927368,-0.07086182,-3.546875,0.671875,-1.703125
681,0.017333984,-0.9963989,-0.039855957,-2.65625,0.90625,-0.578125
682,0.0029296875,-1.0020142,-0.04449463,0.03125,1.625,1.984375
683,0.025878906,-0.9854126,-0.049865723,2.328125,1.234375,2.0625
684,0.01977539,-0.9834595,-0.078186035,1.53125,-0.109375,1.125
685,0.011474609,-0.98638916,-0.07232666,0.15625,-0.0625,-0.59375
686,0.008056641,-0.99468994,-0.06085205,-0.75,0.78125,0.203125
687,0.018554688,-1.0059204,-0.06378174,-1.203125,1.6875,-0.453125
688,0.018798828,-1.0046997,-0.06744385,-3.125,1.421875,-2.828125
689,0.0034179688,-0.9817505,-0.06793213,-4.25,0.5625,-3.921875
690,0.01586914,-0.986145,-0.06719971,-6.5,-0.421875,-3.125
691,-0.001953125,-0.9873657,-0.050109863,-6.6875,0.703125,-1.421875
692,-0.01586914,-0.9915161,-0.043762207,-6.6875,0.40625,-0.828125
693,-0.009033203,-0.99005127,-0.037902832,-6.515625,-0.1875,-1.09375
694,-0.0087890625,-0.9944458,-0.016418457,-5.0,0.46875,-1.078125
695,-0.016113281,-0.9949341,-0.017150879,-4.109375,0.15625,0.078125
696,-0.0075683594,-0.99884033,-0.0095825195,-3.703125,0.1875,-0.390625
697,-0.007080078,-0.99664307,-0.0020141602,-2.421875,0.515625,0.96875
698,-0.0087890625,-0.9937134,-0.012268066,-2.609375,0.21875,1.0
699,-0.0061035156,-0.9885864,-0.0037231445,-1.203125,0.484375,1.09375
700,-0.016845703,-0.99224854,0.009460449,0.609375,0.234375,1.703125
701,-0.013671875,-0.98687744,0.026306152,-1.609375,0.578125,0.5625
702,-0.011962891,-0.991272,-0.008605957,-2.390625,0.359375,0.703125
703,-0.019042969,-0.9949341,0.008972168,-1.234375,1.1875,-0.046875
704,-0.028076172,-1.0012817,0.031433105,-0.625,-0.109375,0.515625
705,-0.0078125,-0.99542236,-0.0017700195,-0.625,0.859375,0.5625
706,-0.017822266,-0.98028564,0.007019043,0.984375,-0.4375,0.90625
707,-0.0036621094,-0.99224854,-0.014465332,1.71875,-1.484375,1.0625
708,-0.010498047,-0.99664307,-0.0032348633,3.453125,-2.703125,1.09375
709,-0.0234375,-0.99468994,-0.012756348,4.828125,-3.28125,1.53125
710,-0.014404297,-1.000061,0.0079956055,5.953125,-4.515625,1.671875
711,-0.010253906,-1.000061,-0.01739502,10.875,-5.515625,3.546875
712,-0.0068359375,-0.98223877,-0.031311035,10.921875,-5.65625,5.0625
713,-0.017089844,-0.99835205,-0.0635376,10.90625,-7.015625,4.046875
714,-0.013671875,-0.9998169,-0.09161377,10.328125,3.765625,6.109375
715,0.040771484,-0.97320557,-0.1651001,18.9375,-0.6875,10.6875
716,0.11645508,-0.96710205,0.0016479492,2.390625,5.421875,1.9375
717,0.013916016,-0.9859009,-0.09283447,1.921875,2.625,4.265625
718,0.055908203,-0.9475708,-0.019104004,-2.265625,2.078125,0.265625
719,0.033447266,-0.97857666,-0.08917236,-2.03125,1.921875,1.171875
720,0.0146484375,-0.99346924,-0.1026001,-2.109375,1.0625,-0.875
721,0.025878906,-1.0232544,-0.07501221,0.0,-1.796875,0.265625
722,0.009277344,-1.0115356,-0.070373535,0.859375,-0.265625,0.96875
723,0.021728516,-0.96881104,-0.08648682,0.625,-0.125,0.96875
724,0.026123047,-0.96759033,-0.09429932,-1.171875,-0.390625,-0.328125
725,0.029541016,-0.9805298,-0.0947876,-2.859375,-0.328125,-0.390625
726,0.041015625,-1.0039673,-0.07476807,-3.515625,0.359375,-1.875
727,0.01953125,-1.0056763,-0.050598145,-5.4375,-0.109375,-3.546875
728,-0.0073242188,-1.0010376,-0.062561035,-7.171875,0.984375,-4.65625
729,-0.019042969,-0.9807739,-0.06768799,-9.015625,2.40625,-4.609375
730,-0.0017089844,-0.9807739,-0.04937744,-10.296875,1.546875,-3.515625
731,-0.0063476562,-1.0056763,-0.030822754,-8.84375,0.578125,-2.5625
732,-0.020507812,-0.98809814,-0.020568848,-4.734375,0.859375,-0.203125
733,-0.016113281,-0.98565674,-0.024475098,-4.59375,0.109375,0.484375
734,-0.015625,-0.9902954,-0.012756348,-4.171875,-0.078125,0.015625
735,-0.020263672,-0.99468994,-0.013000488,-4.234375,-1.03125,0.125
736,-0.0048828125,-0.99053955,0.016052246,-1.4375,-0.625,-0.15625
737,-0.015380859,-1.0010376,-0.012268066,-3.390625,0.21875,-0.015625
738,-0.028320312,-1.0012817,0.015319824,-2.0,0.203125,-0.671875
739,-0.013671875,-0.9990845,0.014587402,-2.09375,-0.296875,0.34375
740,-0.017822266,-0.98028564,0.005554199,-0.375,-0.171875,0.5
741,-0.026123047,-0.9927368,0.019226074,-0.25,-1.03125,0.359375
742,-0.01586914,-0.98931885,0.012390137,0.703125,-1.265625,0.78125
743,-0.020263672,-0.99835205,0.010192871,0.828125,-1.484375,0.6875
744,-0.018798828,-0.99298096,0.005065918,1.078125,-1.296875,0.6875
745,-0.012939453,-0.99420166,0.018005371,1.859375,-1.703125,1.0
746,-0.025634766,-1.0046997,0.016540527,1.84375,-1.765625,1.453125
747,-0.016601562,-0.99346924,0.01361084,1.390625,-1.328125,0.96875
748,-0.015136719,-0.9873657,0.0026245117,1.609375,-1.46875,0.96875
749,-0.012451172,-0.9973755,0.0067749023,6.34375,-4.8125,1.34375
750,-0.04638672,-1.0095825,-0.054992676,16.6875,4.8125,11.171875
751,0.03149414,-0.847229,-0.190979,36.4375,3.390625,18.046875
752,0.02319336,-1.0916138,0.042907715,9.71875,-11.640625,2.640625
753,0.07788086,-0.95977783,-0.10626221,1.171875,7.96875,3.796875
754,0.0146484375,-0.9324341,-0.06842041,-5.734375,1.40625,-2.28125
755,0.052246094,-1.0166626,-0.06329346,-3.296875,-0.921875,-0.046875
756,-0.014160156,-1.0579224,-0.066223145,-1.28125,0.96875,0.546875
757,0.017089844,-0.9932251,-0.054748535,2.21875,0.546875,1.0625
758,0.009033203,-0.9570923,-0.07330322,3.21875,-1.078125,0.828125
759,0.013183594,-0.9727173,-0.08306885,2.0625,-1.734375,1.03125
