sample_no,accel_x,accel_y,accel_z,gyro_x,gyro_y,gyro_z
0,-0.54711914,-0.03375244,-0.84552,-2.4375,2.796875,-0.078125
1,-0.5163574,-0.042541504,-0.7715454,-3.515625,4.015625,0.59375
2,-0.52856445,-0.050598145,-0.78131104,-0.28125,-0.609375,0.3125
3,-0.5473633,-0.045959473,-0.8152466,0.8125,-3.3125,-0.71875
4,-0.51953125,-0.04034424,-0.81866455,0.578125,-4.421875,-1.3125
5,-0.53149414,-0.038879395,-0.798645,-0.515625,-0.796875,-1.78125
6,-0.5493164,-0.023254395,-0.86553955,0.515625,-2.984375,-1.6875
7,-0.51904297,-0.024719238,-0.8272095,-1.296875,2.765625,-0.59375
8,-0.5292969,-0.043273926,-0.833313,0.65625,-0.671875,-0.25
9,-0.5258789,-0.0335083,-0.82281494,1.265625,2.015625,-1.03125
10,-0.54248047,-0.031799316,-0.85723877,-0.09375,2.65625,-1.640625
11,-0.5234375,-0.026184082,-0.7979126,-1.34375,3.984375,-2.4375
12,-0.5292969,-0.016662598,-0.78741455,0.109375,2.078125,-2.765625
13,-0.5175781,-0.022277832,-0.7727661,-1.1875,0.890625,-2.125
14,-0.5551758,-0.024475098,-0.8015747,-2.40625,-1.40625,-1.375
15,-0.52685547,-0.02178955,-0.80010986,2.234375,-4.875,-1.21875
16,-0.5263672,-0.010559082,-0.85040283,4.828125,-4.90625,-2.171875
17,-0.5202637,-0.01763916,-0.83477783,3.78125,-3.09375,-1.84375
18,-0.51464844,-0.0056762695,-0.79156494,6.15625,-2.65625,-2.359375
19,-0.51660156,0.008972168,-0.8045044,3.46875,-3.40625,-1.453125
20,-0.5229492,0.020202637,-0.88531494,3.296875,-2.59375,-1.390625
21,-0.5227051,0.028747559,-0.85723877,3.03125,-0.921875,-1.375
22,-0.50878906,0.023620605,-0.8242798,3.875,-2.171875,-1.734375
23,-0.4814453,0.020446777,-0.79693604,0.109375,-4.921875,-0.84375
24,-0.515625,0.02142334,-0.88897705,-2.171875,-5.734375,0.640625
25,-0.49438477,0.019470215,-0.8587036,-1.078125,-4.6875,0.15625
26,-0.48266602,0.024597168,-0.81207275,1.125,-3.5,-0.640625
27,-0.49414062,0.026062012,-0.8809204,-2.109375,-5.703125,-0.84375
28,-0.47314453,0.007751465,-0.80303955,-3.5625,-4.3125,-1.921875
29,-0.51171875,0.019226074,-0.8796997,-10.875,-7.53125,-0.0625
30,-0.47216797,0.00091552734,-0.9402466,-11.828125,-6.25,0.625
31,-0.4423828,-0.023986816,-0.77423096,-8.34375,2.03125,0.625
32,-0.45654297,-0.018859863,-0.84503174,-4.296875,7.203125,1.0625
33,-0.4338379,-0.021057129,-0.8670044,-1.09375,11.671875,0.921875
34,-0.5217285,-0.018127441,-0.8723755,1.078125,4.625,1.046875
35,-0.49780273,-0.014221191,-0.8726196,7.625,4.71875,0.46875
36,-0.52368164,-0.01373291,-0.8850708,0.875,0.515625,1.078125
37,-0.48217773,-0.010559082,-0.8015747,-1.21875,0.34375,1.75
38,-0.4711914,-0.018859863,-0.7937622,-2.875,-2.0,1.921875
39,-0.5109863,-0.025939941,-0.8115845,-11.3125,8.65625,4.765625
40,-0.48461914,-0.03668213,-0.80670166,-11.21875,10.640625,2.65625
41,-0.5280762,-0.06036377,-0.7859497,-5.90625,10.75,0.890625
42,-0.53344727,-0.051574707,-0.79766846,-1.625,5.953125,-1.515625
43,-0.5517578,-0.054504395,-0.8694458,0.515625,-5.0625,-0.515625
44,-0.5209961,-0.049621582,-0.77008057,6.015625,-10.796875,-0.140625
45,-0.49975586,-0.046203613,-0.85284424,1.203125,-11.796875,0.328125
46,-0.48266602,-0.047912598,-0.8167114,1.109375,-4.734375,-0.28125
47,-0.49243164,-0.049865723,-0.8413696,2.203125,-5.234375,-1.421875
48,-0.49414062,-0.0413208,-0.8484497,3.125,-3.8125,-1.765625
49,-0.47631836,-0.035461426,-0.9763794,-9.28125,6.359375,0.09375
50,-0.5209961,-0.046936035,-0.90631104,-8.109375,25.53125,-1.09375
51,-0.5317383,-0.054992676,-0.78790283,-0.3125,11.1875,-0.484375
52,-0.5493164,-0.04864502,-0.80010986,5.3125,-1.8125,-2.578125
53,-0.5493164,-0.031799316,-0.8779907,0.6875,-15.015625,-1.71875
54,-0.49902344,-0.04425049,-0.8098755,1.671875,-10.8125,0.21875
55,-0.48291016,-0.042785645,-0.8442993,1.6875,-4.3125,-0.515625
56,-0.49145508,-0.038635254,-0.84820557,1.0,-1.203125,-1.109375
57,-0.49047852,-0.034973145,-0.8477173,0.421875,-0.71875,-1.1875
58,-0.4868164,-0.035461426,-0.84625244,0.0,0.40625,-0.65625
59,-0.49267578,-0.026428223,-0.8352661,-0.765625,0.71875,-0.265625
60,-0.49951172,-0.025939941,-0.85650635,-2.28125,0.703125,-0.03125
61,-0.48876953,-0.03717041,-0.8233032,-1.953125,1.625,-0.5625
62,-0.49682617,-0.04083252,-0.8435669,-2.546875,0.796875,-0.578125
63,-0.49145508,-0.04425049,-0.84991455,-3.296875,0.578125,-0.421875
64,-0.49389648,-0.04840088,-0.8340454,-3.078125,1.484375,-0.375
65,-0.49804688,-0.047668457,-0.847229,-2.84375,0.5,-0.59375
66,-0.49072266,-0.05279541,-0.8418579,-2.625,-0.140625,-0.15625
67,-0.49804688,-0.047912598,-0.83551025,-2.25,-0.75,-0.03125
68,-0.4814453,-0.054992676,-0.84820557,-2.515625,-1.171875,-0.1875
69,-0.4892578,-0.061828613,-0.8418579,-5.296875,-1.6875,0.3125
70,-0.49438477,-0.06719971,-0.83380127,-4.734375,-1.46875,-0.046875
71,-0.4831543,-0.06451416,-0.84259033,-2.640625,-0.734375,-0.515625
72,-0.48413086,-0.070373535,-0.8460083,-1.53125,-1.046875,-0.390625
73,-0.46801758,-0.066711426,-0.8076782,1.703125,2.28125,-0.96875
74,-0.4909668,-0.06842041,-0.8460083,3.171875,3.421875,-1.203125
75,-0.49658203,-0.05645752,-0.85528564,4.46875,4.015625,-1.203125
76,-0.49804688,-0.046447754,-0.84332275,3.140625,3.1875,-0.828125
77,-0.4958496,-0.050598145,-0.8272095,4.390625,2.609375,-0.609375
78,-0.50097656,-0.04058838,-0.8401489,2.546875,1.296875,-0.421875
79,-0.5007324,-0.03253174,-0.8357544,1.34375,1.484375,-0.296875
80,-0.5119629,-0.028869629,-0.83306885,1.203125,1.21875,-0.578125
81,-0.49975586,-0.020568848,-0.8274536,1.0,0.546875,-0.46875
82,-0.51416016,-0.022033691,-0.82476807,0.5,-0.109375,-0.78125
83,-0.5019531,-0.0335083,-0.8262329,-0.265625,0.96875,-0.296875
84,-0.5131836,-0.039611816,-0.8389282,4.625,-2.359375,-0.46875
85,-0.5036621,-0.023742676,-0.8674927,5.328125,-6.234375,-0.515625
86,-0.484375,-0.010314941,-0.78619385,-0.53125,-7.109375,-0.171875
87,-0.48095703,-0.024475098,-0.90704346,-15.921875,-1.484375,2.421875
88,-0.5251465,-0.0256958,-0.9146118,-4.578125,7.40625,-0.0625
89,-0.51293945,-0.05255127,-0.8052368,-3.265625,10.921875,-0.25
90,-0.53515625,-0.055236816,-0.8093872,-3.203125,5.671875,-0.375
91,-0.51953125,-0.046691895,-0.80718994,0.8125,2.75,-1.140625
92,-0.53686523,-0.046691895,-0.8069458,2.9375,-2.734375,-1.09375
93,-0.5144043,-0.043029785,-0.81622314,1.96875,-4.453125,-0.578125
94,-0.5131836,-0.033996582,-0.8345337,0.28125,-5.109375,-0.265625
95,-0.49414062,-0.03668213,-0.82891846,0.578125,-4.375,-0.3125
96,-0.48779297,-0.037902832,-0.8933716,-4.671875,0.140625,1.296875
97,-0.52783203,-0.038879395,-0.9546509,-8.75,16.4375,1.421875
98,-0.5776367,-0.06842041,-0.8508911,-3.546875,21.90625,-0.296875
99,-0.5473633,-0.039367676,-0.7625122,2.9375,11.390625,-1.828125
100,-0.59594727,-0.04425049,-0.78082275,2.5,-5.71875,-2.671875
101,-0.5283203,-0.039611816,-0.8291626,2.5,-14.09375,-0.15625
102,-0.53027344,-0.047424316,-0.83062744,-0.15625,-5.828125,0.015625
103,-0.5180664,-0.04522705,-0.79937744,0.03125,-6.578125,0.25
104,-0.51538086,-0.04058838,-0.8381958,-0.828125,-2.375,-0.03125
105,-0.5361328,-0.050109863,-0.93341064,-6.734375,2.828125,1.34375
106,-0.5463867,-0.0635376,-0.9143677,-9.734375,26.421875,0.953125
107,-0.58325195,-0.07525635,-0.78497314,-2.203125,19.171875,-0.421875
108,-0.59228516,-0.05718994,-0.6963501,-0.703125,-0.59375,-0.75
109,-0.57788086,-0.05621338,-0.7918091,3.890625,-16.78125,-2.0
110,-0.53808594,-0.046203613,-0.83135986,3.0,-17.921875,-0.40625
111,-0.5187988,-0.06109619,-0.82769775,0.1875,-11.203125,0.21875
112,-0.5078125,-0.05596924,-0.8394165,0.453125,-4.890625,-0.171875
113,-0.5036621,-0.047180176,-0.8435669,0.59375,0.640625,-0.734375
114,-0.51049805,-0.04888916,-0.835022,0.953125,2.59375,-0.828125
115,-0.51342773,-0.042541504,-0.81915283,-0.015625,0.671875,-0.453125
116,-0.51904297,-0.04058838,-0.8291626,-0.96875,-0.546875,-0.09375
117,-0.5119629,-0.054016113,-0.81988525,-2.515625,-1.375,0.046875
118,-0.5107422,-0.05328369,-0.8374634,-2.21875,-2.03125,-0.09375
119,-0.5041504,-0.05230713,-0.8220825,-1.546875,-1.09375,-0.453125
120,-0.50805664,-0.054260254,-0.82476807,-1.984375,-1.390625,-0.40625
121,-0.5083008,-0.062805176,-0.8303833,-1.96875,-0.15625,-0.65625
122,-0.4951172,-0.054748535,-0.8152466,-1.28125,1.421875,-0.671875
123,-0.51416016,-0.05255127,-0.8621216,-1.078125,0.828125,-0.765625
124,-0.5163574,-0.055480957,-0.8364868,-1.109375,0.359375,-0.40625
125,-0.5107422,-0.061584473,-0.8401489,-2.078125,-0.734375,-0.140625
126,-0.5097656,-0.05987549,-0.83013916,-2.609375,-0.796875,-0.078125
127,-0.5036621,-0.06719971,-0.83135986,-2.28125,-2.125,0.078125
128,-0.5095215,-0.066467285,-0.83477783,-2.234375,-1.25,-0.109375
129,-0.50097656,-0.06890869,-0.82525635,0.03125,-1.109375,-0.296875
130,-0.4963379,-0.070617676,-0.8328247,-0.109375,-1.1875,-0.28125
131,-0.49853516,-0.06719971,-0.82354736,0.25,-0.703125,-0.265625
132,-0.49072266,-0.06451416,-0.8460083,-0.859375,-0.671875,-0.203125
133,-0.49853516,-0.06524658,-0.83135986,0.09375,-0.625,-0.375
134,-0.49438477,-0.061584473,-0.8364868,-0.03125,-0.546875,-0.359375
135,-0.4885254,-0.057678223,-0.84991455,0.34375,0.203125,-0.5625
136,-0.49658203,-0.062561035,-0.82476807,0.828125,0.703125,-0.546875
137,-0.49804688,-0.054260254,-0.82818604,1.578125,1.6875,-0.765625
138,-0.50219727,-0.051330566,-0.8447876,2.484375,1.640625,-0.875
139,-0.49414062,-0.051086426,-0.8272095,1.296875,0.96875,-0.609375
140,-0.5012207,-0.039611816,-0.8377075,1.515625,-0.65625,-0.65625
141,-0.4963379,-0.046447754,-0.8335571,4.796875,-2.5625,-1.078125
142,-0.4892578,-0.034973145,-0.8440552,3.5,-4.703125,-0.375
143,-0.49682617,-0.035705566,-0.8706665,-0.296875,-3.015625,0.078125
144,-0.48339844,-0.030334473,-0.8245239,-1.46875,-0.40625,0.203125
145,-0.47973633,-0.04034424,-0.86846924,-12.015625,-2.015625,1.71875
146,-0.46166992,-0.050598145,-0.76519775,-7.9375,8.453125,0.953125
147,-0.47583008,-0.074035645,-0.78204346,-2.671875,9.09375,-0.625
148,-0.5378418,-0.07305908,-0.7588501,0.328125,7.453125,-1.078125
149,-0.54467773,-0.074279785,-0.79034424,1.265625,3.5625,-0.953125
150,-0.53393555,-0.06817627,-0.8621216,2.328125,-1.96875,-0.578125
151,-0.5217285,-0.059631348,-0.85943604,1.6875,-1.734375,-0.5
152,-0.50146484,-0.05255127,-0.8357544,0.15625,-3.78125,-0.28125
153,-0.48535156,-0.058410645,-0.83599854,-0.40625,-1.375,-0.21875
154,-0.50634766,-0.054748535,-0.8496704,-1.625,-0.09375,-0.03125
155,-0.4975586,-0.06524658,-0.9224243,-10.125,2.890625,1.765625
156,-0.50219727,-0.06524658,-0.956604,-6.5,15.71875,-0.234375
157,-0.5527344,-0.086242676,-0.7805786,-1.453125,15.21875,-0.828125
158,-0.564209,-0.08306885,-0.74468994,1.90625,3.78125,-1.546875
159,-0.5703125,-0.070617676,-0.78253174,1.5,-8.828125,-0.890625
160,-0.529541,-0.06451416,-0.7984009,2.625,-11.140625,0.015625
161,-0.5058594,-0.07183838,-0.85284424,0.21875,-6.71875,0.1875
162,-0.50097656,-0.07232666,-0.8093872,0.875,-3.078125,-0.234375
163,-0.5187988,-0.06085205,-0.85406494,-0.21875,-1.3125,-0.328125
164,-0.5197754,-0.0635376,-0.91412354,-4.546875,1.6875,0.796875
165,-0.52612305,-0.07281494,-0.8887329,-8.546875,16.203125,0.203125
166,-0.54541016,-0.07696533,-0.7996216,-1.59375,16.03125,-0.875
167,-0.5703125,-0.07550049,-0.7761841,1.375,1.125,-1.078125
168,-0.5593262,-0.06768799,-0.7937622,1.734375,-8.21875,-1.8125
169,-0.545166,-0.06085205,-0.7996216,2.953125,-15.109375,-0.234375
170,-0.5012207,-0.07208252,-0.8345337,2.328125,-9.046875,0.328125
171,-0.50683594,-0.06329346,-0.835022,1.75,-1.734375,-0.34375
172,-0.5124512,-0.05230713,-0.83428955,1.234375,-0.015625,-0.59375
173,-0.5144043,-0.0569458,-0.82647705,0.453125,-0.34375,-0.609375
174,-0.5102539,-0.05596924,-0.8406372,-0.75,0.125,-0.265625
175,-0.51123047,-0.057678223,-0.82696533,-0.765625,-0.765625,-0.15625
176,-0.50097656,-0.057922363,-0.8115845,-0.1875,-0.234375,-0.328125
177,-0.515625,-0.053771973,-0.82598877,-0.765625,0.34375,-0.234375
178,-0.49536133,-0.05230713,-0.8027954,0.125,-0.046875,-0.390625
179,-0.53466797,-0.05596924,-0.89556885,-0.546875,-2.46875,0.140625
180,-0.50805664,-0.05718994,-0.829895,-1.203125,-0.625,0.0
181,-0.49169922,-0.054016113,-0.8064575,-0.6875,-0.796875,0.171875
182,-0.49829102,-0.05645752,-0.847229,-1.703125,-0.625,0.140625
183,-0.49902344,-0.057434082,-0.82647705,-2.28125,0.890625,0.1875
184,-0.5007324,-0.06500244,-0.82940674,-1.984375,-0.125,0.171875
185,-0.5073242,-0.070129395,-0.8311157,-2.046875,-0.109375,-0.09375
186,-0.5061035,-0.065979004,-0.8394165,-1.734375,-0.34375,-0.453125
187,-0.49926758,-0.0647583,-0.8245239,-1.359375,-0.5,-0.234375
188,-0.50561523,-0.062072754,-0.8423462,-1.828125,-0.703125,-0.046875
189,-0.49658203,-0.06573486,-0.8274536,-1.640625,-0.71875,-0.3125
190,-0.49389648,-0.06842041,-0.8389282,-1.765625,-0.625,-0.015625
191,-0.49804688,-0.06890869,-0.8377075,-1.140625,-0.328125,-0.140625
192,-0.49902344,-0.07330322,-0.8423462,-0.6875,-1.421875,-0.296875
193,-0.49902344,-0.070129395,-0.8357544,-0.84375,-0.4375,-0.34375
194,-0.49536133,-0.074279785,-0.8435669,-0.671875,-0.296875,-0.125
195,-0.49731445,-0.06842041,-0.8303833,-0.171875,-0.125,-0.296875
196,-0.4880371,-0.06549072,-0.83380127,-0.375,-0.078125,-0.15625
197,-0.4970703,-0.070373535,-0.84820557,-0.53125,0.21875,-0.390625
198,-0.49169922,-0.065979004,-0.8328247,0.5,-0.21875,-0.5
199,-0.49267578,-0.066223145,-0.83306885,0.546875,-1.359375,-0.25
200,-0.49047852,-0.06329346,-0.815979,3.828125,-4.21875,-0.75
201,-0.47192383,-0.059631348,-0.8357544,7.1875,-5.1875,-1.15625
202,-0.47607422,-0.054992676,-0.85113525,2.1875,-1.328125,-0.53125
203,-0.47631836,-0.044006348,-0.8677368,0.25,0.65625,-0.296875
204,-0.48291016,-0.04547119,-0.83599854,-1.125,0.53125,-0.125
205,-0.48266602,-0.061584473,-0.86187744,-7.21875,-3.015625,1.0
206,-0.47436523,-0.05303955,-0.88946533,-6.890625,4.328125,0.84375
207,-0.44677734,-0.06964111,-0.798645,-4.515625,9.65625,-0.484375
208,-0.48535156,-0.07891846,-0.7659302,-1.046875,8.3125,-0.71875
209,-0.501709,-0.07086182,-0.7920532,1.328125,3.546875,-0.953125
210,-0.4892578,-0.06915283,-0.8255005,1.859375,0.890625,-0.796875
211,-0.49951172,-0.059143066,-0.8508911,1.59375,-2.28125,-0.625
212,-0.4958496,-0.06524658,-0.829895,0.375,-2.15625,-0.40625
213,-0.49121094,-0.062316895,-0.8064575,-0.015625,-1.765625,-0.046875
214,-0.4934082,-0.062072754,-0.8413696,-0.421875,-0.421875,0.015625
215,-0.5036621,-0.06964111,-0.8792114,-3.125,0.984375,0.53125
216,-0.5046387,-0.062561035,-0.8875122,-7.171875,15.234375,0.328125
217,-0.54052734,-0.08087158,-0.76226807,-3.390625,17.5625,-0.453125
218,-0.515625,-0.07183838,-0.7529907,-0.171875,4.140625,-0.875
219,-0.54003906,-0.06890869,-0.7473755,2.046875,-4.890625,-1.90625
220,-0.54663086,-0.06011963,-0.8430786,2.421875,-5.96875,-0.53125
221,-0.5180664,-0.059631348,-0.81427,0.90625,-4.765625,-0.0625
222,-0.5048828,-0.06011963,-0.80963135,0.671875,-2.828125,-0.15625
223,-0.51000977,-0.057678223,-0.8320923,-0.203125,-1.03125,-0.3125
224,-0.51904297,-0.059387207,-0.85357666,-0.875,-0.859375,-0.265625
225,-0.51586914,-0.062072754,-0.9014282,-4.875,4.078125,0.765625
226,-0.5151367,-0.066223145,-0.8362427,-5.453125,16.640625,0.21875
227,-0.5305176,-0.070617676,-0.7102661,-0.65625,12.59375,-0.875
228,-0.5732422,-0.070129395,-0.7739868,2.671875,-0.984375,-2.359375
229,-0.54785156,-0.06085205,-0.8101196,1.484375,-7.203125,-1.84375
230,-0.53222656,-0.06109619,-0.81622314,0.65625,-11.015625,-0.75
231,-0.5126953,-0.06427002,-0.8233032,1.890625,-6.734375,0.03125
232,-0.5136719,-0.058654785,-0.82403564,1.453125,-2.84375,-0.296875
233,-0.5168457,-0.055236816,-0.8218384,1.0625,-2.015625,-0.5
234,-0.50878906,-0.049621582,-0.8452759,0.421875,-0.53125,-0.1875
235,-0.5136719,-0.057678223,-0.82647705,0.484375,0.53125,-0.296875
236,-0.513916,-0.051086426,-0.82525635,1.15625,0.03125,-0.390625
237,-0.5144043,-0.04840088,-0.81573486,0.15625,-0.34375,-0.171875
238,-0.5097656,-0.043762207,-0.8147583,-0.703125,-0.09375,-0.15625
239,-0.51342773,-0.05328369,-0.835022,-2.140625,-1.078125,0.0
240,-0.5085449,-0.05987549,-0.8345337,-3.296875,-0.34375,-0.015625
241,-0.5083008,-0.058410645,-0.8357544,-3.296875,-0.703125,-0.109375
242,-0.501709,-0.05670166,-0.82940674,-1.921875,-1.890625,-0.140625
243,-0.51049805,-0.06549072,-0.83306885,-1.84375,-1.328125,-0.046875
244,-0.51049805,-0.06573486,-0.8435669,-2.109375,-2.375,0.0625
245,-0.49365234,-0.06451416,-0.8447876,-1.875,-2.6875,-0.015625
246,-0.49291992,-0.0713501,-0.8340454,-1.890625,-2.96875,-0.03125
247,-0.49121094,-0.06890869,-0.83428955,-4.484375,-2.234375,0.078125
248,-0.49023438,-0.07183838,-0.8369751,-3.671875,-1.6875,-0.21875
249,-0.48828125,-0.07696533,-0.847229,-2.59375,-2.546875,-0.015625
250,-0.4921875,-0.081848145,-0.85772705,-2.5625,-2.71875,0.0625
251,-0.4777832,-0.08868408,-0.8477173,-3.296875,-3.09375,0.21875
252,-0.47509766,-0.08404541,-0.8411255,-2.5,-1.84375,-0.09375
253,-0.47485352,-0.097473145,-0.8467407,-2.4375,-2.5625,-0.28125
254,-0.4645996,-0.0881958,-0.8386841,-1.359375,-2.75,-0.296875
255,-0.46875,-0.09088135,-0.8477173,-0.4375,-0.046875,-0.421875
256,-0.45092773,-0.08526611,-0.8220825,1.09375,2.75,-1.421875
257,-0.47607422,-0.08135986,-0.83428955,3.109375,2.734375,-1.703125
258,-0.48217773,-0.07989502,-0.8430786,0.8125,1.828125,-1.203125
259,-0.4868164,-0.06842041,-0.85357666,0.109375,0.484375,-0.640625
260,-0.48242188,-0.08306885,-0.84991455,0.546875,0.390625,-0.53125
261,-0.47729492,-0.08013916,-0.8526001,0.296875,0.25,-0.4375
262,-0.47338867,-0.06866455,-0.83721924,0.0625,1.03125,-0.4375
263,-0.47753906,-0.0713501,-0.8452759,3.0625,2.921875,-0.796875
264,-0.47729492,-0.06011963,-0.83428955,2.484375,1.15625,-0.4375
265,-0.47851562,-0.057922363,-0.8218384,4.625,4.75,-0.96875
266,-0.48510742,-0.059631348,-0.85284424,4.90625,4.25,-1.0
267,-0.49243164,-0.047668457,-0.8428345,2.28125,1.9375,-0.609375
268,-0.4975586,-0.04156494,-0.83966064,0.859375,-0.234375,-0.21875
269,-0.49829102,-0.04425049,-0.84088135,0.0,-0.984375,0.09375
270,-0.4868164,-0.049621582,-0.8152466,-8.515625,-3.75,1.75
271,-0.4892578,-0.059143066,-0.81915283,-3.59375,5.25,0.515625
272,-0.49829102,-0.06719971,-0.81866455,-4.640625,10.328125,-0.328125
273,-0.515625,-0.0713501,-0.7962036,-2.84375,8.359375,-0.4375
274,-0.5234375,-0.074279785,-0.79034424,-0.65625,4.453125,-0.9375
275,-0.49926758,-0.07159424,-0.79766846,2.109375,3.59375,-1.15625
276,-0.5349121,-0.0569458,-0.8508911,3.03125,-0.65625,-0.921875
277,-0.5227051,-0.06036377,-0.8081665,-0.046875,-3.015625,-0.21875
278,-0.5124512,-0.058410645,-0.80474854,0.21875,-2.484375,-0.15625
279,-0.5168457,-0.0635376,-0.84210205,-0.125,-1.078125,-0.3125
280,-0.5258789,-0.06915283,-0.84088135,-2.0625,-0.921875,0.5
281,-0.49902344,-0.057678223,-0.80718994,-4.90625,5.328125,0.40625
282,-0.5566406,-0.069885254,-0.78741455,-4.21875,4.234375,-0.265625
283,-0.51049805,-0.06719971,-0.77716064,-0.796875,-1.21875,-0.671875
284,-0.5241699,-0.073791504,-0.833313,0.171875,-5.40625,-0.84375
285,-0.51293945,-0.06695557,-0.8530884,1.078125,-3.40625,-0.171875
286,-0.49926758,-0.06427002,-0.81134033,0.828125,-2.265625,-0.015625
287,-0.50097656,-0.0647583,-0.81866455,0.640625,0.140625,-0.25
288,-0.517334,-0.0647583,-0.84625244,0.25,0.40625,-0.28125
289,-0.5209961,-0.06402588,-0.8303833,-0.96875,0.109375,-0.078125
290,-0.5126953,-0.06842041,-0.89630127,-6.625,2.140625,0.890625
291,-0.48779297,-0.06402588,-0.8440552,-7.375,9.09375,0.171875
292,-0.49682617,-0.08306885,-0.72125244,-1.296875,7.125,-1.234375
293,-0.5373535,-0.08355713,-0.8196411,2.21875,2.78125,-2.5
294,-0.5449219,-0.0725708,-0.82818604,1.0625,-0.4375,-1.1875
295,-0.5319824,-0.078186035,-0.8262329,1.65625,-3.890625,-0.40625
296,-0.5085449,-0.07550049,-0.81915283,1.890625,-3.28125,-0.296875
297,-0.50927734,-0.06744385,-0.8057251,1.234375,-0.765625,-0.65625
298,-0.5168457,-0.07086182,-0.8023071,1.9375,0.078125,-0.546875
299,-0.5344238,-0.06451416,-0.84552,0.421875,-2.0,-0.421875
300,-0.52563477,-0.062561035,-0.8369751,-0.140625,-2.703125,-0.15625
301,-0.5119629,-0.061828613,-0.82598877,-0.859375,-1.875,-0.015625
302,-0.50683594,-0.06427002,-0.82525635,-1.375,-0.171875,-0.09375
303,-0.50683594,-0.066711426,-0.8076782,-1.171875,-0.171875,-0.109375
304,-0.50097656,-0.062805176,-0.8230591,-0.609375,-0.40625,-0.234375
305,-0.5109863,-0.06793213,-0.8399048,-1.65625,0.6875,-0.265625
306,-0.51586914,-0.06573486,-0.8274536,-1.515625,0.984375,-0.265625
307,-0.515625,-0.06768799,-0.829895,-0.9375,-0.28125,-0.3125
308,-0.5083008,-0.07183838,-0.83795166,-1.203125,-0.453125,-0.140625
309,-0.51293945,-0.070129395,-0.81817627,-0.9375,-1.765625,-0.046875
310,-0.50756836,-0.066223145,-0.8320923,-0.75,-1.1875,-0.109375
311,-0.5073242,-0.062072754,-0.82647705,-0.796875,-0.71875,-0.125
312,-0.49902344,-0.06793213,-0.82354736,-1.0,-0.296875,-0.34375
313,-0.51049805,-0.073791504,-0.8477173,-1.671875,-0.0625,-0.09375
314,-0.50756836,-0.0725708,-0.8189087,-0.96875,0.84375,-0.25
315,-0.49853516,-0.074523926,-0.8274536,0.40625,0.828125,-0.5
316,-0.49853516,-0.06939697,-0.84039307,-0.515625,0.671875,-0.40625
317,-0.5083008,-0.06866455,-0.85284424,-1.6875,0.078125,-0.1875
318,-0.51293945,-0.070373535,-0.83258057,-1.328125,-1.140625,-0.0625
319,-0.5048828,-0.077697754,-0.81744385,-1.0625,-1.890625,0.21875
320,-0.5036621,-0.07672119,-0.835022,-1.234375,-2.234375,0.046875
321,-0.4975586,-0.077697754,-0.83135986,-0.765625,-2.15625,0.109375
322,-0.49169922,-0.081848145,-0.83013916,-0.375,-1.4375,-0.25
323,-0.49389648,-0.07476807,-0.83795166,0.578125,-1.234375,-0.203125
324,-0.49169922,-0.07476807,-0.83795166,0.9375,-0.40625,-0.3125
325,-0.49365234,-0.0725708,-0.8286743,1.5,0.3125,-0.578125
326,-0.5004883,-0.06573486,-0.84039307,0.78125,-0.40625,-0.546875
327,-0.48657227,-0.07086182,-0.8377075,-0.921875,-0.5,-0.171875
328,-0.4909668,-0.06549072,-0.8245239,2.03125,1.703125,-0.828125
329,-0.50024414,-0.06549072,-0.8272095,1.703125,-2.03125,-0.484375
330,-0.48779297,-0.061584473,-0.81695557,3.96875,-3.75,-0.421875
331,-0.48828125,-0.05596924,-0.85357666,5.6875,-1.578125,-0.828125
332,-0.48876953,-0.047424316,-0.8543091,2.46875,-2.34375,-0.21875
333,-0.48388672,-0.043029785,-0.8526001,1.984375,-0.34375,-0.234375
334,-0.48388672,-0.042053223,-0.83673096,-0.15625,-0.578125,0.046875
335,-0.49023438,-0.04864502,-0.9019165,-9.375,-2.359375,1.140625
336,-0.4206543,-0.046936035,-0.78448486,-6.875,3.84375,0.859375
337,-0.46240234,-0.07159424,-0.75860596,-3.796875,8.75,-0.046875
338,-0.52856445,-0.069885254,-0.8521118,-1.625,7.765625,-0.5
339,-0.48535156,-0.06890869,-0.78302,1.46875,4.421875,-0.875
340,-0.51416016,-0.06817627,-0.78985596,2.546875,1.84375,-1.15625
341,-0.5136719,-0.055236816,-0.8257446,3.890625,-3.890625,-0.875
342,-0.50097656,-0.04864502,-0.85528564,0.65625,-2.34375,-0.234375
343,-0.48706055,-0.05255127,-0.8430786,-0.03125,-2.21875,-0.171875
344,-0.4975586,-0.050842285,-0.8442993,-0.140625,1.4375,-0.421875
345,-0.5085449,-0.05255127,-0.8850708,-2.9375,1.3125,0.34375
346,-0.49438477,-0.055725098,-0.92755127,-10.609375,19.890625,0.40625
347,-0.5061035,-0.07598877,-0.7666626,-2.640625,11.78125,-0.9375
348,-0.5427246,-0.074279785,-0.7925415,1.375,2.4375,-2.5625
349,-0.55810547,-0.047424316,-0.79351807,-0.28125,-4.90625,-1.640625
350,-0.52856445,-0.06085205,-0.82525635,0.84375,-7.03125,0.171875
351,-0.5136719,-0.0647583,-0.82891846,0.921875,-5.78125,0.265625
352,-0.5085449,-0.06402588,-0.8245239,0.59375,-2.578125,-0.28125
353,-0.5136719,-0.06451416,-0.82696533,0.484375,-1.265625,-0.609375
354,-0.51904297,-0.055480957,-0.81695557,-0.84375,1.453125,-0.265625
355,-0.5239258,-0.050354004,-0.9356079,-5.875,8.484375,0.65625
356,-0.5358887,-0.06011963,-0.74542236,-2.53125,18.09375,-0.90625
357,-0.53393555,-0.0713501,-0.7119751,2.0,10.59375,-2.21875
358,-0.59472656,-0.062561035,-0.79693604,0.46875,-0.09375,-2.671875
359,-0.5578613,-0.05645752,-0.7949829,2.25,-8.875,-0.78125
360,-0.53344727,-0.058166504,-0.81329346,1.265625,-9.640625,-0.09375
361,-0.52246094,-0.053771973,-0.81036377,1.03125,-6.1875,-0.046875
362,-0.52197266,-0.04840088,-0.8374634,1.1875,-3.34375,-0.453125
363,-0.5126953,-0.045959473,-0.83258057,1.4375,-1.046875,-0.6875
364,-0.52368164,-0.046936035,-0.8308716,0.796875,-0.25,-0.71875
365,-0.5214844,-0.03692627,-0.84088135,-0.0625,0.140625,-0.375
366,-0.5163574,-0.0491333,-0.8250122,-0.4375,0.21875,-0.328125
367,-0.51000977,-0.045715332,-0.80841064,-0.265625,-0.015625,-0.5
368,-0.5185547,-0.04425049,-0.8237915,-0.109375,0.625,-0.53125
369,-0.5124512,-0.04473877,-0.8279419,-0.578125,-0.296875,-0.59375
370,-0.51660156,-0.042297363,-0.817688,-1.515625,-0.34375,-0.15625
371,-0.5175781,-0.051086426,-0.82354736,-2.171875,0.15625,-0.140625
372,-0.5222168,-0.046691895,-0.82891846,-2.203125,-0.859375,-0.171875
373,-0.51708984,-0.0491333,-0.81915283,-0.953125,-0.015625,-0.34375
374,-0.52001953,-0.0491333,-0.8272095,-0.1875,-0.34375,-0.609375
375,-0.5234375,-0.045959473,-0.84161377,-0.75,-0.765625,-0.296875
376,-0.5124512,-0.041809082,-0.82598877,-1.171875,-0.5625,-0.25
377,-0.51586914,-0.05206299,-0.8460083,-1.6875,-0.046875,-0.125
378,-0.5151367,-0.054748535,-0.82476807,-2.09375,-0.828125,-0.015625
379,-0.5058594,-0.051574707,-0.82891846,-3.5,-2.828125,0.265625
380,-0.50927734,-0.055480957,-0.84625244,-3.640625,-3.234375,0.328125
381,-0.50512695,-0.058166504,-0.8442993,-4.0,-5.703125,0.390625
382,-0.48242188,-0.065979004,-0.8369751,-3.875,-7.484375,0.515625
383,-0.47558594,-0.07330322,-0.8477173,-3.328125,-6.296875,0.734375
384,-0.46777344,-0.07525635,-0.85357666,-2.640625,-3.796875,0.171875
385,-0.4609375,-0.07598877,-0.84991455,-1.734375,-1.1875,-0.546875
386,-0.47558594,-0.07745361,-0.83551025,-0.078125,-0.0625,-1.03125
387,-0.47094727,-0.07354736,-0.85943604,-0.46875,-0.046875,-0.921875
388,-0.4736328,-0.07208252,-0.8389282,0.21875,0.75,-0.984375
389,-0.47436523,-0.07110596,-0.8623657,-0.359375,0.109375,-0.796875
390,-0.46801758,-0.0725708,-0.8440552,0.375,1.109375,-0.859375
391,-0.47192383,-0.07159424,-0.8526001,1.15625,0.8125,-0.828125
392,-0.47973633,-0.070617676,-0.8496704,0.375,0.609375,-0.390625
393,-0.4765625,-0.061828613,-0.84381104,2.265625,1.171875,-0.46875
394,-0.47314453,-0.06011963,-0.8201294,6.078125,-0.203125,-0.71875
395,-0.45874023,-0.059387207,-0.84039307,10.375,1.859375,-1.203125
396,-0.47631836,-0.04083252,-0.8591919,5.140625,1.703125,-0.4375
397,-0.4892578,-0.034729004,-0.8452759,2.03125,1.859375,-0.28125
398,-0.48706055,-0.034729004,-0.86260986,-6.3125,6.734375,1.28125
399,-0.47558594,-0.042785645,-0.7300415,-2.6875,12.421875,0.203125
400,-0.48095703,-0.04840088,-0.7485962,-3.140625,7.609375,-0.28125
401,-0.52319336,-0.050842285,-0.831604,-3.28125,3.78125,-0.9375
402,-0.51464844,-0.039611816,-0.8596802,-2.75,2.671875,-1.34375
403,-0.5449219,-0.054748535,-0.85406494,-1.0625,1.15625,-0.8125
404,-0.5222168,-0.047180176,-0.8118286,2.046875,-2.71875,-0.6875
405,-0.50219727,-0.047180176,-0.8274536,-0.5625,-3.03125,-0.28125
406,-0.5004883,-0.05255127,-0.8245239,-0.40625,-2.578125,-0.125
407,-0.50341797,-0.054504395,-0.85406494,-2.34375,2.0625,0.375
408,-0.5361328,-0.04107666,-0.8640747,-7.71875,15.71875,0.109375
409,-0.5625,-0.070129395,-0.80133057,-2.78125,8.71875,-0.875
410,-0.54711914,-0.073791504,-0.78863525,-0.9375,2.96875,-0.875
411,-0.5488281,-0.054016113,-0.8086548,0.4375,-3.859375,-0.84375
412,-0.5341797,-0.058898926,-0.8040161,1.203125,-4.734375,0.0
413,-0.52319336,-0.058898926,-0.83843994,-0.484375,-3.1875,0.125
414,-0.50805664,-0.055480957,-0.7984009,0.625,-2.46875,-0.0625
415,-0.51953125,-0.051818848,-0.82403564,0.1875,-0.328125,-0.421875
416,-0.53564453,-0.06060791,-0.86016846,-1.59375,1.3125,0.265625
417,-0.51171875,-0.06304932,-0.8428345,-7.0,12.4375,0.4375
418,-0.5498047,-0.066223145,-0.82696533,-5.0625,17.609375,-2.75
419,-0.57666016,-0.06695557,-0.77471924,-1.3125,9.609375,-3.203125
420,-0.595459,-0.061340332,-0.7888794,-0.515625,-7.5625,-1.328125
421,-0.55493164,-0.06915283,-0.82598877,-1.21875,-6.890625,0.828125
422,-0.5366211,-0.07476807,-0.7854614,0.265625,-5.90625,0.765625
423,-0.532959,-0.07354736,-0.81378174,1.015625,-4.703125,0.140625
424,-0.5324707,-0.066467285,-0.8213501,0.921875,-2.484375,-0.671875
425,-0.5385742,-0.057922363,-0.8218384,1.34375,-2.171875,-0.65625
426,-0.53222656,-0.059143066,-0.83721924,-0.296875,-1.1875,-0.546875
427,-0.52124023,-0.057434082,-0.81866455,0.03125,-0.03125,-0.53125
428,-0.5332031,-0.062072754,-0.8045044,1.140625,0.578125,-0.84375
429,-0.5251465,-0.0569458,-0.8015747,0.953125,-0.28125,-0.640625
430,-0.5336914,-0.06011963,-0.8230591,-0.53125,0.140625,-0.25
431,-0.5336914,-0.058898926,-0.8345337,-1.546875,-0.375,0.03125
432,-0.5227051,-0.058410645,-0.81573486,-1.921875,0.40625,0.046875
433,-0.5288086,-0.058654785,-0.8154907,-1.890625,0.15625,-0.09375
434,-0.5283203,-0.061584473,-0.8274536,-2.09375,0.015625,0.015625
435,-0.532959,-0.06719971,-0.82110596,-2.25,-0.15625,-0.03125
436,-0.5336914,-0.06524658,-0.81500244,-1.9375,-0.171875,-0.078125
437,-0.5292969,-0.06817627,-0.8230591,-1.34375,-0.46875,-0.1875
438,-0.52685547,-0.066223145,-0.8135376,-1.125,-0.21875,-0.40625
439,-0.5241699,-0.06768799,-0.8069458,-0.140625,-0.03125,-0.421875
440,-0.52319336,-0.07110596,-0.8069458,0.421875,-0.28125,-0.453125
441,-0.52612305,-0.06573486,-0.8267212,0.03125,0.78125,-0.359375
442,-0.52734375,-0.065979004,-0.82647705,-0.640625,1.0625,-0.296875
443,-0.5229492,-0.06768799,-0.81085205,0.109375,-0.171875,-0.546875
444,-0.5266113,-0.058410645,-0.82159424,-0.171875,-0.515625,-0.40625
445,-0.5305176,-0.06573486,-0.8152466,0.328125,-1.375,-0.3125
446,-0.5187988,-0.062316895,-0.802063,2.078125,-1.75,-0.375
447,-0.5185547,-0.054016113,-0.81866455,4.21875,-2.34375,-0.546875
448,-0.5180664,-0.051818848,-0.8418579,2.78125,-2.625,-0.140625
449,-0.5124512,-0.051330566,-0.83306885,2.65625,-2.046875,-0.125
450,-0.5175781,-0.049621582,-0.83477783,1.765625,-2.0625,-0.046875
451,-0.51000977,-0.04083252,-0.8152466,2.71875,-1.3125,-0.25
452,-0.50683594,-0.038879395,-0.82159424,0.96875,-1.109375,-0.28125
453,-0.5090332,-0.039367676,-0.8340454,0.984375,0.75,-0.609375
454,-0.49829102,-0.03643799,-0.81573486,1.4375,0.390625,-0.484375
455,-0.51660156,-0.02960205,-0.82818604,0.296875,-3.71875,-0.25
456,-0.49951172,-0.04058838,-0.83843994,-1.015625,-3.390625,-0.0625
457,-0.48168945,-0.037902832,-0.84332275,1.375,-4.5625,-0.234375
458,-0.5029297,-0.032043457,-0.84942627,0.09375,-3.5625,0.09375
459,-0.49414062,-0.027893066,-0.8206177,-3.359375,-2.75,0.234375
460,-0.49731445,-0.04473877,-0.96661377,-11.625,-2.953125,1.953125
461,-0.5078125,-0.04449463,-0.8362427,-3.671875,4.734375,-0.046875
462,-0.4741211,-0.058410645,-0.83062744,-3.109375,6.84375,-0.28125
463,-0.5126953,-0.054504395,-0.8377075,-2.484375,4.46875,-0.546875
464,-0.4921875,-0.046203613,-0.8291626,0.28125,2.390625,-0.84375
465,-0.51782227,-0.055236816,-0.8267212,3.0,1.40625,-1.03125
466,-0.51831055,-0.04937744,-0.8609009,1.796875,-1.5625,-0.78125
467,-0.5007324,-0.050354004,-0.83258057,0.328125,-1.140625,-0.3125
468,-0.49609375,-0.05279541,-0.8423462,-0.578125,-0.296875,-0.234375
469,-0.50268555,-0.058654785,-0.8772583,-2.953125,0.078125,0.625
470,-0.48583984,-0.054260254,-0.7671509,-6.875,17.484375,0.765625
471,-0.5214844,-0.081848145,-0.74176025,-3.140625,13.84375,0.328125
472,-0.5534668,-0.06329346,-0.77667236,0.4375,1.0,-0.8125
473,-0.5654297,-0.066711426,-0.80718994,2.25,-6.984375,-0.578125
474,-0.52368164,-0.06524658,-0.8237915,2.6875,-7.65625,0.03125
475,-0.5102539,-0.055480957,-0.83477783,0.53125,-4.453125,-0.125
476,-0.49951172,-0.059631348,-0.8130493,0.3125,-1.0,-0.234375
477,-0.513916,-0.05596924,-0.8291626,0.078125,-1.0,-0.46875
478,-0.5185547,-0.059631348,-0.8291626,-2.03125,0.28125,-0.140625
479,-0.52563477,-0.05596924,-0.86553955,-7.25,9.75,0.921875
480,-0.5058594,-0.058166504,-0.7600708,-3.921875,13.125,-0.109375
481,-0.53637695,-0.069885254,-0.72662354,0.875,3.53125,-1.0
482,-0.55737305,-0.062805176,-0.8008423,2.375,-3.875,-1.59375
483,-0.5371094,-0.059631348,-0.8052368,2.46875,-9.640625,-0.5625
484,-0.5239258,-0.06719971,-0.8596802,2.328125,-6.046875,-0.171875
485,-0.5048828,-0.053527832,-0.83184814,1.6875,-1.75,-0.34375
486,-0.5090332,-0.055725098,-0.8272095,0.8125,-0.328125,-0.609375
487,-0.51538086,-0.050109863,-0.8284302,0.09375,0.375,-0.671875
488,-0.515625,-0.05303955,-0.8423462,-0.59375,0.375,-0.4375
489,-0.51538086,-0.045715332,-0.82940674,-1.28125,1.21875,-0.3125
490,-0.5078125,-0.04888916,-0.80670166,-0.765625,1.1875,-0.546875
491,-0.5258789,-0.053771973,-0.8435669,-1.875,0.9375,-0.28125
492,-0.5251465,-0.058166504,-0.8220825,-1.4375,1.546875,-0.390625
493,-0.52246094,-0.05596924,-0.8308716,-2.328125,0.3125,-0.125
494,-0.5234375,-0.055236816,-0.8328247,-2.015625,0.0,-0.28125
495,-0.5107422,-0.057678223,-0.8123169,-2.4375,0.21875,-0.1875
496,-0.51538086,-0.055725098,-0.8081665,-2.15625,0.21875,-0.296875
497,-0.51342773,-0.059143066,-0.835022,-2.421875,0.078125,-0.171875
498,-0.5217285,-0.06768799,-0.8401489,-2.53125,1.25,-0.484375
499,-0.5119629,-0.06793213,-0.8023071,-2.65625,0.734375,-0.484375
500,-0.5205078,-0.0635376,-0.8362427,-1.78125,0.71875,-0.515625
501,-0.5222168,-0.07354736,-0.83013916,-1.40625,-0.046875,-0.34375
502,-0.5180664,-0.070617676,-0.82696533,-1.328125,-1.296875,-0.265625
503,-0.5187988,-0.070617676,-0.82232666,-0.46875,-1.25,-0.40625
504,-0.5168457,-0.07550049,-0.8274536,-0.515625,-1.796875,-0.453125
505,-0.5229492,-0.07183838,-0.83917236,0.90625,-2.296875,-0.390625
506,-0.51049805,-0.066711426,-0.8208618,1.921875,-1.328125,-0.65625
507,-0.5161133,-0.06573486,-0.8335571,2.828125,-1.171875,-0.90625
508,-0.50512695,-0.059631348,-0.83306885,1.40625,-1.515625,-0.421875
509,-0.5065918,-0.058898926,-0.83013916,2.21875,-0.3125,-0.59375
510,-0.5136719,-0.05279541,-0.8364868,2.703125,-0.171875,-0.609375
511,-0.5029297,-0.045715332,-0.81451416,1.203125,0.015625,-0.140625
512,-0.50805664,-0.051818848,-0.84552,0.6875,1.96875,-0.4375
513,-0.50878906,-0.04547119,-0.8206177,1.8125,-0.25,-0.40625
514,-0.5161133,-0.041809082,-0.8706665,-0.65625,-4.359375,-0.078125
515,-0.49682617,-0.045959473,-0.8110962,1.1875,-3.625,-0.171875
516,-0.4958496,-0.03253174,-0.8110962,3.90625,-5.1875,-0.046875
517,-0.48706055,-0.034484863,-0.8687134,4.34375,-5.0,0.078125
518,-0.48339844,-0.024719238,-0.85650635,3.03125,-2.515625,-0.171875
519,-0.47827148,-0.024963379,-0.8501587,-1.640625,-4.859375,-0.03125
520,-0.46264648,-0.01763916,-0.90875244,-6.078125,0.484375,0.890625
521,-0.47070312,-0.036193848,-0.84820557,-5.34375,5.65625,0.390625
522,-0.5053711,-0.051574707,-0.7974243,-4.65625,9.125,0.5625
523,-0.48242188,-0.0413208,-0.8621216,-2.21875,6.578125,-0.4375
524,-0.50561523,-0.058898926,-0.81500244,0.171875,3.125,-1.015625
525,-0.51049805,-0.042053223,-0.82940674,2.8125,-0.984375,-1.1875
526,-0.5061035,-0.030578613,-0.84625244,2.140625,-2.703125,-0.640625
527,-0.49169922,-0.03717041,-0.83599854,-0.53125,-2.234375,-0.03125
528,-0.48950195,-0.03668213,-0.8518677,-0.53125,-2.03125,-0.046875
529,-0.48706055,-0.045959473,-0.86920166,-4.578125,0.8125,0.5625
530,-0.47583008,-0.04156494,-0.77178955,-4.578125,9.328125,-0.1875
531,-0.5024414,-0.051086426,-0.7805786,-1.328125,8.75,-1.015625
532,-0.5349121,-0.05670166,-0.8430786,-0.4375,1.09375,-1.46875
533,-0.545166,-0.05206299,-0.8674927,0.859375,-4.390625,-0.609375
534,-0.5107422,-0.04425049,-0.81134033,0.6875,-6.96875,0.1875
535,-0.49145508,-0.042297363,-0.8320923,0.578125,-3.65625,0.0625
536,-0.48950195,-0.045715332,-0.8308716,-0.578125,-1.359375,-0.171875
537,-0.49365234,-0.045959473,-0.8442993,-1.09375,0.15625,-0.296875
538,-0.4855957,-0.047668457,-0.8579712,-2.796875,-1.90625,0.234375
539,-0.48461914,-0.04815674,-0.8682251,-4.15625,3.96875,0.390625
540,-0.52490234,-0.04473877,-0.84161377,-2.625,4.9375,-0.609375
541,-0.5246582,-0.06427002,-0.8460083,0.234375,2.109375,-1.125
542,-0.50683594,-0.051818848,-0.85821533,0.734375,0.453125,-1.09375
543,-0.4909668,-0.050598145,-0.80792236,0.703125,-0.953125,-0.6875
544,-0.49389648,-0.051574707,-0.81134033,0.765625,-0.875,-0.375
545,-0.49267578,-0.047912598,-0.8201294,1.234375,-0.71875,-0.40625
546,-0.5061035,-0.051086426,-0.8435669,0.5625,0.03125,-0.453125
547,-0.50927734,-0.051330566,-0.8413696,-0.59375,0.359375,-0.265625
548,-0.50683594,-0.050109863,-0.8423462,-0.796875,-0.125,-0.328125
549,-0.5053711,-0.054016113,-0.83843994,-1.046875,-0.21875,-0.328125
550,-0.4987793,-0.04864502,-0.833313,-0.59375,-0.015625,-0.328125
551,-0.4946289,-0.04425049,-0.8201294,-0.84375,0.25,-0.359375
552,-0.49560547,-0.054260254,-0.831604,-1.640625,0.625,-0.328125
553,-0.5102539,-0.051818848,-0.84503174,-2.53125,1.453125,-0.46875
554,-0.5061035,-0.059143066,-0.833313,-2.640625,1.625,-0.359375
555,-0.50634766,-0.0569458,-0.835022,-1.765625,0.421875,-0.359375
556,-0.5029297,-0.055480957,-0.8389282,-1.640625,0.734375,-0.28125
557,-0.5007324,-0.059387207,-0.82232666,-1.65625,0.015625,-0.203125
558,-0.49658203,-0.066223145,-0.8274536,-1.375,0.78125,-0.359375
559,-0.50561523,-0.06036377,-0.82232666,-0.796875,0.8125,-0.4375
560,-0.50634766,-0.06085205,-0.83721924,-1.578125,0.640625,-0.28125
561,-0.4987793,-0.058654785,-0.8118286,0.875,1.875,-0.953125
562,-0.51538086,-0.058410645,-0.84576416,1.890625,1.28125,-1.09375
563,-0.51293945,-0.053771973,-0.8386841,1.140625,0.3125,-0.453125
564,-0.5168457,-0.053771973,-0.83062744,-0.125,-0.671875,-0.171875
565,-0.5073242,-0.0491333,-0.81817627,-0.84375,-1.8125,0.09375
566,-0.5031738,-0.059143066,-0.80010986,0.203125,-1.0625,-0.265625
567,-0.5085449,-0.055236816,-0.8460083,0.46875,-1.15625,-0.5625
568,-0.50512695,-0.0491333,-0.82476807,-0.65625,-1.375,-0.09375
569,-0.49853516,-0.046691895,-0.8401489,0.375,-0.296875,-0.40625
570,-0.5004883,-0.04864502,-0.8184204,-0.5,-0.28125,-0.171875
571,-0.4963379,-0.055236816,-0.8303833,0.3125,-0.625,-0.5
572,-0.5012207,-0.038879395,-0.81695557,3.5625,-4.125,-0.578125
573,-0.48999023,-0.04425049,-0.8711548,2.328125,-7.890625,-0.296875
574,-0.4765625,-0.044006348,-0.8381958,-1.703125,-4.015625,0.125
575,-0.48413086,-0.043029785,-0.84942627,-2.0625,-0.34375,0.234375
576,-0.48608398,-0.046203613,-0.8284302,-5.203125,-2.375,0.609375
577,-0.48535156,-0.059631348,-0.92266846,-10.703125,-0.921875,1.515625
578,-0.4753418,-0.07965088,-0.76934814,-3.890625,6.46875,0.046875
579,-0.4572754,-0.066467285,-0.8049927,-2.53125,6.265625,-0.640625
580,-0.46850586,-0.06085205,-0.79278564,0.359375,4.671875,-1.09375
581,-0.48754883,-0.073791504,-0.82525635,1.890625,2.734375,-1.0
582,-0.51049805,-0.058898926,-0.8587036,3.25,0.375,-1.03125
583,-0.5012207,-0.06036377,-0.8267212,1.53125,-0.65625,-0.59375
584,-0.4892578,-0.06109619,-0.83184814,0.171875,-1.59375,-0.328125
585,-0.49316406,-0.06402588,-0.8154907,-1.453125,-0.109375,-0.265625
586,-0.4958496,-0.05987549,-0.93414307,-6.75,1.4375,1.015625
587,-0.49267578,-0.07940674,-0.8933716,-6.765625,10.8125,0.25
588,-0.49023438,-0.08013916,-0.81988525,-0.6875,5.703125,-1.171875
589,-0.5319824,-0.06842041,-0.83184814,2.21875,1.09375,-1.875
590,-0.54248047,-0.070373535,-0.83843994,1.375,-4.859375,-0.21875
591,-0.5107422,-0.06378174,-0.8452759,0.578125,-1.515625,-0.25
592,-0.4970703,-0.06939697,-0.82037354,0.796875,-1.84375,-0.4375
593,-0.49731445,-0.058654785,-0.8328247,-0.21875,-0.171875,-0.328125
594,-0.50341797,-0.06549072,-0.82940674,-0.40625,0.1875,-0.25
595,-0.52368164,-0.06329346,-0.94195557,-3.578125,1.90625,0.4375
596,-0.49291992,-0.06304932,-0.82232666,-7.296875,10.5,0.359375
597,-0.5317383,-0.0869751,-0.798645,-2.375,8.921875,-0.359375
598,-0.55322266,-0.07745361,-0.80670166,3.125,1.0625,-1.9375
599,-0.5517578,-0.07159424,-0.8272095,3.578125,-3.921875,-1.421875
600,-0.5280762,-0.066711426,-0.833313,2.078125,-5.109375,-0.46875
601,-0.5119629,-0.06842041,-0.8196411,1.421875,-3.3125,-0.4375
602,-0.5168457,-0.058898926,-0.8225708,1.671875,-1.765625,-0.453125
603,-0.5151367,-0.059143066,-0.82940674,1.109375,-0.578125,-0.671875
604,-0.51953125,-0.05621338,-0.8286743,0.3125,-0.140625,-0.421875
605,-0.52001953,-0.057678223,-0.83721924,-0.21875,-0.015625,-0.265625
606,-0.51708984,-0.05645752,-0.8369751,-0.734375,0.203125,-0.203125
607,-0.51123047,-0.06060791,-0.8237915,-0.703125,0.390625,-0.40625
608,-0.5119629,-0.054504395,-0.8357544,-1.359375,1.125,-0.40625
609,-0.51293945,-0.06109619,-0.8167114,-1.703125,1.515625,-0.484375
610,-0.5222168,-0.057922363,-0.82891846,-0.96875,0.359375,-0.359375
611,-0.5187988,-0.055236816,-0.8267212,0.1875,-1.859375,-0.1875
612,-0.5163574,-0.05670166,-0.8340454,-0.296875,-1.453125,-0.234375
613,-0.5124512,-0.05328369,-0.8279419,-1.515625,-0.1875,-0.078125
614,-0.5073242,-0.05987549,-0.8286743,-1.3125,-0.046875,-0.3125
615,-0.51416016,-0.061584473,-0.82403564,-1.84375,0.296875,-0.203125
616,-0.5126953,-0.058654785,-0.829895,-1.46875,0.28125,-0.328125
617,-0.51416016,-0.058654785,-0.83428955,-0.890625,-1.625,-0.015625
618,-0.50512695,-0.05718994,-0.8308716,-0.203125,-2.34375,-0.21875
619,-0.50219727,-0.062072754,-0.82159424,-0.03125,-2.84375,-0.1875
620,-0.49951172,-0.058654785,-0.8406372,-0.78125,-2.71875,-0.234375
621,-0.49682617,-0.0635376,-0.8311157,-1.265625,-3.3125,-0.015625
622,-0.4946289,-0.062316895,-0.8467407,-1.890625,-1.90625,-0.125
623,-0.49194336,-0.070129395,-0.83013916,-1.84375,-2.125,-0.1875
624,-0.49438477,-0.0713501,-0.83428955,-0.203125,-0.65625,-0.515625
625,-0.48754883,-0.06866455,-0.83917236,-0.21875,-0.765625,-0.4375
626,-0.484375,-0.059387207,-0.833313,0.875,-0.109375,-0.71875
627,-0.4814453,-0.061584473,-0.8399048,1.828125,0.546875,-0.71875
628,-0.49047852,-0.05279541,-0.8479614,2.5,0.734375,-0.84375
629,-0.4934082,-0.050842285,-0.8340454,2.578125,1.609375,-0.71875
630,-0.48608398,-0.05255127,-0.8245239,2.609375,0.4375,-0.578125
631,-0.49853516,-0.043518066,-0.83135986,3.0625,-2.8125,-0.28125
632,-0.47753906,-0.043273926,-0.83258057,5.359375,-3.640625,-0.375
633,-0.48217773,-0.039123535,-0.8689575,2.6875,-3.53125,-0.140625
634,-0.47802734,-0.022277832,-0.86187744,0.0625,-2.78125,0.15625
635,-0.47387695,-0.04034424,-0.862854,-9.265625,-0.1875,1.34375
636,-0.47460938,-0.04498291,-0.9319458,-9.0625,7.046875,1.1875
637,-0.48608398,-0.054504395,-0.85284424,-5.328125,8.984375,-0.109375
638,-0.49267578,-0.062805176,-0.82232666,-3.390625,6.21875,-0.296875
639,-0.5041504,-0.06744385,-0.8345337,-0.671875,5.1875,-0.71875
640,-0.5253906,-0.05987549,-0.8377075,3.234375,2.140625,-1.078125
641,-0.52001953,-0.047424316,-0.850647,3.140625,-0.625,-1.0
642,-0.5031738,-0.04522705,-0.8303833,0.890625,-1.9375,-0.625
643,-0.49560547,-0.049621582,-0.82110596,-0.34375,-1.640625,-0.15625
644,-0.5046387,-0.05206299,-0.88067627,-3.375,1.5625,0.484375
645,-0.5065918,-0.049621582,-0.817688,-7.96875,9.59375,0.828125
646,-0.50805664,-0.06695557,-0.73516846,-5.046875,10.6875,-0.21875
647,-0.5317383,-0.08306885,-0.79571533,-0.125,2.03125,-1.078125
648,-0.52124023,-0.06085205,-0.8064575,2.609375,-5.5625,-0.953125
649,-0.52685547,-0.06402588,-0.861145,2.359375,-5.09375,-0.1875
650,-0.5095215,-0.054504395,-0.8057251,0.875,-1.796875,-0.59375
651,-0.49389648,-0.05279541,-0.82037354,0.359375,-1.140625,-0.4375
652,-0.51708984,-0.058654785,-0.8230591,-0.140625,-0.640625,-0.375
653,-0.52319336,-0.05987549,-0.88360596,-3.15625,1.734375,0.625
654,-0.5270996,-0.06060791,-0.8953247,-8.578125,13.5625,0.203125
655,-0.4897461,-0.07696533,-0.7354126,-2.921875,14.515625,-0.78125
656,-0.5439453,-0.07110596,-0.73272705,1.5625,4.78125,-1.875
657,-0.5427246,-0.06524658,-0.81134033,3.125,-0.359375,-2.109375
658,-0.54589844,-0.06524658,-0.7979126,3.296875,-7.484375,-0.953125
659,-0.52612305,-0.066711426,-0.8477173,4.6875,-5.515625,-0.1875
660,-0.5258789,-0.06329346,-0.8057251,3.75,-3.84375,-0.296875
661,-0.5126953,-0.038391113,-0.815979,1.71875,-3.53125,-0.34375
662,-0.51464844,-0.047180176,-0.8496704,-0.921875,-1.765625,-0.09375
663,-0.5229492,-0.043518066,-0.84625244,-1.796875,0.109375,-0.1875
664,-0.5107422,-0.046447754,-0.81451416,-2.140625,0.515625,-0.28125
665,-0.5124512,-0.04498291,-0.82525635,-2.09375,-0.359375,-0.21875
666,-0.5180664,-0.050842285,-0.8406372,-3.421875,0.25,-0.078125
667,-0.5144043,-0.054748535,-0.8206177,-3.78125,1.375,-0.265625
668,-0.5151367,-0.0569458,-0.81500244,-3.0,0.71875,-0.28125
669,-0.52075195,-0.06036377,-0.8189087,-2.1875,-0.015625,-0.34375
670,-0.5214844,-0.06500244,-0.82525635,-2.328125,-0.25,-0.40625
671,-0.5136719,-0.06964111,-0.82232666,-1.1875,-0.265625,-0.28125
672,-0.51464844,-0.070373535,-0.8167114,-0.953125,-0.109375,-0.453125
673,-0.5168457,-0.06427002,-0.82818604,-1.140625,-0.28125,-0.234375
674,-0.5229492,-0.066711426,-0.833313,-1.40625,-0.578125,-0.328125
675,-0.51831055,-0.070373535,-0.8435669,-2.5625,-2.3125,-0.046875
676,-0.5131836,-0.06939697,-0.84820557,-3.078125,-2.609375,-0.046875
677,-0.50512695,-0.07354736,-0.8340454,-2.640625,-2.859375,-0.109375
678,-0.49902344,-0.07598877,-0.80963135,-1.78125,-3.390625,-0.265625
679,-0.5073242,-0.07354736,-0.86431885,-2.0,-3.546875,0.109375
680,-0.4975586,-0.07647705,-0.8340454,-1.0,-1.8125,-0.234375
681,-0.49316406,-0.08331299,-0.8442993,-0.625,-2.703125,-0.34375
682,-0.48046875,-0.07672119,-0.83795166,-0.015625,-1.375,-0.65625
683,-0.47753906,-0.074523926,-0.83428955,0.84375,0.6875,-0.75
684,-0.49145508,-0.07476807,-0.83917236,-0.1875,-0.09375,-0.28125
685,-0.49072266,-0.07525635,-0.8320923,0.859375,0.890625,-0.484375
686,-0.49291992,-0.0725708,-0.83184814,0.59375,-1.3125,0.03125
687,-0.48266602,-0.07354736,-0.8255005,2.078125,-3.640625,0.21875
688,-0.46826172,-0.06890869,-0.8255005,5.796875,-2.5,-0.375
689,-0.47216797,-0.057922363,-0.88287354,2.96875,-2.25,-0.28125
690,-0.47851562,-0.057434082,-0.86016846,-0.28125,-1.015625,0.234375
691,-0.47338867,-0.06744385,-0.8267212,-6.90625,1.859375,0.828125
692,-0.47827148,-0.066467285,-0.9595337,-7.71875,5.296875,1.015625
693,-0.47045898,-0.07110596,-0.81451416,-2.421875,8.09375,-0.421875
694,-0.49853516,-0.07745361,-0.80792236,-2.609375,6.484375,-0.359375
695,-0.48486328,-0.077697754,-0.79888916,-0.71875,4.40625,-0.734375
696,-0.52905273,-0.0791626,-0.8147583,2.21875,1.296875,-0.75
697,-0.5124512,-0.065979004,-0.8477173,3.4375,-0.515625,-1.015625
698,-0.50097656,-0.06890869,-0.8386841,1.578125,-1.34375,-0.453125
699,-0.49438477,-0.06402588,-0.835022,0.09375,-1.265625,-0.234375
700,-0.49267578,-0.062072754,-0.81915283,-0.453125,0.234375,-0.078125
701,-0.5083008,-0.066711426,-0.9019165,-4.0625,1.5625,0.65625
702,-0.53344727,-0.06866455,-0.92144775,-7.171875,10.984375,-0.03125
703,-0.5214844,-0.0869751,-0.7839966,-2.34375,12.234375,-1.15625
704,-0.54833984,-0.07330322,-0.8335571,0.859375,10.34375,-2.46875
705,-0.5605469,-0.074035645,-0.7737427,1.96875,-1.53125,-1.015625
706,-0.5385742,-0.06573486,-0.83599854,1.8125,-4.265625,0.03125
707,-0.52734375,-0.06500244,-0.8074341,1.078125,-3.765625,-0.015625
708,-0.5192871,-0.06817627,-0.8171997,0.453125,-2.265625,-0.234375
709,-0.5305176,-0.06304932,-0.82110596,-0.640625,-0.5625,-0.296875
710,-0.54956055,-0.073791504,-0.9187622,-4.734375,2.375,0.625
711,-0.49975586,-0.061584473,-0.8569946,-6.828125,16.203125,0.90625
712,-0.5817871,-0.09234619,-0.75738525,-1.609375,12.609375,-0.734375
713,-0.60302734,-0.085754395,-0.786438,2.3125,-1.25,-2.34375
714,-0.5866699,-0.06329346,-0.7788696,1.859375,-4.578125,-2.4375
715,-0.55371094,-0.07159424,-0.7979126,2.078125,-6.671875,-0.84375
716,-0.53515625,-0.065979004,-0.81695557,3.796875,-7.828125,0.03125
717,-0.54003906,-0.06890869,-0.80426025,2.25,-4.375,-0.328125
718,-0.5358887,-0.058654785,-0.82110596,2.015625,-3.296875,-0.28125
719,-0.53881836,-0.054504395,-0.83013916,0.578125,-1.75,-0.4375
720,-0.5366211,-0.05230713,-0.817688,-0.390625,-1.4375,-0.359375
721,-0.532959,-0.05303955,-0.82354736,-0.9375,-1.296875,-0.03125
722,-0.52685547,-0.053527832,-0.8179321,-0.796875,-0.796875,-0.25
723,-0.5263672,-0.05718994,-0.8171997,-1.265625,-0.328125,-0.125
724,-0.51660156,-0.058654785,-0.8284302,-1.703125,0.203125,-0.375
725,-0.5283203,-0.061584473,-0.83258057,-2.09375,-0.25,-0.203125
726,-0.5095215,-0.058166504,-0.80718994,0.78125,-2.96875,-0.484375
727,-0.5300293,-0.05987549,-0.8418579,-1.09375,-0.53125,-0.390625
728,-0.5126953,-0.058410645,-0.8284302,-1.890625,-1.140625,-0.03125
729,-0.5151367,-0.062805176,-0.8184204,-1.3125,-0.28125,-0.390625
730,-0.5187988,-0.06695557,-0.83306885,-1.21875,-1.28125,-0.421875
731,-0.5109863,-0.062805176,-0.847229,-1.296875,-1.03125,-0.3125
732,-0.51464844,-0.0635376,-0.8406372,-1.265625,0.046875,-0.28125
733,-0.5126953,-0.073791504,-0.8128052,-0.15625,-0.609375,-0.5
734,-0.5131836,-0.06378174,-0.82696533,0.234375,-1.21875,-0.46875
735,-0.51049805,-0.061828613,-0.82769775,1.125,0.625,-0.578125
736,-0.5131836,-0.05987549,-0.82769775,-0.234375,-0.984375,-0.25
737,-0.51342773,-0.058654785,-0.84991455,-0.421875,-0.9375,-0.21875
738,-0.51123047,-0.061828613,-0.8374634,-0.765625,-0.734375,-0.1875
739,-0.5109863,-0.06036377,-0.8272095,-0.84375,-1.4375,0.0
740,-0.5085449,-0.054992676,-0.83673096,-0.296875,-2.234375,-0.140625
741,-0.5007324,-0.05670166,-0.81500244,1.578125,-1.140625,-0.234375
742,-0.5090332,-0.053771973,-0.8362427,1.9375,-0.828125,-0.1875
743,-0.4970703,-0.05303955,-0.8284302,1.921875,-0.671875,-0.515625
744,-0.5046387,-0.045715332,-0.83062744,2.9375,0.296875,-0.578125
745,-0.4946289,-0.04425049,-0.84332275,0.21875,0.21875,-0.359375
746,-0.50097656,-0.043273926,-0.84088135,0.890625,1.78125,-0.5625
747,-0.5053711,-0.043029785,-0.83599854,1.390625,0.59375,-0.5625
748,-0.5053711,-0.033996582,-0.8440552,1.625,0.609375,-0.5625
749,-0.5029297,-0.035217285,-0.83428955,1.640625,-0.671875,-0.328125
750,-0.4951172,-0.03765869,-0.8279419,1.984375,-1.953125,-0.40625
751,-0.49243164,-0.03326416,-0.82159424,-0.59375,-5.453125,0.015625
752,-0.49145508,-0.035461426,-0.9146118,-12.625,-4.28125,2.140625
753,-0.5258789,-0.040100098,-0.8323364,-2.984375,6.65625,0.125
754,-0.49487305,-0.059143066,-0.79473877,-3.546875,7.546875,0.03125
755,-0.5251465,-0.066467285,-0.819397,-3.015625,4.328125,-0.125
756,-0.48876953,-0.05718994,-0.8167114,-0.265625,2.0625,-0.78125
757,-0.51220703,-0.05718994,-0.8267212,2.0,0.265625,-0.96875
758,-0.5148926,-0.05645752,-0.85284424,0.859375,-1.421875,-0.578125
759,-0.5007324,-0.05645752,-0.8110962,0.75,-1.484375,-0.453125
760,-0.49365234,-0.053527832,-0.8110962,-1.28125,-1.3125,-0.0625
761,-0.5070801,-0.055725098,-0.9192505,-3.796875,4.25,0.453125
762,-0.48828125,-0.062561035,-0.78448486,-5.625,9.671875,-0.09375
763,-0.53027344,-0.06939697,-0.7996216,-2.59375,6.375,-0.515625
