sample_no,accel_x,accel_y,accel_z,gyro_x,gyro_y,gyro_z
0,0.0029296875,0.22753906,0.98828125,0.1875,0.25,0.15625
1,0.0,0.22460938,0.9902344,0.0625,0.125,0.15625
2,0.00390625,0.23339844,0.98535156,-0.125,0.1875,0.0625
3,-0.005859375,0.22949219,0.99316406,0.0625,0.125,0.0625
4,0.0048828125,0.22460938,0.9785156,0.1875,0.0625,0.15625
5,-0.0009765625,0.22460938,0.9941406,-0.4375,0.46875,-0.125
6,-0.00390625,0.22851562,0.9951172,-0.5,0.0625,0.15625
7,-0.00390625,0.234375,1.0,-0.5,-0.0625,0.15625
8,-0.0107421875,0.22949219,0.98828125,-0.65625,-0.3125,0.0
9,0.005859375,0.23046875,1.0,-0.3125,-0.1875,0.15625
10,-0.0068359375,0.2265625,0.9892578,-0.4375,0.0625,0.15625
11,0.0068359375,0.23242188,0.9902344,-0.3125,0.1875,0.15625
12,-0.0048828125,0.22753906,0.98535156,-0.3125,0.0625,0.28125
13,-0.0029296875,0.22558594,0.9746094,-0.25,-0.0625,0.15625
14,0.001953125,0.2265625,0.9951172,-0.1875,0.375,0.0
15,0.0009765625,0.23730469,1.0048828,-0.375,0.25,0.15625
16,-0.0126953125,0.23242188,0.9794922,-0.25,0.0,-0.25
17,0.0,0.22753906,0.9863281,-0.5,0.0625,-0.1875
18,0.0009765625,0.22851562,0.9941406,0.0625,0.0,0.0625
19,-0.001953125,0.23046875,0.9794922,0.1875,0.1875,0.0
20,0.00390625,0.21972656,0.9921875,-0.0625,0.53125,0.0625
21,-0.00390625,0.22949219,0.9892578,-0.5,0.53125,-0.1875
22,-0.0078125,0.22949219,0.9736328,-0.0625,0.1875,0.0
23,0.005859375,0.23242188,0.98535156,-0.375,0.0,0.0
24,-0.0029296875,0.23144531,0.98046875,-0.3125,0.0625,0.0625
25,-0.0068359375,0.22851562,0.99902344,-0.25,0.125,0.15625
26,-0.005859375,0.22851562,0.9921875,-0.1875,0.25,0.15625
27,-0.0009765625,0.22753906,0.9814453,-0.5,0.46875,0.0
28,0.0,0.22265625,0.97265625,-0.59375,0.0,-0.125
29,-0.0029296875,0.22753906,0.9970703,-0.25,-0.3125,0.0
30,0.0068359375,0.22753906,0.98828125,-0.375,-0.0625,0.0
31,-0.001953125,0.22558594,0.98535156,-0.5,-0.25,0.0625
32,-0.001953125,0.23632812,0.99121094,-0.5,-0.3125,0.0625
33,-0.0068359375,0.23046875,0.98828125,-0.65625,-0.1875,-0.0625
34,-0.0087890625,0.23046875,0.99121094,-0.3125,-0.3125,-0.0625
35,0.001953125,0.22460938,0.98535156,-0.5,-0.0625,0.0625
36,-0.0009765625,0.23242188,0.99902344,-0.96875,0.375,-0.3125
37,-0.0107421875,0.23046875,0.98535156,-0.90625,-0.1875,0.0625
38,-0.0068359375,0.22949219,0.98828125,-0.90625,-0.4375,0.15625
39,0.0009765625,0.22851562,0.9863281,-0.90625,-0.5625,0.0
40,0.001953125,0.22167969,0.99121094,-0.90625,-0.3125,0.15625
41,0.0029296875,0.23046875,0.99316406,-0.90625,-0.0625,0.15625
42,-0.001953125,0.2265625,0.97265625,-0.78125,-0.1875,0.15625
43,0.0009765625,0.22558594,0.9863281,-0.71875,-0.125,0.15625
44,-0.005859375,0.22558594,0.99121094,-0.78125,-0.3125,0.0
45,-0.00390625,0.22753906,0.9863281,-1.03125,-0.3125,0.0625
46,0.0,0.23046875,0.9873047,-1.09375,-0.3125,0.0625
47,0.0009765625,0.22558594,0.98339844,-0.5,-0.5,0.15625
48,-0.0078125,0.22753906,0.9921875,-0.5,-0.1875,-0.125
49,-0.005859375,0.22851562,1.0068359,-1.09375,-0.125,0.0
50,-0.00390625,0.22460938,0.9902344,-0.4375,-0.75,0.0
51,-0.0048828125,0.22753906,0.99121094,-0.1875,-0.5625,0.0
52,-0.0048828125,0.23046875,0.9873047,-0.59375,0.0625,-0.125
53,-0.005859375,0.2109375,0.98339844,-0.90625,-0.125,0.15625
54,0.0087890625,0.22851562,1.0,-0.90625,-0.25,0.15625
55,0.005859375,0.23535156,0.9941406,-0.5,-0.5,-0.0625
56,0.001953125,0.21679688,0.98339844,-0.5,0.0,-0.0625
57,-0.0078125,0.23046875,1.0019531,-0.5,-0.1875,0.15625
58,-0.005859375,0.22558594,1.0078125,-0.125,-0.5625,0.0625
59,0.0009765625,0.22265625,0.99609375,-0.3125,-0.125,0.0
60,0.009765625,0.22949219,0.99316406,-0.1875,-0.3125,-0.1875
61,-0.005859375,0.23046875,0.98535156,-0.4375,0.375,0.0
62,0.0029296875,0.22949219,0.9921875,-0.5,0.375,0.15625
63,-0.0009765625,0.22460938,0.98828125,-0.375,-0.3125,-0.125
64,-0.0009765625,0.22265625,0.99609375,-0.59375,0.125,-0.1875
65,0.001953125,0.22558594,0.9941406,-0.78125,0.1875,0.0
66,0.0009765625,0.23046875,0.9921875,-0.59375,-0.1875,0.15625
67,-0.0029296875,0.21484375,0.984375,0.0,-0.3125,0.15625
68,-0.0029296875,0.21777344,0.984375,-0.4375,0.125,-0.0625
69,-0.00390625,0.22167969,0.9980469,-0.5,-0.3125,0.0625
70,-0.0048828125,0.21386719,0.99316406,-0.25,-0.3125,-0.0625
71,0.0009765625,0.2265625,0.9980469,-0.375,-0.25,-0.125
72,0.0,0.21972656,0.99902344,-0.5,-0.25,0.15625
73,0.0078125,0.22851562,0.984375,-0.4375,-0.125,0.0625
74,0.0009765625,0.23046875,0.98828125,-0.5,-0.0625,0.15625
75,0.0029296875,0.21582031,0.984375,-0.125,-0.3125,0.15625
76,0.0009765625,0.22363281,0.99316406,-0.25,0.0,0.0625
77,-0.001953125,0.22265625,0.9921875,-0.3125,-0.125,-0.0625
78,-0.001953125,0.21875,1.0087891,-0.4375,-0.125,0.0
79,0.009765625,0.22753906,0.9921875,-0.5,-0.125,-0.0625
80,-0.0068359375,0.22558594,0.9902344,-0.25,-0.3125,0.0
81,0.0009765625,0.22753906,0.9824219,-0.25,-0.4375,0.0
82,0.005859375,0.22558594,0.97753906,-0.375,-0.25,-0.0625
83,0.0009765625,0.21679688,0.9863281,-0.1875,-0.3125,0.28125
84,-0.001953125,0.2265625,0.99316406,0.0,-0.3125,0.15625
85,0.00390625,0.22753906,0.9951172,0.0,0.1875,-0.0625
86,-0.0048828125,0.22460938,0.99316406,-0.375,0.1875,0.0
87,-0.0029296875,0.22949219,0.9980469,-0.1875,-0.1875,-0.25
88,0.00390625,0.22363281,0.98828125,-0.25,-0.5,0.0625
89,0.0087890625,0.22265625,0.9970703,-0.1875,-0.25,-0.125
90,0.005859375,0.21777344,0.9873047,-0.125,-0.0625,0.0625
91,-0.005859375,0.22949219,0.98046875,0.1875,0.0,-0.0625
92,0.0048828125,0.22265625,0.9746094,0.25,0.125,0.15625
93,-0.0009765625,0.22363281,0.9873047,0.1875,0.0625,0.34375
94,-0.0068359375,0.23046875,0.99902344,0.1875,-0.1875,0.40625
95,0.005859375,0.22460938,0.9873047,0.0625,0.0625,0.0
96,-0.0029296875,0.22753906,0.9814453,-0.1875,0.125,0.0
97,0.0048828125,0.23144531,0.98046875,-0.0625,-0.1875,0.0625
98,0.001953125,0.22851562,0.9892578,-0.125,0.1875,-0.0625
99,0.0,0.22558594,0.9873047,-0.375,0.375,-0.25
100,-0.00390625,0.23730469,0.984375,0.09375,0.03125,-0.1875
101,0.001953125,0.2265625,0.9921875,-0.03125,-0.09375,0.125
102,0.01171875,0.23242188,0.9814453,-0.15625,0.28125,-0.1875
103,0.0,0.22558594,0.98535156,-0.09375,0.21875,-0.0625
104,-0.0087890625,0.22949219,0.9980469,-0.09375,-0.21875,0.0
105,0.00390625,0.24121094,0.98828125,-0.15625,0.09375,-0.125
106,-0.0087890625,0.22753906,0.97753906,0.09375,-0.03125,0.25
107,-0.0029296875,0.22558594,0.9736328,0.40625,0.03125,0.1875
108,-0.0029296875,0.23339844,0.99121094,-0.1875,0.40625,0.0625
109,-0.0068359375,0.22363281,0.9863281,-0.1875,0.03125,-0.125
110,0.0029296875,0.23339844,0.9921875,0.03125,-0.28125,-0.125
111,0.0009765625,0.23535156,0.9794922,0.03125,-0.21875,-0.125
112,-0.0029296875,0.23242188,0.984375,0.03125,-0.21875,0.125
113,0.005859375,0.22363281,0.98828125,-0.03125,-0.09375,0.25
114,0.001953125,0.22753906,0.98535156,-0.09375,-0.21875,0.0
115,0.0078125,0.22851562,0.9921875,0.34375,-0.40625,-0.125
116,0.0078125,0.234375,0.98828125,-0.03125,0.09375,0.0625
117,-0.0029296875,0.2265625,0.98535156,-0.09375,0.15625,0.125
118,-0.0029296875,0.22167969,0.9863281,0.03125,-0.21875,0.125
119,-0.009765625,0.22753906,0.9794922,-0.03125,0.21875,-0.1875
120,-0.001953125,0.2265625,0.99316406,-0.09375,0.15625,-0.125
121,0.0,0.23339844,0.99316406,-0.5,0.15625,-0.0625
122,0.0029296875,0.23046875,0.98535156,-0.03125,-0.28125,0.4375
123,-0.001953125,0.2265625,0.984375,0.34375,-0.59375,0.125
124,0.001953125,0.22851562,0.97558594,-0.09375,0.21875,0.1875
125,0.005859375,0.23046875,0.9970703,-0.25,0.28125,0.0625
126,0.0,0.22558594,0.9951172,0.21875,0.09375,-0.25
127,-0.0078125,0.22949219,0.99609375,0.03125,-0.28125,-0.125
128,0.0078125,0.22558594,0.9970703,0.03125,-0.15625,-0.1875
129,-0.0009765625,0.23046875,0.9941406,0.09375,0.03125,0.125
130,0.0009765625,0.22753906,0.9824219,0.09375,0.03125,0.25
131,-0.0029296875,0.23339844,0.9794922,0.28125,0.28125,0.0625
132,-0.00390625,0.2265625,0.9746094,0.28125,0.21875,0.0625
133,-0.0009765625,0.23632812,0.9970703,0.15625,-0.21875,0.25
134,0.0048828125,0.23535156,0.9736328,0.21875,-0.03125,-0.0625
135,0.0,0.21972656,0.984375,0.28125,-0.09375,0.0625
136,0.00390625,0.23632812,0.9863281,0.28125,0.03125,-0.125
137,-0.005859375,0.23535156,0.9980469,0.09375,-0.03125,0.0625
138,0.001953125,0.23730469,0.99609375,0.03125,-0.03125,0.0
139,0.0009765625,0.23339844,0.9941406,0.65625,-0.21875,0.0625
140,0.0048828125,0.22753906,0.9902344,0.46875,-0.03125,0.0625
141,0.0,0.23535156,0.9824219,0.34375,0.46875,-0.0625
142,0.0009765625,0.23339844,0.9951172,0.09375,0.15625,0.25
143,-0.0009765625,0.22949219,0.9785156,0.34375,-0.03125,-0.0625
144,0.0029296875,0.23046875,0.9892578,0.40625,-0.15625,-0.125
145,-0.0009765625,0.24121094,0.9892578,0.59375,0.53125,-0.25
146,-0.0029296875,0.23828125,0.9921875,0.03125,0.53125,0.0
147,0.0029296875,0.24511719,0.99121094,0.28125,0.21875,0.1875
148,-0.005859375,0.23144531,0.98046875,0.46875,0.09375,0.0625
149,-0.0009765625,0.23046875,0.98828125,0.53125,-0.03125,0.0625
150,0.00390625,0.23535156,0.984375,0.15625,0.21875,0.0625
151,0.0087890625,0.23339844,0.9892578,0.40625,0.21875,0.0625
152,0.0,0.23339844,0.9970703,0.34375,0.03125,0.0
153,0.0029296875,0.22949219,0.9824219,0.40625,0.21875,0.0625
154,-0.00390625,0.24023438,0.99316406,0.09375,0.28125,-0.0625
155,-0.0009765625,0.23242188,0.984375,0.65625,-0.03125,0.0625
156,0.0087890625,0.23730469,0.9873047,0.59375,0.15625,-0.125
157,-0.0009765625,0.24414062,0.9941406,0.09375,0.75,-0.1875
158,0.0,0.24121094,0.9765625,0.03125,0.59375,0.1875
159,-0.0126953125,0.23339844,0.99121094,0.34375,0.09375,0.1875
160,0.0029296875,0.24316406,0.98535156,0.40625,0.03125,0.1875
161,0.005859375,0.23339844,0.9902344,0.03125,0.15625,0.0
162,0.0,0.22558594,0.98339844,0.09375,0.15625,0.1875
163,-0.00390625,0.23730469,0.9873047,-0.09375,0.28125,0.25
164,0.0009765625,0.23242188,0.99316406,0.09375,0.03125,0.125
165,-0.001953125,0.23535156,0.98046875,0.03125,-0.15625,-0.0625
166,-0.0009765625,0.23730469,0.97558594,-0.25,0.09375,-0.125
167,0.00390625,0.22851562,0.9921875,-0.1875,-0.15625,-0.0625
168,-0.0009765625,0.234375,0.98535156,-0.3125,-0.21875,0.0625
169,-0.001953125,0.23535156,0.9863281,-0.15625,-0.15625,-0.0625
170,0.0,0.2265625,1.0048828,-0.25,-0.03125,-0.1875
171,-0.005859375,0.23535156,0.9814453,-0.03125,-0.03125,0.0
172,-0.0029296875,0.24121094,0.9814453,0.03125,-0.09375,0.0
173,-0.0068359375,0.23632812,0.9970703,-0.3125,-0.03125,-0.25
174,-0.0078125,0.23046875,0.98046875,-0.5,-0.03125,-0.0625
175,-0.0009765625,0.23339844,0.9824219,-0.09375,-0.34375,-0.0625
176,-0.0009765625,0.23730469,0.98828125,-0.03125,-0.59375,0.125
177,-0.0029296875,0.23535156,0.9794922,-0.1875,-0.15625,0.0625
178,-0.0029296875,0.24511719,0.97753906,-0.25,-0.28125,-0.0625
179,-0.0068359375,0.24316406,0.9892578,-0.09375,-0.28125,0.0
180,-0.0009765625,0.23828125,0.9765625,0.03125,0.03125,0.1875
181,-0.00390625,0.23535156,0.99902344,-0.15625,-0.28125,0.5
182,0.0029296875,0.23925781,0.98828125,-0.15625,-0.21875,0.125
183,-0.0009765625,0.22949219,0.9824219,-0.09375,0.03125,-0.0625
184,-0.001953125,0.2265625,0.97265625,-0.25,-0.15625,0.0
185,-0.0048828125,0.24511719,0.97558594,-0.09375,-0.34375,-0.125
186,0.0009765625,0.23925781,0.9873047,-0.4375,-0.03125,-0.0625
187,-0.0068359375,0.23144531,0.9863281,0.09375,-0.09375,0.0625
188,0.0029296875,0.23535156,0.9814453,0.03125,-0.21875,-0.0625
189,-0.005859375,0.23339844,0.99609375,-0.3125,-0.03125,-0.125
190,-0.0048828125,0.24804688,0.984375,-0.3125,-0.09375,-0.1875
191,-0.00390625,0.23339844,0.9873047,0.03125,-0.40625,-0.0625
192,0.0,0.22949219,0.9873047,-0.25,-0.34375,0.125
193,-0.0029296875,0.23144531,0.9824219,-0.09375,-0.28125,0.125
194,-0.0068359375,0.23535156,0.9892578,-0.1875,-0.15625,-0.0625
195,0.00390625,0.23144531,0.98535156,-0.15625,-0.03125,-0.0625
196,0.005859375,0.22363281,0.98535156,-0.09375,0.09375,0.1875
197,0.0,0.22949219,0.9892578,-0.1875,-0.09375,0.0625
198,-0.001953125,0.23144531,1.0048828,-0.25,0.09375,0.0625
199,-0.01171875,0.23242188,0.9892578,-0.15625,0.21875,-0.125
200,0.0048828125,0.22851562,1.0048828,-0.15625,0.21875,-0.0625
201,-0.009765625,0.22851562,0.984375,-0.15625,0.03125,0.0625
202,0.0029296875,0.23144531,0.98535156,-0.375,-0.40625,0.0
203,0.0078125,0.23242188,0.98339844,0.15625,-0.21875,-0.0625
204,-0.0009765625,0.23632812,0.9892578,0.21875,0.03125,0.0625
205,0.0029296875,0.23242188,0.98828125,-0.1875,0.21875,0.125
206,-0.005859375,0.23046875,0.9785156,-0.3125,-0.21875,-0.0625
207,-0.001953125,0.22753906,0.9951172,-0.09375,-0.59375,0.0
208,0.005859375,0.23242188,0.99609375,-0.09375,-0.53125,-0.1875
209,0.001953125,0.234375,0.9892578,0.03125,-0.28125,0.0625
210,-0.005859375,0.22949219,0.9970703,-0.03125,-0.03125,0.0625
211,0.01171875,0.22753906,0.99121094,-0.03125,-0.15625,0.0625
212,-0.00390625,0.22558594,0.99121094,-0.09375,0.03125,-0.0625
213,0.0009765625,0.23242188,0.9863281,0.03125,-0.21875,0.125
214,0.00390625,0.23144531,0.9824219,0.03125,-0.03125,0.0
215,0.005859375,0.22558594,0.99121094,0.15625,0.21875,-0.125
216,-0.001953125,0.22949219,0.98828125,0.09375,0.03125,0.1875
217,0.0,0.23828125,0.984375,0.21875,-0.28125,0.1875
218,0.00390625,0.23144531,0.98535156,0.03125,0.28125,0.0625
219,-0.001953125,0.22265625,0.99609375,0.28125,-0.03125,0.25
220,-0.0009765625,0.234375,0.9765625,0.34375,-0.15625,0.375
221,-0.0107421875,0.23144531,0.9863281,0.09375,0.09375,-0.0625
222,0.00390625,0.22753906,0.9902344,0.03125,-0.15625,0.375
223,0.0009765625,0.23925781,0.9892578,0.28125,0.21875,0.0625
224,0.0048828125,0.23828125,0.9863281,0.53125,-0.40625,0.0625
225,-0.0068359375,0.23046875,0.9814453,0.09375,0.46875,0.3125
226,-0.0009765625,0.23242188,0.97558594,0.28125,0.28125,0.125
227,-0.0029296875,0.23632812,0.9736328,0.40625,-0.1875,-0.09375
228,0.0048828125,0.234375,0.984375,0.15625,0.1875,-0.03125
229,0.0,0.23828125,0.98046875,0.03125,0.125,0.09375
230,0.0029296875,0.2421875,1.0019531,0.0,-0.125,-0.03125
231,0.005859375,0.2421875,0.9736328,0.09375,0.1875,-0.03125
232,-0.009765625,0.23144531,0.99316406,0.0,-0.0625,-0.03125
233,-0.0087890625,0.24023438,0.9785156,0.21875,-0.25,-0.09375
234,0.001953125,0.23632812,0.98828125,0.0,-0.1875,-0.15625
235,0.0048828125,0.23730469,0.9746094,0.09375,0.125,-0.03125
236,0.0,0.23339844,0.9951172,0.15625,-0.125,0.03125
237,-0.0029296875,0.23828125,0.99121094,-0.0625,0.3125,-0.09375
238,-0.009765625,0.22851562,0.9863281,-0.375,0.375,-0.03125
239,0.0,0.24023438,0.99902344,0.03125,0.0625,-0.09375
240,-0.009765625,0.2421875,0.9765625,-0.125,0.0625,-0.09375
241,0.001953125,0.23828125,0.9941406,0.09375,-0.1875,0.21875
242,0.009765625,0.24511719,0.98535156,-0.125,0.25,-0.1875
243,-0.0029296875,0.23242188,1.0019531,-0.25,0.5,-0.1875
244,0.005859375,0.24121094,0.9941406,-0.1875,-0.1875,0.15625
245,-0.001953125,0.24121094,0.9863281,0.0,0.0,0.09375
246,-0.009765625,0.23535156,0.9814453,-0.3125,0.125,-0.15625
247,-0.005859375,0.23535156,0.98339844,-0.4375,-0.25,-0.15625
248,0.0,0.22949219,0.9824219,0.0,-0.0625,-0.09375
249,-0.0009765625,0.24023438,0.98046875,-0.125,0.4375,-0.25
250,0.0,0.23535156,1.0039062,-0.375,-0.0625,-0.15625
251,0.0029296875,0.23242188,0.99316406,0.09375,-0.25,-0.09375
252,-0.0068359375,0.23730469,0.98535156,0.21875,0.0625,-0.4375
253,-0.0009765625,0.22949219,1.0,0.03125,0.0625,-0.3125
254,0.0,0.24023438,0.9873047,-0.3125,0.0,-0.15625
255,-0.0078125,0.23925781,0.9980469,-0.0625,-0.375,-0.09375
256,0.0048828125,0.23632812,0.97558594,0.03125,-0.3125,-0.09375
257,0.005859375,0.23828125,1.0048828,-0.0625,0.4375,-0.1875
258,-0.0009765625,0.23535156,0.984375,-0.375,0.25,-0.1875
259,-0.0078125,0.24023438,0.9873047,-0.1875,-0.3125,0.09375
260,-0.001953125,0.23242188,0.9863281,0.0,-0.0625,-0.25
261,-0.001953125,0.234375,0.9814453,-0.1875,0.0625,-0.25
262,-0.0029296875,0.234375,0.98046875,-0.4375,0.25,0.15625
263,-0.00390625,0.23828125,0.9873047,-0.375,-0.25,0.21875
264,0.083984375,0.26953125,0.96777344,0.65625,0.4375,0.65625
265,0.076171875,0.27148438,0.9863281,-0.1875,1.03125,1.25
266,0.07714844,0.26757812,0.96875,0.21875,0.625,1.25
267,0.07128906,0.265625,0.97265625,0.03125,0.5625,1.3125
268,0.07910156,0.26953125,0.9716797,-0.5,0.375,0.78125
269,0.07519531,0.26757812,0.9667969,-0.3125,0.3125,0.15625
270,0.078125,0.25976562,0.97753906,0.09375,0.25,-0.875
271,0.06933594,0.27148438,0.9736328,-0.125,0.375,-1.3125
272,0.06542969,0.28125,0.9658203,0.0,-0.78125,-1.3125
273,0.07714844,0.2705078,0.9707031,-0.125,-0.78125,-0.8125
274,0.07324219,0.2705078,0.96875,0.15625,-0.125,-0.15625
275,0.080078125,0.2763672,0.96777344,0.53125,0.125,0.28125
276,0.07714844,0.27148438,0.9638672,0.34375,0.1875,0.84375
277,0.07714844,0.26953125,0.97753906,0.21875,-0.125,0.65625
278,0.076171875,0.27441406,0.9638672,0.03125,0.125,1.03125
279,0.08203125,0.27148438,0.9736328,0.0,0.0,0.59375
280,0.07421875,0.2685547,0.9736328,-0.25,0.25,0.15625
281,0.072265625,0.2841797,0.9707031,-0.1875,0.0,-0.25
282,0.083984375,0.26757812,0.97265625,-0.5,-0.3125,-0.5625
283,0.07324219,0.28027344,0.9638672,-0.3125,0.1875,0.09375
284,0.07910156,0.26953125,0.97265625,0.03125,0.4375,0.15625
285,0.06542969,0.2705078,0.9824219,-0.5,0.0625,-0.03125
286,0.078125,0.2763672,0.97558594,0.03125,-0.25,0.15625
287,0.07421875,0.265625,0.9746094,-0.125,0.1875,0.09375
288,0.07128906,0.26953125,0.9873047,-0.0625,0.65625,-0.03125
289,0.076171875,0.28027344,0.9863281,-0.5,-0.125,-0.5
290,0.07714844,0.27246094,0.9814453,-0.8125,-0.1875,-0.5
291,0.0703125,0.26367188,0.9658203,-0.0625,-0.25,0.03125
292,0.076171875,0.27441406,0.9785156,0.0,0.3125,0.46875
293,0.08105469,0.2783203,0.97265625,-0.4375,-0.125,0.40625
294,0.07714844,0.27539062,0.96972656,-0.375,-0.125,0.46875
295,0.07714844,0.27148438,0.9716797,-0.0625,-0.125,0.28125
296,0.06738281,0.2763672,0.9707031,0.0,0.125,0.09375
297,0.078125,0.2763672,0.9746094,0.0,-0.1875,0.28125
298,0.072265625,0.27148438,0.9736328,0.0,-0.0625,0.28125
299,0.06933594,0.2705078,0.96875,-0.375,0.5,0.53125
300,0.08203125,0.27246094,0.9658203,0.21875,0.25,0.90625
301,0.07421875,0.26757812,0.9707031,0.40625,0.0625,1.125
302,0.0703125,0.27148438,0.9785156,-0.375,0.4375,0.96875
303,0.080078125,0.26464844,0.9970703,-0.375,0.25,0.34375
304,0.07128906,0.26464844,0.9785156,-0.1875,-0.0625,0.15625
305,0.07910156,0.27441406,0.9824219,-0.1875,0.1875,0.15625
306,0.07421875,0.2705078,0.9707031,-0.125,0.65625,0.15625
307,0.07519531,0.26953125,0.98339844,0.03125,0.0625,-0.03125
308,0.08300781,0.27539062,0.9707031,0.0,0.0625,0.03125
309,0.07324219,0.2705078,0.9707031,-0.1875,-0.3125,0.46875
310,0.076171875,0.27539062,0.98535156,-0.375,-0.25,0.21875
311,0.0703125,0.2705078,0.98535156,-0.1875,-0.5,-0.1875
312,0.07128906,0.2705078,0.9707031,-0.0625,-0.375,-0.15625
313,0.07714844,0.27441406,0.9609375,-0.1875,-0.1875,-0.15625
314,0.07714844,0.27539062,0.97558594,0.09375,-0.25,-0.1875
315,0.06542969,0.2685547,0.9667969,0.09375,-0.125,-0.03125
316,0.07324219,0.27246094,0.97558594,-0.0625,-0.0625,0.15625
317,0.076171875,0.2783203,0.96484375,0.0,-0.1875,0.21875
318,0.0703125,0.27148438,0.98046875,0.09375,-0.25,0.40625
319,0.08203125,0.26367188,0.9814453,-0.375,-0.25,-0.15625
320,0.072265625,0.2734375,0.98046875,-0.0625,-0.125,0.09375
321,0.07714844,0.2763672,0.984375,-0.0625,-0.3125,-0.25
322,0.078125,0.27246094,0.97265625,-0.375,-0.1875,0.03125
323,0.068359375,0.26660156,0.97265625,0.15625,0.1875,0.46875
324,0.08105469,0.28027344,0.96875,-0.3125,-0.25,0.46875
325,0.072265625,0.26953125,0.9824219,-0.5,-0.1875,0.28125
326,0.0859375,0.26953125,0.97558594,-0.25,-0.0625,0.28125
327,0.072265625,0.27246094,0.96875,-0.1875,0.125,0.40625
328,0.08300781,0.25878906,0.96972656,0.0,-0.0625,0.21875
329,0.06933594,0.26660156,0.9765625,0.09375,-0.0625,0.09375
330,0.0859375,0.2734375,0.97265625,-0.3125,-0.125,0.03125
331,0.08300781,0.26660156,0.9736328,0.0,-0.375,-0.09375
332,0.080078125,0.2734375,0.9746094,-0.0625,-0.1875,-0.09375
333,0.064453125,0.27441406,0.96972656,0.15625,0.0,-0.09375
334,0.06933594,0.27539062,0.97265625,-0.25,-0.3125,-0.25
335,0.07519531,0.27441406,0.96191406,0.0,-0.3125,-0.15625
336,0.07324219,0.27148438,0.9824219,0.0,-0.1875,-0.375
337,0.08105469,0.2783203,0.9716797,-0.25,-0.1875,-0.15625
338,0.07421875,0.2783203,0.96972656,-0.3125,-0.1875,-0.25
339,0.08105469,0.26757812,0.98046875,-0.3125,-0.1875,-0.09375
340,0.080078125,0.2705078,0.9746094,-0.1875,-0.125,-0.15625
341,0.08300781,0.26953125,0.9765625,-0.25,0.125,-0.1875
342,0.078125,0.2734375,0.9658203,-0.3125,-0.3125,-0.375
343,0.07421875,0.27441406,0.9765625,-0.1875,-0.0625,-0.3125
344,0.07421875,0.28125,0.9794922,-0.4375,-0.3125,-0.09375
345,0.07421875,0.26953125,0.9628906,-0.375,-0.1875,-0.03125
346,0.07421875,0.2705078,0.96191406,0.03125,0.1875,-0.09375
347,0.0703125,0.28027344,0.97265625,-0.375,-0.1875,-0.1875
348,0.07910156,0.26953125,0.9873047,-0.3125,-0.0625,-0.3125
349,0.078125,0.26660156,0.9667969,-0.25,0.0,-0.3125
350,0.076171875,0.26757812,0.97265625,-0.0625,0.0625,-0.1875
351,0.07421875,0.26367188,0.9765625,-0.1875,-0.125,-0.1875
352,0.076171875,0.265625,0.96875,-0.0625,0.0,0.03125
353,0.068359375,0.26367188,0.97558594,-0.1875,0.1875,-0.15625
354,0.08203125,0.2734375,0.97753906,-0.1875,0.0,-0.15625
355,0.07910156,0.27441406,0.9824219,-0.1875,0.0,-0.15625
356,0.078125,0.27441406,0.96777344,0.0,-0.1875,-0.03125
357,0.07324219,0.27441406,0.9765625,-0.1875,0.0,-0.09375
358,0.07324219,0.2763672,0.98339844,-0.0625,0.0625,0.03125
359,0.08105469,0.26757812,0.9902344,-0.125,0.0,0.03125
360,0.076171875,0.27441406,0.9716797,0.0,0.0,0.09375
361,0.0703125,0.26464844,0.96777344,0.0,0.0625,0.03125
362,0.06933594,0.26660156,0.9824219,-0.1875,-0.25,-0.1875
363,0.07714844,0.27441406,0.9814453,-0.1875,-0.125,-0.09375
364,0.07421875,0.2734375,0.97753906,0.03125,0.0,-0.03125
365,0.078125,0.2783203,0.9716797,-0.0625,-0.1875,-0.09375
366,0.083984375,0.27539062,0.9824219,-0.125,-0.4375,0.09375
367,0.09082031,0.2705078,0.98046875,0.0,-0.25,0.46875
368,0.07128906,0.27246094,0.97753906,0.28125,0.4375,0.46875
369,0.0703125,0.26953125,0.99121094,0.15625,0.125,0.03125
370,0.06933594,0.26660156,0.9707031,-0.125,-0.09375,0.09375
371,0.07128906,0.2626953,0.9716797,0.125,-0.1875,-0.03125
372,0.078125,0.27441406,0.9746094,0.1875,-0.15625,-0.09375
373,0.08105469,0.27441406,0.9716797,0.0,-0.25,0.21875
374,0.078125,0.2685547,0.98046875,0.375,-0.03125,0.21875
375,0.07324219,0.26953125,0.96972656,0.25,0.21875,0.21875
376,0.07910156,0.27441406,0.9667969,0.4375,-0.3125,0.21875
377,0.0859375,0.28125,0.9785156,0.0,-0.4375,0.03125
378,0.07324219,0.26660156,0.9580078,0.125,-0.09375,0.34375
379,0.0859375,0.27148438,0.9746094,0.125,-0.1875,0.53125
380,0.07421875,0.2783203,0.9736328,0.1875,-0.3125,0.6875
381,0.08203125,0.2783203,0.9716797,0.125,0.03125,0.53125
382,0.07910156,0.28125,0.9794922,-0.125,-0.09375,-0.03125
383,0.08203125,0.26757812,0.9716797,0.125,-0.1875,0.03125
384,0.07714844,0.2705078,0.97265625,0.25,-0.09375,0.46875
385,0.07324219,0.27734375,0.9736328,0.3125,0.15625,0.40625
386,0.076171875,0.2734375,0.9746094,0.4375,-0.09375,0.21875
387,0.078125,0.27441406,0.9707031,-0.1875,-0.1875,-0.09375
388,0.078125,0.27539062,0.9658203,-0.1875,-0.1875,0.03125
389,0.07714844,0.2734375,0.96972656,0.125,-0.25,0.21875
390,0.08300781,0.2763672,0.9902344,0.0,-0.25,0.46875
391,0.078125,0.27929688,0.9736328,0.0625,-0.09375,0.46875
392,0.07324219,0.27246094,0.96191406,0.0625,-0.09375,-0.15625
393,0.06933594,0.27441406,0.96484375,-0.125,-0.25,-0.03125
394,0.08300781,0.2685547,0.9794922,-0.0625,-0.25,0.34375
395,0.07910156,0.2626953,0.9746094,0.125,-0.09375,0.21875
396,0.07421875,0.27148438,0.984375,-0.0625,-0.03125,0.09375
397,0.07910156,0.28027344,0.9814453,-0.1875,-0.1875,-0.28125
398,0.08300781,0.2841797,0.9746094,-0.25,0.15625,-0.53125
399,0.076171875,0.265625,0.9472656,0.0625,0.03125,-0.21875
400,0.07910156,0.27734375,0.9716797,0.0,-0.09375,0.15625
401,0.06738281,0.28027344,0.96972656,0.0,0.40625,-0.21875
402,0.08300781,0.27148438,0.96484375,-0.5,-0.03125,-0.40625
403,0.08105469,0.27441406,0.97265625,0.0625,-0.1875,-0.15625
404,0.08496094,0.2685547,0.9707031,0.0625,-0.09375,0.03125
405,0.07714844,0.27539062,0.9794922,-0.0625,-0.03125,-0.28125
406,0.07128906,0.27539062,0.96777344,0.125,0.03125,-0.28125
407,0.08105469,0.2705078,0.9785156,0.125,-0.25,-0.15625
408,0.07519531,0.26757812,0.97558594,-0.125,0.03125,-0.09375
409,0.083984375,0.26464844,0.96875,0.1875,0.28125,0.09375
410,0.078125,0.27734375,0.9736328,-0.1875,0.15625,-0.09375
411,0.08203125,0.27441406,0.9746094,-0.125,0.03125,-0.21875
412,0.080078125,0.26464844,0.9785156,-0.1875,0.53125,-0.15625
413,0.08105469,0.27246094,0.96875,-0.125,0.40625,-0.09375
414,0.08105469,0.2783203,0.96777344,0.0625,0.03125,-0.09375
415,0.07128906,0.27246094,0.9716797,-0.3125,0.09375,0.09375
416,0.080078125,0.26660156,0.9736328,-0.125,0.28125,0.53125
417,0.076171875,0.27441406,0.98828125,0.0625,0.40625,0.21875
418,0.0703125,0.2685547,0.9658203,-0.0625,0.21875,-0.34375
419,0.0859375,0.265625,0.97558594,-0.25,-0.1875,-0.15625
420,0.07128906,0.27246094,0.97265625,0.0,0.40625,0.21875
421,0.07324219,0.2734375,0.9814453,-0.0625,-0.03125,0.03125
422,0.0703125,0.27441406,0.9638672,-0.375,0.15625,0.15625
423,0.07714844,0.26953125,0.97265625,0.1875,0.21875,-0.03125
424,0.07421875,0.27148438,0.9746094,-0.25,-0.09375,-0.28125
425,0.07714844,0.2626953,0.984375,-0.125,-0.3125,-0.03125
426,0.07421875,0.26660156,0.9941406,0.1875,0.09375,0.03125
427,0.08105469,0.2626953,0.96777344,-0.125,0.03125,-0.09375
428,0.080078125,0.2685547,0.9765625,0.0,-0.375,-0.09375
429,0.07714844,0.27246094,0.96777344,0.0625,0.03125,-0.34375
430,0.07128906,0.27246094,0.9746094,-0.0625,-0.375,-0.09375
431,0.076171875,0.27246094,0.9765625,0.1875,-0.4375,0.03125
432,0.078125,0.2734375,0.97558594,0.375,-0.5,0.15625
433,0.08886719,0.27929688,0.9814453,0.0,-0.4375,0.34375
434,0.07714844,0.26660156,0.98046875,0.25,-0.3125,0.34375
435,0.08496094,0.26660156,0.9746094,0.1875,-0.375,0.40625
436,0.07128906,0.27246094,0.97265625,0.3125,-0.09375,0.15625
437,0.078125,0.26464844,0.9746094,-0.0625,-0.34375,-0.03125
438,0.080078125,0.2705078,0.99121094,0.0,-0.34375,-0.09375
439,0.080078125,0.28125,0.97753906,0.125,-0.40625,0.1875
440,0.07519531,0.26171875,0.98535156,0.3125,-0.21875,0.375
441,0.078125,0.26953125,0.9667969,0.0625,-0.40625,0.375
442,0.087890625,0.26464844,0.9765625,0.0625,-0.15625,0.5625
443,0.08203125,0.2763672,0.96972656,0.25,0.28125,0.3125
444,0.07519531,0.2685547,0.9785156,-0.0625,0.15625,-0.09375
445,0.08203125,0.27148438,0.97753906,-0.5,-0.4375,-0.46875
446,0.076171875,0.27148438,0.9765625,0.46875,-0.34375,-0.21875
447,0.083984375,0.28027344,0.97265625,0.0,-0.03125,-0.09375
448,0.07910156,0.27148438,0.9746094,-0.25,-0.09375,0.09375
449,0.07910156,0.2705078,0.96484375,0.40625,0.15625,0.1875
450,0.07519531,0.2783203,0.9746094,0.1875,0.78125,0.375
451,0.08203125,0.27148438,0.9638672,-0.0625,-0.21875,0.09375
452,0.07910156,0.2783203,0.96972656,-0.1875,-0.34375,-0.09375
453,0.076171875,0.2783203,0.97558594,-0.25,-0.5625,-0.15625
454,0.08203125,0.28125,0.98046875,-0.125,-0.40625,0.3125
455,0.08203125,0.2685547,0.9716797,0.0,0.15625,0.625
456,0.07910156,0.26953125,0.9765625,0.0625,-0.03125,0.5
457,0.07324219,0.2705078,0.9667969,-0.1875,-0.03125,0.03125
458,0.07714844,0.28125,0.9794922,0.34375,-0.03125,-0.15625
459,0.07519531,0.2861328,0.9785156,-0.125,-0.03125,-0.71875
460,0.07519531,0.2705078,0.9638672,-0.125,0.09375,-0.21875
461,0.080078125,0.26953125,0.96191406,0.25,0.03125,0.375
462,0.08984375,0.26757812,0.9824219,0.125,0.65625,0.625
463,0.07714844,0.2734375,0.98046875,0.0,0.65625,-0.09375
464,0.08300781,0.26660156,0.9736328,0.125,0.46875,-0.40625
465,0.07128906,0.26171875,0.9765625,0.34375,0.59375,-0.34375
466,0.07421875,0.27246094,0.96972656,-0.125,0.40625,-0.28125
467,0.07324219,0.27148438,0.9707031,-0.125,-0.34375,-0.15625
468,0.083984375,0.27539062,0.96875,0.125,0.34375,0.1875
469,0.072265625,0.27539062,0.95703125,0.1875,0.15625,0.4375
470,0.08203125,0.26953125,0.984375,0.34375,-0.09375,0.4375
471,0.083984375,0.27148438,0.9814453,0.53125,0.65625,0.03125
472,0.07324219,0.2734375,0.96484375,0.1875,0.28125,-0.65625
473,0.07324219,0.2763672,0.9765625,0.3125,-0.09375,-0.46875
474,0.08496094,0.27441406,0.9785156,0.1875,0.03125,0.09375
475,0.07714844,0.26757812,0.9589844,-0.3125,0.03125,0.375
476,0.080078125,0.2763672,0.9785156,0.1875,0.46875,0.03125
477,0.080078125,0.2705078,0.97558594,0.0625,-0.09375,-0.40625
478,0.07910156,0.26367188,0.9736328,0.125,-0.5,-0.28125
479,0.087890625,0.2734375,0.96875,0.3125,-0.34375,0.1875
480,0.07128906,0.27539062,0.96777344,0.25,0.15625,0.25
481,0.08300781,0.27148438,0.96777344,0.34375,-0.15625,0.25
482,0.080078125,0.25878906,0.9628906,0.0625,0.03125,0.4375
483,0.078125,0.27148438,0.9736328,0.34375,0.09375,-0.15625
484,0.06640625,0.2685547,0.98046875,0.3125,-0.03125,-0.15625
485,0.08105469,0.27441406,0.96777344,-0.125,-0.09375,-0.28125
486,0.08105469,0.27246094,0.9658203,0.1875,0.09375,0.03125
487,0.08203125,0.2685547,0.96777344,0.25,0.21875,0.3125
488,0.07421875,0.27734375,0.984375,0.3125,0.34375,0.375
489,0.0859375,0.27246094,0.9746094,0.34375,-0.03125,0.03125
490,0.07910156,0.2626953,0.95996094,0.34375,0.09375,-0.15625
491,0.087890625,0.2763672,0.96875,0.1875,0.09375,-0.15625
492,0.078125,0.28125,0.97753906,0.125,0.03125,0.09375
493,0.07519531,0.2783203,0.9736328,0.125,0.03125,-0.03125
494,0.07519531,0.2734375,0.9746094,-0.0625,-0.09375,-0.03125
495,0.080078125,0.27929688,0.96875,0.25,0.15625,0.3125
496,0.0703125,0.27734375,0.9765625,0.25,-0.03125,0.5
497,0.07910156,0.27539062,0.9746094,0.125,-0.03125,0.375
498,0.076171875,0.27246094,0.96875,0.125,0.03125,0.25
499,0.087890625,0.27148438,0.9785156,0.25,-0.03125,0.4375
500,0.07128906,0.27539062,0.97265625,0.25,0.15625,-0.03125
501,0.078125,0.2763672,0.9765625,0.0625,-0.09375,0.09375
502,0.07128906,0.2705078,0.97558594,0.0,-0.03125,-0.15625
503,0.08105469,0.27246094,0.9658203,0.0,-0.21875,-0.15625
504,0.083984375,0.27441406,0.9746094,0.125,-0.09375,-0.21875
505,0.07519531,0.27148438,0.97558594,0.1875,0.21875,-0.34375
506,0.0859375,0.27246094,0.96875,0.0,-0.21875,-0.09375
507,0.080078125,0.27441406,0.9667969,-0.125,-0.09375,-0.15625
508,0.07714844,0.26953125,0.9746094,-0.125,0.03125,-0.03125
509,0.08496094,0.26367188,0.98046875,-0.0625,0.09375,-0.15625
510,0.07324219,0.28222656,0.9736328,0.1875,0.28125,-0.09375
511,0.07714844,0.26660156,0.96972656,-0.0625,0.15625,0.03125
512,0.078125,0.26953125,0.97753906,-0.125,0.15625,-0.15625
513,0.07714844,0.26953125,0.9638672,0.0,0.40625,-0.28125
514,0.08496094,0.2734375,0.96972656,0.0,0.09375,-0.34375
515,0.076171875,0.2578125,0.9707031,-0.125,-0.03125,-0.03125
516,0.080078125,0.2685547,0.9716797,0.125,0.46875,-0.03125
517,0.07714844,0.26660156,0.9638672,0.125,0.40625,-0.28125
518,0.07519531,0.26367188,0.9785156,0.3125,0.46875,-0.34375
519,0.07128906,0.265625,0.9707031,0.0,0.09375,-0.28125
520,0.08105469,0.26953125,0.9707031,0.0625,0.15625,-0.21875
521,0.08496094,0.2734375,0.9667969,0.0,0.09375,-0.15625
522,0.07910156,0.265625,0.9716797,0.0,0.28125,-0.09375
523,0.08496094,0.26367188,0.9667969,0.125,0.15625,-0.28125
524,0.078125,0.26464844,0.95703125,-0.1875,0.21875,0.03125
525,0.07519531,0.27148438,0.9716797,0.0,0.09375,0.15625
526,0.07324219,0.25878906,0.9707031,0.0,0.34375,0.25
527,0.07714844,0.26464844,0.96972656,-0.0625,0.34375,0.03125
528,0.08203125,0.26367188,0.97265625,0.25,0.09375,-0.15625
529,0.07519531,0.28222656,0.96972656,0.1875,0.28125,-0.03125
530,0.07910156,0.27148438,0.9794922,0.25,0.21875,-0.03125
531,0.087890625,0.2685547,0.9716797,0.0625,0.15625,-0.28125
532,0.08300781,0.2705078,0.9873047,0.34375,0.53125,-0.28125
533,0.07910156,0.26464844,0.97558594,0.1875,0.71875,-0.71875
534,0.072265625,0.265625,0.9765625,0.0,-0.0625,-0.5
535,0.07714844,0.26953125,0.98046875,0.0625,-0.0625,-0.25
536,0.08203125,0.2734375,0.96777344,0.0625,-0.15625,0.0625
537,0.06347656,0.26660156,0.98046875,-0.375,-0.40625,0.25
538,0.076171875,0.2685547,0.97753906,-0.0625,0.0625,0.46875
539,0.07714844,0.26953125,0.97753906,0.125,-0.21875,0.25
540,0.080078125,0.27246094,0.98046875,0.0625,-0.15625,0.25
541,0.07910156,0.27148438,0.96875,0.125,-0.09375,0.0
542,0.0703125,0.27539062,0.9814453,0.0625,-0.28125,-0.1875
543,0.078125,0.27148438,0.97265625,0.1875,-0.09375,0.1875
544,0.07519531,0.27441406,0.9736328,0.1875,-0.0625,0.1875
545,0.072265625,0.27441406,0.97265625,0.0625,-0.21875,0.125
546,0.08105469,0.265625,0.96972656,0.1875,-0.21875,0.0625
547,0.07910156,0.265625,0.97265625,0.125,0.0,0.25
548,0.07519531,0.2734375,0.96777344,0.3125,0.0625,0.125
549,0.076171875,0.26464844,0.9658203,-0.125,-0.34375,0.4375
550,0.08496094,0.27539062,0.97265625,0.125,0.0625,-0.0625
551,0.08496094,0.26367188,0.9785156,0.34375,-0.28125,-0.0625
552,0.07324219,0.27148438,0.96875,-0.0625,-0.28125,-0.375
553,0.08300781,0.28027344,0.9716797,-0.1875,-0.34375,-0.1875
554,0.07519531,0.2685547,0.9667969,0.3125,-0.40625,0.25
555,0.06542969,0.2734375,0.9785156,0.0625,-0.40625,0.59375
556,0.080078125,0.2685547,0.9746094,0.3125,-0.15625,0.375
557,0.083984375,0.2705078,0.9580078,0.34375,-0.09375,0.1875
558,0.07421875,0.27246094,0.96777344,0.40625,-0.34375,0.0625
559,0.07519531,0.27441406,0.98046875,-0.125,-0.53125,0.0
560,0.07324219,0.28320312,0.9794922,-0.1875,-0.34375,0.125
561,0.08105469,0.27441406,0.9824219,0.0625,-0.46875,0.4375
562,0.0703125,0.26367188,0.9765625,0.0,-0.53125,0.4375
563,0.07910156,0.27246094,0.9814453,0.25,-0.21875,0.1875
564,0.078125,0.26953125,0.9814453,0.1875,-0.09375,0.3125
565,0.07910156,0.2685547,0.96484375,0.125,-0.21875,0.25
566,0.08300781,0.26953125,0.9716797,0.0,-0.09375,0.25
567,0.07714844,0.26757812,0.9667969,0.0,-0.21875,0.0625
568,0.083984375,0.27148438,0.97265625,0.1875,0.0,0.375
569,0.080078125,0.2626953,0.9736328,0.3125,-0.34375,0.1875
570,0.083984375,0.2734375,0.9736328,0.3125,-0.0625,0.0625
571,0.08496094,0.26367188,0.96484375,0.0,-0.09375,0.1875
572,0.07324219,0.2763672,0.99316406,0.0625,-0.28125,0.125
573,0.078125,0.2685547,0.9658203,-0.0625,-0.21875,0.3125
574,0.08203125,0.27148438,0.97753906,0.25,0.0,0.4375
575,0.07910156,0.2607422,0.9794922,0.1875,-0.09375,0.1875
576,0.07324219,0.2783203,0.97558594,0.125,-0.40625,0.25
577,0.080078125,0.26953125,0.9580078,0.125,-0.21875,0.375
578,0.083984375,0.265625,0.96875,0.1875,-0.0625,0.3125
579,0.07519531,0.26464844,0.9736328,0.34375,-0.0625,0.375
580,0.08105469,0.27441406,0.9658203,0.0625,-0.21875,0.375
581,0.08203125,0.27246094,0.9824219,0.1875,-0.09375,0.3125
582,0.07714844,0.2705078,0.9746094,0.125,-0.15625,0.25
583,0.08496094,0.27148438,0.9824219,-0.1875,-0.15625,0.375
584,0.07519531,0.27148438,0.9667969,0.0625,-0.15625,0.3125
585,0.08105469,0.26660156,0.9814453,0.0625,-0.21875,0.3125
586,0.07910156,0.2763672,0.98828125,0.125,0.6875,0.0625
587,0.08300781,0.2705078,0.9736328,-0.0625,-0.15625,0.0
588,0.087890625,0.2734375,0.96777344,-0.0625,-0.40625,0.0625
589,0.083984375,0.28222656,0.9902344,-0.5625,0.1875,-0.125
590,0.08203125,0.28027344,0.9628906,0.125,-0.09375,0.0
591,0.0859375,0.26757812,0.96484375,0.0625,-0.28125,0.125
592,0.08691406,0.2685547,0.984375,0.0,0.0625,0.0625
593,0.07714844,0.26464844,0.9716797,0.125,0.4375,0.0625
594,0.078125,0.27148438,0.98339844,-0.0625,-0.15625,-0.1875
595,0.076171875,0.27441406,0.9736328,0.0,0.1875,-0.0625
596,0.07714844,0.27441406,0.9863281,0.125,0.1875,0.125
597,0.078125,0.2783203,0.98339844,-0.125,-0.09375,-0.125
598,0.078125,0.2705078,0.9628906,0.0,-0.21875,-0.0625
599,0.07714844,0.2685547,0.9550781,0.125,0.125,0.1875
600,0.08105469,0.26953125,0.97753906,-0.03125,0.4375,0.0625
601,0.078125,0.2783203,0.97265625,0.03125,0.1875,-0.0625
602,0.078125,0.26953125,0.984375,-0.03125,-0.0625,-0.0625
603,0.08203125,0.26660156,0.9794922,0.03125,0.375,0.125
604,0.080078125,0.2783203,0.9716797,0.09375,0.1875,-0.46875
605,0.07421875,0.27441406,0.96875,-0.09375,-0.0625,-0.34375
606,0.08203125,0.27246094,0.9667969,-0.125,-0.125,-0.34375
607,0.07519531,0.2783203,0.9765625,0.03125,0.0625,-0.34375
608,0.076171875,0.2705078,0.98339844,-0.5,-0.1875,-0.1875
609,0.08496094,0.27246094,0.96972656,0.09375,-0.0625,0.0625
610,0.076171875,0.2685547,0.9785156,0.03125,0.5,0.0
611,0.078125,0.26953125,0.9716797,-0.3125,-0.125,0.125
612,0.080078125,0.2763672,0.9814453,-0.25,-0.25,0.1875
613,0.0859375,0.26953125,0.98535156,-0.3125,0.125,-0.21875
614,0.07128906,0.2685547,0.96972656,0.03125,0.0625,-0.0625
615,0.07714844,0.28027344,0.97753906,-0.09375,-0.1875,-0.21875
616,0.07910156,0.27441406,0.9736328,-0.125,-0.3125,-0.28125
617,0.08105469,0.26660156,0.96777344,0.15625,0.125,0.0
618,0.083984375,0.27441406,0.97558594,-0.03125,0.0,-0.125
619,0.0859375,0.26953125,0.97753906,-0.125,-0.125,0.125
620,0.076171875,0.2685547,0.9736328,0.03125,0.125,0.0
621,0.07910156,0.27148438,0.9814453,-0.03125,0.25,-0.0625
622,0.07910156,0.26464844,0.9765625,-0.125,-0.375,-0.28125
623,0.08496094,0.2607422,0.9628906,0.09375,-0.25,-0.1875
624,0.07910156,0.26757812,0.97265625,0.09375,-0.4375,-0.1875
625,0.08105469,0.26953125,0.98339844,0.03125,-0.59375,-0.0625
626,0.08203125,0.26757812,0.95410156,0.15625,-0.53125,-0.1875
627,0.076171875,0.2705078,0.9736328,0.28125,-0.3125,0.0625
628,0.06933594,0.27148438,0.984375,0.09375,-0.3125,0.3125
629,0.07324219,0.27734375,0.9746094,-0.1875,-0.1875,0.25
630,0.07324219,0.26953125,0.9716797,0.09375,0.0,0.3125
631,0.080078125,0.25976562,0.96972656,-0.03125,-0.25,0.25
632,0.078125,0.2734375,0.9589844,0.15625,-0.375,0.125
633,0.08203125,0.27148438,0.9814453,0.03125,-0.1875,0.0625
634,0.08300781,0.26464844,0.97753906,-0.03125,-0.1875,-0.0625
635,0.07714844,0.265625,0.96484375,0.03125,-0.1875,0.0625
636,0.072265625,0.2705078,0.9765625,0.28125,0.0,0.125
637,0.07714844,0.26757812,0.9746094,0.28125,-0.1875,0.1875
638,0.07421875,0.27148438,0.96777344,-0.09375,-0.3125,0.0625
639,0.078125,0.26953125,0.96875,0.28125,0.375,-0.125
640,0.078125,0.26660156,0.98535156,0.15625,0.0625,0.0
641,0.080078125,0.27148438,0.9794922,0.34375,-0.1875,0.1875
642,0.08886719,0.27929688,0.9736328,0.09375,-0.3125,0.25
643,0.07421875,0.26757812,0.9863281,0.15625,-0.3125,0.1875
644,0.08496094,0.2685547,0.9658203,-0.03125,-0.3125,0.3125
645,0.06933594,0.26367188,0.97558594,0.28125,-0.125,0.5
646,0.080078125,0.2734375,0.9716797,0.40625,0.0,0.8125
647,0.08300781,0.27148438,0.9785156,0.15625,-0.1875,0.375
648,0.09082031,0.26660156,0.9785156,0.09375,-0.1875,0.0
649,0.087890625,0.27246094,0.9707031,-0.03125,-0.375,0.0625
650,0.087890625,0.27539062,0.9658203,-0.03125,-0.25,-0.125
651,0.07910156,0.2783203,0.9814453,-0.125,-0.1875,-0.125
652,0.080078125,0.26953125,0.98828125,-0.09375,-0.125,-0.0625
653,0.076171875,0.27539062,0.9716797,-0.25,0.0625,-0.125
654,0.083984375,0.26953125,0.9736328,-0.03125,-0.1875,-0.1875
655,0.078125,0.2763672,0.9873047,-0.25,-0.3125,0.0625
656,0.07324219,0.26171875,0.9638672,0.21875,0.0,0.0
657,0.08984375,0.26953125,0.9716797,0.21875,0.0,-0.28125
658,0.07324219,0.27246094,0.97558594,0.09375,0.3125,-0.40625
659,0.07519531,0.27246094,0.9589844,-0.375,-0.125,-0.40625
660,0.08300781,0.25878906,0.9824219,-0.125,-0.1875,-0.28125
661,0.09375,0.27539062,0.96972656,-0.09375,-0.0625,0.0
662,0.0703125,0.27148438,0.97558594,-0.1875,0.375,0.0625
663,0.08105469,0.26953125,0.96875,-0.25,0.0625,-0.1875
664,0.07714844,0.2685547,0.9785156,-0.125,0.1875,-0.34375
665,0.07421875,0.265625,0.9716797,0.21875,0.5,-0.34375
666,0.078125,0.27441406,0.9707031,-0.09375,0.0,-0.46875
667,0.072265625,0.28125,0.9814453,-0.375,-0.1875,-0.65625
668,0.08203125,0.26953125,0.96972656,-0.5,0.125,-0.21875
669,0.07910156,0.26367188,0.9785156,-0.09375,0.1875,0.1875
670,0.078125,0.2705078,0.9560547,0.15625,0.3125,0.25
671,0.07421875,0.27441406,0.9638672,-0.1875,0.0,0.0
672,0.08984375,0.26953125,0.97753906,-0.1875,0.125,-0.0625
673,0.08203125,0.27246094,0.984375,-0.03125,0.1875,-0.0625
674,0.07519531,0.26757812,0.9736328,-0.125,0.75,-0.40625
675,0.07910156,0.26953125,0.9707031,-0.125,-0.0625,-0.59375
676,0.07324219,0.26464844,0.9785156,-0.09375,0.0,-0.71875
677,0.076171875,0.27929688,0.9658203,-0.25,-0.1875,-0.53125
678,0.08203125,0.2783203,0.9658203,0.03125,0.0,-0.21875
679,0.080078125,0.26757812,0.9765625,-0.125,0.125,0.0
680,0.076171875,0.26953125,0.97265625,-0.03125,0.0625,0.0625
681,0.07910156,0.26757812,0.97753906,0.03125,0.125,0.0625
682,0.07714844,0.26464844,0.9794922,-0.03125,-0.0625,-0.0625
683,0.08105469,0.2734375,0.9638672,-0.1875,-0.125,-0.34375
684,0.083984375,0.265625,0.9667969,-0.25,-0.25,-0.28125
685,0.07519531,0.28027344,0.97265625,0.21875,0.25,-0.28125
686,0.068359375,0.2578125,0.9638672,-0.09375,-0.3125,-0.28125
687,0.08105469,0.27539062,0.96777344,0.15625,-0.125,-0.40625
688,0.07421875,0.27734375,0.9736328,0.21875,0.0,-0.40625
689,0.07128906,0.27246094,0.9746094,-0.4375,-0.1875,-0.1875
690,0.07910156,0.26464844,0.96484375,-0.09375,-0.3125,0.125
691,0.07910156,0.26367188,0.9785156,0.03125,-0.125,0.25
692,0.07714844,0.265625,0.9638672,-0.25,0.125,-0.34375
693,0.07128906,0.26953125,0.97753906,-0.03125,-0.71875,-0.46875
694,0.08300781,0.2685547,0.96777344,-0.3125,-0.3125,-0.28125
695,0.0703125,0.27148438,0.97753906,-0.03125,-0.125,0.1875
696,0.0859375,0.27148438,0.97265625,0.03125,-0.59375,0.375
697,0.072265625,0.2685547,0.9765625,0.09375,-0.4375,0.375
698,0.07519531,0.27148438,0.9716797,0.46875,-0.3125,0.15625
699,0.083984375,0.28125,0.9794922,0.15625,-0.4375,-0.09375
700,0.08300781,0.2705078,0.96191406,-0.15625,-0.5,0.03125
701,0.0703125,0.27246094,0.97265625,0.34375,-0.1875,0.46875
702,0.080078125,0.26464844,0.9746094,-0.1875,0.1875,0.40625
703,0.07714844,0.27148438,0.9667969,0.09375,-0.25,-0.03125
704,0.08203125,0.26953125,0.98046875,0.03125,-0.25,0.03125
705,0.08691406,0.26464844,0.97558594,0.09375,0.0,-0.03125
706,0.080078125,0.2705078,0.98046875,0.46875,0.0625,0.21875
707,0.08105469,0.26367188,0.9716797,0.15625,0.125,0.28125
708,0.08105469,0.26953125,0.97265625,0.03125,-0.25,0.34375
709,0.087890625,0.265625,0.9824219,0.09375,-0.0625,0.40625
710,0.07910156,0.2705078,0.96972656,0.28125,0.1875,0.15625
711,0.07714844,0.26660156,0.96777344,0.15625,-0.125,0.15625
712,0.08105469,0.26757812,0.96484375,0.09375,0.125,-0.03125
713,0.078125,0.26953125,0.9814453,0.03125,-0.1875,0.15625
714,0.07519531,0.26660156,0.97265625,0.21875,-0.25,0.09375
715,0.078125,0.26464844,0.96972656,0.03125,-0.3125,0.21875
716,0.08984375,0.2783203,0.9716797,-0.03125,-0.0625,0.34375
717,0.078125,0.27539062,0.9765625,0.15625,0.0,0.40625
718,0.08496094,0.2734375,0.97265625,0.15625,-0.0625,0.625
719,0.08691406,0.2783203,0.9814453,0.09375,0.0,0.40625
720,0.08203125,0.2685547,0.97265625,0.21875,-0.125,0.21875
721,0.078125,0.2578125,0.9638672,0.03125,-0.0625,-0.40625
722,0.076171875,0.27539062,0.9736328,0.21875,0.0,-0.21875
723,0.08203125,0.27441406,0.9707031,0.09375,-0.0625,-0.03125
724,0.07910156,0.27441406,0.9824219,0.09375,0.125,0.21875
725,0.07519531,0.2705078,0.9667969,0.03125,0.125,0.09375
