sample_no,accel_x,accel_y,accel_z,gyro_x,gyro_y,gyro_z
0,-1.0205078,0.13378906,-0.09667969,-1.59375,-1.15625,-0.15625
1,-1.0205078,0.12597656,-0.095703125,-2.9375,0.75,0.46875
2,-0.97753906,0.15917969,-0.12988281,2.1875,-1.15625,-0.28125
3,-1.0166016,0.14257812,-0.09765625,0.25,1.0625,-0.34375
4,-1.0234375,0.13476562,-0.10839844,-1.59375,1.84375,0.5625
5,-1.0078125,0.14453125,-0.12890625,-3.78125,1.21875,-1.0
6,-1.0039062,0.13867188,-0.123046875,-0.9375,0.0,-0.71875
7,-1.0126953,0.13867188,-0.1328125,0.0625,0.9375,-0.15625
8,-1.0117188,0.140625,-0.12695312,-0.4375,1.28125,0.21875
9,-1.0,0.13867188,-0.13574219,-2.375,2.03125,-0.34375
10,-1.0078125,0.14648438,-0.12109375,-1.59375,1.0,-0.03125
11,-1.0136719,0.12109375,-0.13476562,-0.4375,1.15625,0.5
12,-1.0048828,0.14160156,-0.13964844,-0.0625,0.8125,0.15625
13,-1.0039062,0.12988281,-0.13183594,-1.28125,0.6875,0.15625
14,-1.0,0.14160156,-0.13867188,-0.4375,0.625,-0.03125
15,-1.0058594,0.13867188,-0.14746094,1.15625,0.125,0.46875
16,-1.0029297,0.140625,-0.14941406,1.75,-0.28125,0.21875
17,-1.0019531,0.13769531,-0.14941406,0.59375,0.6875,0.28125
18,-1.0029297,0.13378906,-0.13964844,0.0625,0.625,0.5
19,-1.0039062,0.14355469,-0.125,-0.625,-0.1875,0.5
20,-1.0039062,0.14257812,-0.14355469,-1.03125,-0.1875,-0.40625
21,-1.0009766,0.13964844,-0.14648438,-1.0,-0.65625,0.15625
22,-1.0039062,0.13671875,-0.13183594,-1.09375,-0.53125,0.34375
23,-1.0078125,0.13574219,-0.13085938,-0.8125,-0.1875,-0.15625
24,-1.0019531,0.13378906,-0.12597656,-0.75,-0.28125,-0.15625
25,-0.99609375,0.15234375,-0.13964844,-1.40625,-0.21875,0.40625
26,-1.0058594,0.14257812,-0.13476562,-1.40625,0.1875,0.09375
27,-1.0107422,0.14257812,-0.13964844,-1.53125,0.9375,-0.15625
28,-1.0078125,0.14941406,-0.12695312,-1.34375,0.1875,-0.40625
29,-1.0087891,0.13867188,-0.13378906,-2.15625,-0.59375,-0.53125
30,-1.0058594,0.14355469,-0.14746094,-1.90625,-0.34375,-0.15625
31,-1.0058594,0.14160156,-0.14648438,-1.21875,0.375,-0.40625
32,-0.9941406,0.13867188,-0.13964844,-0.625,0.25,0.28125
33,-1.0097656,0.13085938,-0.140625,-1.15625,1.0,0.03125
34,-1.0146484,0.13867188,-0.12597656,0.0,0.9375,0.03125
35,-1.0146484,0.13183594,-0.14550781,-0.375,0.375,-0.28125
36,-1.0107422,0.14355469,-0.12890625,-0.9375,-0.78125,-0.21875
37,-1.0048828,0.12988281,-0.14257812,-0.6875,-0.46875,-0.15625
38,-1.0,0.13378906,-0.12988281,0.34375,0.0,0.15625
39,-1.0087891,0.1328125,-0.12695312,1.09375,0.1875,0.03125
40,-1.0029297,0.13476562,-0.13769531,0.59375,-0.53125,-0.40625
41,-0.9980469,0.14550781,-0.140625,1.46875,-1.34375,0.09375
42,-1.0039062,0.1328125,-0.12890625,1.6875,-0.96875,0.03125
43,-1.0009766,0.14160156,-0.14355469,2.0625,-0.0625,-0.09375
44,-1.0009766,0.1484375,-0.13476562,1.46875,-0.40625,0.21875
45,-1.015625,0.13476562,-0.13574219,1.59375,-1.5,0.21875
46,-1.0048828,0.12402344,-0.125,1.9375,-1.40625,0.03125
47,-1.0009766,0.13867188,-0.12792969,3.03125,-0.84375,0.15625
48,-1.0019531,0.15039062,-0.13378906,2.75,-0.90625,-0.21875
49,-1.0087891,0.14746094,-0.13867188,2.0625,-1.21875,0.15625
50,-1.0019531,0.13769531,-0.13085938,1.21875,-1.6875,-0.03125
51,-1.0019531,0.14355469,-0.11816406,-0.6875,-1.5,-0.15625
52,-1.0019531,0.10546875,-0.14355469,1.53125,-2.125,0.28125
53,-0.99316406,0.12890625,-0.13183594,3.28125,-1.40625,-0.59375
54,-1.0087891,0.16015625,-0.13085938,2.6875,-0.96875,-0.53125
55,-0.9980469,0.16015625,-0.12988281,1.625,-0.96875,-0.21875
56,-1.0009766,0.15917969,-0.1328125,0.96875,-0.84375,0.09375
57,-1.0039062,0.15332031,-0.13476562,-0.25,-0.78125,0.34375
58,-1.0009766,0.13769531,-0.14355469,-0.5,-1.28125,0.34375
59,-1.0039062,0.14355469,-0.119140625,0.96875,0.5625,0.03125
60,-1.0126953,0.14257812,-0.12402344,-2.3125,1.0625,-0.15625
61,-0.9951172,0.13476562,-0.13867188,2.3125,-0.53125,0.75
62,-1.0195312,0.1484375,-0.12109375,0.84375,0.4375,-0.34375
63,-1.0009766,0.1484375,-0.12597656,1.03125,-0.125,0.5
64,-1.0048828,0.15429688,-0.13476562,1.15625,-0.96875,0.09375
65,-1.0078125,0.15429688,-0.125,0.84375,-0.53125,-0.15625
66,-1.0078125,0.14257812,-0.13378906,0.71875,-0.46875,0.6875
67,-0.9951172,0.15625,-0.12402344,0.46875,-0.0625,-0.09375
68,-1.0029297,0.16210938,-0.12792969,0.0,-0.28125,0.09375
69,-1.0107422,0.14746094,-0.115234375,-1.71875,0.1875,0.34375
70,-1.0068359,0.13378906,-0.10253906,-0.875,0.1875,0.28125
71,-0.9970703,0.14550781,-0.14160156,0.71875,-1.15625,-0.21875
72,-1.0166016,0.15136719,-0.1328125,-0.5625,0.1875,0.03125
73,-1.0029297,0.14355469,-0.125,-0.75,0.25,0.5
74,-1.0019531,0.14550781,-0.12207031,0.71875,-0.53125,-0.09375
75,-1.0058594,0.13769531,-0.103515625,0.125,-0.46875,-0.40625
76,-1.0078125,0.140625,-0.103515625,0.3125,-1.03125,0.21875
77,-1.0029297,0.13476562,-0.10546875,1.40625,-0.28125,0.34375
78,-1.0068359,0.13769531,-0.1015625,1.09375,-0.40625,-0.78125
79,-1.0029297,0.15917969,-0.111328125,1.875,-0.59375,-0.03125
80,-0.9980469,0.13867188,-0.12402344,0.25,-0.46875,0.03125
81,-1.0175781,0.13769531,-0.125,-0.6875,-0.0625,-0.40625
82,-0.99609375,0.14550781,-0.10839844,1.34375,-0.65625,-0.03125
83,-1.0087891,0.15625,-0.12109375,0.0625,0.3125,0.03125
84,-1.0068359,0.14453125,-0.10839844,-0.625,0.4375,0.15625
85,-0.9980469,0.14355469,-0.111328125,1.75,-0.65625,0.15625
86,-1.0126953,0.14355469,-0.1328125,0.1875,-0.84375,0.09375
87,-1.0078125,0.13769531,-0.12792969,0.1875,-0.0625,0.40625
88,-1.0029297,0.1484375,-0.11328125,-0.8125,0.1875,-0.21875
89,-1.0029297,0.13671875,-0.13476562,-1.53125,-0.65625,-0.28125
90,-1.0087891,0.13378906,-0.10546875,-0.125,-0.34375,0.09375
91,-1.0058594,0.15234375,-0.109375,-0.6875,0.125,0.21875
92,-1.0078125,0.13769531,-0.12402344,-0.5625,0.375,-0.28125
93,-1.0058594,0.14453125,-0.11425781,0.78125,0.875,0.40625
94,-1.0107422,0.1484375,-0.12109375,0.125,0.875,0.40625
95,-1.0048828,0.14355469,-0.13476562,-0.5625,0.25,0.15625
96,-1.0,0.14160156,-0.12109375,1.21875,0.6875,0.5
97,-1.0029297,0.14160156,-0.115234375,0.3125,0.75,0.15625
98,-1.0058594,0.15332031,-0.111328125,-0.1875,-0.0625,-0.09375
99,-1.0097656,0.14453125,-0.12011719,1.34375,0.1875,0.5625
100,-1.0087891,0.14648438,-0.1328125,-0.3125,0.9375,0.03125
101,-1.0136719,0.14355469,-0.12011719,0.46875,-0.125,0.09375
102,-1.0039062,0.14160156,-0.12402344,0.40625,-0.1875,0.5625
103,-1.0087891,0.14746094,-0.12695312,-0.9375,0.5625,0.15625
104,-1.0107422,0.140625,-0.1015625,-1.59375,0.6875,0.03125
105,-1.0019531,0.14257812,-0.111328125,0.125,0.0,0.21875
106,-1.0048828,0.140625,-0.14453125,0.0,0.1875,-0.46875
107,-1.0107422,0.15039062,-0.119140625,-0.125,0.4375,0.75
108,-1.0029297,0.14648438,-0.125,-0.5625,-0.0625,0.15625
109,-1.0029297,0.14550781,-0.12890625,-0.25,0.3125,-0.40625
110,-1.0126953,0.13671875,-0.12597656,-0.75,0.75,0.8125
111,-1.0009766,0.14257812,-0.15234375,0.71875,0.5,0.28125
112,-1.0136719,0.14160156,-0.14160156,-0.25,0.4375,-0.15625
113,-1.0039062,0.14453125,-0.125,-0.5625,-0.0625,0.09375
114,-1.0048828,0.14550781,-0.12597656,0.90625,-0.84375,-0.09375
115,-1.0048828,0.15136719,-0.11621094,0.1875,0.375,0.15625
116,-1.0039062,0.140625,-0.12011719,0.59375,0.25,0.40625
117,-1.0068359,0.14453125,-0.1328125,1.8125,0.375,-0.15625
118,-1.0078125,0.13867188,-0.12597656,1.03125,1.0,0.40625
119,-1.0068359,0.14746094,-0.12207031,1.28125,0.0625,0.28125
120,-0.98535156,0.16015625,-0.13378906,1.6875,-0.1875,-0.15625
121,-1.0029297,0.15039062,-0.12890625,-0.3125,0.6875,0.40625
122,-1.0117188,0.15625,-0.119140625,-0.3125,0.125,0.21875
123,-1.0019531,0.16210938,-0.13476562,-1.0,-0.21875,-0.15625
124,-1.0087891,0.14257812,-0.12988281,-2.28125,1.125,0.15625
125,-1.0058594,0.14257812,-0.12109375,-1.15625,0.4375,0.21875
126,-1.0009766,0.15136719,-0.14160156,-0.75,-0.1875,0.34375
127,-1.0146484,0.14550781,-0.13867188,-0.4375,1.125,0.03125
128,-1.0175781,0.15429688,-0.14355469,-0.4375,1.0,0.34375
129,-1.0048828,0.14941406,-0.13964844,-2.28125,1.0,0.28125
130,-1.0048828,0.13964844,-0.11328125,-1.34375,1.15625,-0.21875
131,-1.0009766,0.15136719,-0.13476562,0.125,-0.21875,0.09375
132,-1.0175781,0.140625,-0.125,-0.9375,0.125,-0.03125
133,-1.0029297,0.1484375,-0.14160156,-0.0625,0.625,0.09375
134,-1.0019531,0.15722656,-0.14160156,0.78125,-0.21875,-0.09375
135,-1.0039062,0.15820312,-0.13574219,-0.5,0.1875,0.03125
136,-1.0039062,0.15234375,-0.12207031,-0.3125,0.25,0.21875
137,-1.0058594,0.15234375,-0.13964844,0.59375,-0.53125,0.21875
138,-1.0058594,0.15234375,-0.13867188,0.65625,0.1875,0.09375
139,-1.0078125,0.15429688,-0.11816406,0.0625,-0.1875,0.28125
140,-0.9980469,0.15820312,-0.13476562,0.46875,-0.96875,0.03125
141,-1.0019531,0.140625,-0.14550781,1.46875,-0.1875,-0.21875
142,-1.0117188,0.1484375,-0.13671875,1.15625,-0.34375,0.40625
143,-1.0048828,0.15136719,-0.13183594,0.0625,-0.34375,0.09375
144,-1.0019531,0.13867188,-0.14550781,0.96875,-0.40625,-0.15625
145,-1.0029297,0.14453125,-0.12011719,-0.375,-0.46875,-0.28125
146,-1.0048828,0.1484375,-0.12890625,-0.9375,-0.84375,-0.15625
147,-1.0,0.14257812,-0.13378906,-1.0,-1.15625,-0.03125
148,-0.9970703,0.14550781,-0.14648438,0.0,-0.125,-0.21875
149,-1.0078125,0.15722656,-0.140625,-0.8125,-0.34375,0.09375
150,-1.0048828,0.14453125,-0.14355469,-0.75,-0.28125,-0.03125
151,-1.0117188,0.14160156,-0.13183594,0.90625,0.0,0.28125
152,-1.0048828,0.15429688,-0.14550781,-0.875,-0.40625,-0.34375
153,-1.0058594,0.15234375,-0.13671875,-0.375,-0.21875,0.09375
154,-1.0,0.14746094,-0.123046875,-0.5625,-0.1875,-0.09375
155,-0.99902344,0.15332031,-0.125,-0.75,-0.84375,-0.09375
156,-0.9941406,0.13867188,-0.12597656,0.3125,-0.125,-0.15625
157,-1.0029297,0.15820312,-0.12109375,-0.5,-0.1875,0.03125
158,-1.0166016,0.140625,-0.14550781,-0.75,-0.46875,-0.03125
159,-0.9902344,0.15332031,-0.13574219,-0.125,-0.46875,-0.53125
160,-0.9921875,0.15332031,-0.13574219,-0.0625,-0.40625,-0.28125
161,-1.0068359,0.14355469,-0.11230469,-0.8125,-0.84375,0.09375
162,-0.9970703,0.13769531,-0.12695312,0.125,-0.46875,-0.53125
163,-1.0107422,0.14941406,-0.115234375,-0.375,0.125,-0.46875
164,-1.0078125,0.13769531,-0.11035156,-0.875,-0.53125,0.03125
165,-1.0009766,0.14941406,-0.11425781,0.65625,0.4375,-0.65625
166,-1.0048828,0.15332031,-0.13085938,0.0,-0.53125,-0.21875
167,-0.99902344,0.14355469,-0.1171875,0.84375,-0.46875,-0.03125
168,-1.0048828,0.13671875,-0.13378906,-1.0,-0.1875,0.03125
169,-1.0048828,0.14941406,-0.13183594,-0.4375,-0.40625,0.15625
170,-1.0068359,0.14453125,-0.12402344,-0.25,-1.15625,0.46875
171,-1.0019531,0.15625,-0.13964844,-1.03125,-0.78125,-0.28125
172,-1.0048828,0.14550781,-0.12207031,-1.46875,-1.03125,0.09375
173,-1.0126953,0.140625,-0.12402344,-1.09375,-0.59375,0.28125
174,-0.9970703,0.14648438,-0.14550781,0.0,-0.40625,0.09375
175,-1.0126953,0.14648438,-0.140625,-1.15625,-0.53125,0.09375
176,-1.0078125,0.12792969,-0.10839844,-0.875,-1.28125,0.21875
177,-0.9921875,0.14941406,-0.12792969,0.0,-0.84375,-0.21875
178,-1.0039062,0.1484375,-0.11425781,-1.65625,-0.21875,-0.15625
179,-0.99609375,0.15136719,-0.115234375,0.1875,-0.96875,0.09375
180,-0.99902344,0.15234375,-0.12988281,-0.5,-1.28125,-0.15625
181,-1.0068359,0.14355469,-0.115234375,-1.0,-0.21875,-0.09375
182,-1.0009766,0.15429688,-0.12207031,1.9375,-0.40625,0.03125
183,-1.0205078,0.16308594,-0.12597656,-1.03125,0.125,-0.09375
184,-0.99609375,0.13769531,-0.13574219,0.125,-0.90625,0.46875
185,-1.0039062,0.15234375,-0.12988281,-0.875,-0.1875,-0.40625
186,-1.0126953,0.14160156,-0.125,-0.875,-0.28125,0.03125
187,-0.9980469,0.15234375,-0.13476562,0.40625,-0.34375,-0.21875
188,-1.0068359,0.13574219,-0.12890625,-0.625,0.3125,0.09375
189,-0.9980469,0.14453125,-0.1171875,-0.0625,-0.21875,0.03125
190,-1.0097656,0.14648438,-0.13183594,0.46875,-0.28125,-0.53125
191,-1.0,0.14355469,-0.125,0.40625,0.5,0.21875
192,-1.0097656,0.1484375,-0.13378906,0.90625,-0.65625,0.21875
193,-1.0039062,0.140625,-0.12988281,0.53125,0.375,-0.40625
194,-1.0048828,0.1484375,-0.12011719,0.3125,-0.53125,0.03125
195,-1.0029297,0.15429688,-0.13964844,-1.09375,0.0625,-0.71875
196,-1.0097656,0.16503906,-0.13378906,-1.71875,0.5,-0.53125
197,-1.0097656,0.16113281,-0.13183594,-1.96875,-0.90625,-0.28125
198,-0.9921875,0.15234375,-0.14453125,-1.46875,-0.71875,0.15625
199,-1.0146484,0.14453125,-0.13378906,-2.875,0.125,0.40625
200,-1.0136719,0.14941406,-0.12695312,-3.5,0.4375,-0.21875
201,-1.0058594,0.13671875,-0.10644531,-3.71875,-0.46875,0.03125
202,-1.0146484,0.13671875,-0.12890625,-3.375,-0.46875,-0.71875
203,-1.0,0.12988281,-0.12011719,-2.5,-0.96875,-1.125
204,-0.9980469,0.14941406,-0.12011719,-0.6875,-1.15625,-0.53125
205,-1.0234375,0.13476562,-0.111328125,-0.875,0.0625,0.03125
206,-1.0068359,0.14648438,-0.10839844,-0.6875,0.0625,-0.34375
207,-1.0029297,0.15429688,-0.12207031,-0.625,-0.21875,-0.71875
208,-1.0058594,0.13867188,-0.12402344,-1.65625,0.0625,-0.34375
209,-1.0117188,0.1484375,-0.10546875,-1.0,0.125,0.03125
210,-1.0058594,0.15429688,-0.115234375,0.59375,-0.78125,-0.65625
211,-1.0097656,0.15039062,-0.11816406,-1.78125,-0.59375,-0.46875
212,-0.99902344,0.13476562,-0.12109375,-0.9375,-0.46875,0.34375
213,-0.9980469,0.14160156,-0.14746094,-0.5,0.125,-0.34375
214,-1.0185547,0.13964844,-0.10644531,-0.1875,0.3125,0.03125
215,-0.9970703,0.15429688,-0.125,0.65625,-0.125,-0.15625
216,-1.0048828,0.13574219,-0.11425781,-0.4375,0.125,-0.53125
217,-1.0126953,0.13769531,-0.11621094,0.78125,0.0625,0.15625
218,-1.0039062,0.14941406,-0.11328125,0.0625,0.1875,-0.28125
219,-1.0166016,0.14257812,-0.12597656,-1.15625,-0.125,-0.59375
220,-1.0078125,0.13867188,-0.10839844,0.125,-1.46875,0.03125
221,-0.9980469,0.15234375,-0.12792969,0.65625,-1.625,-0.15625
222,-1.0107422,0.12988281,-0.12890625,0.0,1.0,-0.40625
223,-1.0185547,0.140625,-0.11621094,0.0,0.1875,0.625
224,-1.0019531,0.14355469,-0.12890625,0.71875,-0.84375,-0.03125
225,-1.0058594,0.12792969,-0.13671875,0.40625,0.375,0.03125
226,-1.0126953,0.15625,-0.10644531,-1.09375,-0.125,0.5
227,-1.0019531,0.12988281,-0.13476562,-2.03125,-0.71875,-0.78125
228,-1.0009766,0.13671875,-0.125,0.84375,0.0625,-0.03125
229,-1.015625,0.15136719,-0.12011719,-0.625,-0.21875,-0.03125
230,-1.0126953,0.13574219,-0.115234375,0.0625,-1.6875,-0.34375
231,-0.9980469,0.13476562,-0.12695312,1.8125,-0.90625,-0.59375
232,-0.99609375,0.15234375,-0.11816406,0.40625,-0.1875,-0.09375
233,-1.0175781,0.15234375,-0.10449219,0.46875,-0.65625,0.28125
234,-1.0117188,0.14550781,-0.119140625,-0.9375,-0.28125,-0.71875
235,-1.0039062,0.15234375,-0.111328125,-1.53125,0.75,0.15625
236,-1.015625,0.13378906,-0.12792969,-2.28125,-0.40625,0.34375
237,-1.0126953,0.12597656,-0.11230469,-1.40625,-0.0625,-0.78125
238,-0.9951172,0.15527344,-0.10839844,-1.03125,-0.34375,-0.59375
239,-1.0029297,0.12890625,-0.109375,-1.53125,-0.28125,-0.09375
240,-1.0097656,0.13769531,-0.125,-0.625,-0.125,-0.28125
241,-0.99316406,0.14648438,-0.12402344,-0.3125,-0.34375,-0.03125
242,-1.0117188,0.14160156,-0.119140625,-0.8125,0.3125,-0.40625
243,-1.0097656,0.14355469,-0.111328125,0.3125,0.0625,-0.09375
244,-1.0029297,0.14550781,-0.12792969,-1.15625,0.0625,-0.21875
245,-1.0,0.140625,-0.10839844,-0.6875,0.5625,-0.15625
246,-1.0117188,0.14257812,-0.10644531,0.3125,0.9375,0.09375
247,-1.0029297,0.13867188,-0.11328125,-0.125,0.5,0.6875
248,-1.0166016,0.14453125,-0.10839844,0.0,0.25,-0.40625
249,-1.0058594,0.14160156,-0.11816406,-0.625,0.375,-0.28125
250,-1.0078125,0.13867188,-0.11425781,-1.53125,-0.46875,-0.46875
251,-0.9873047,0.14160156,-0.14355469,-1.46875,0.25,-0.84375
252,-1.0097656,0.15332031,-0.1171875,-1.78125,0.1875,-0.34375
253,-1.0097656,0.14257812,-0.08886719,-1.0,-0.96875,-0.15625
254,-1.0029297,0.13574219,-0.103515625,-1.03125,-0.40625,-0.34375
255,-0.9951172,0.13769531,-0.12011719,-1.15625,0.125,-0.15625
256,-1.0117188,0.13867188,-0.12109375,0.1875,-0.125,0.21875
257,-1.0048828,0.12988281,-0.12695312,-0.375,-0.34375,-0.28125
258,-1.0058594,0.12207031,-0.12597656,0.125,-0.1875,-0.09375
259,-1.0136719,0.14257812,-0.125,-0.1875,-0.125,-0.03125
260,-1.0107422,0.13671875,-0.12792969,0.125,-0.34375,0.21875
261,-1.0078125,0.13964844,-0.11035156,0.0625,-0.46875,-0.28125
262,-1.0019531,0.1328125,-0.12597656,0.0625,-0.28125,0.21875
263,-1.0136719,0.14160156,-0.115234375,-0.0625,-0.125,0.03125
264,-1.0029297,0.1484375,-0.13183594,1.03125,-1.21875,0.34375
265,-1.0,0.13476562,-0.09472656,0.125,-0.21875,-0.15625
266,-1.0,0.15429688,-0.119140625,-0.0625,-0.84375,0.28125
267,-1.0029297,0.14453125,-0.119140625,-0.5,-0.21875,0.15625
268,-1.0087891,0.14550781,-0.111328125,-0.6875,0.1875,0.15625
269,-1.0097656,0.14453125,-0.119140625,-1.65625,-0.65625,0.28125
270,-1.0058594,0.13476562,-0.111328125,-0.75,-0.40625,0.09375
271,-1.0087891,0.14746094,-0.10253906,-1.09375,-0.34375,-0.53125
272,-0.9980469,0.15917969,-0.119140625,0.71875,-0.78125,0.15625
273,-1.0087891,0.14257812,-0.111328125,-1.09375,-0.34375,0.03125
274,-1.0166016,0.13769531,-0.10839844,-0.3125,-0.0625,0.09375
275,-1.0039062,0.15625,-0.11621094,-0.125,0.0625,-0.21875
276,-1.0185547,0.13867188,-0.095703125,-1.78125,-0.28125,-0.09375
277,-1.0097656,0.14453125,-0.11035156,-1.15625,-1.21875,-0.53125
278,-0.99902344,0.140625,-0.10839844,-0.5625,-1.40625,-0.53125
279,-1.0146484,0.15136719,-0.11328125,-0.5625,-0.59375,-0.15625
280,-1.0068359,0.14160156,-0.1015625,-0.3125,-0.21875,-0.28125
281,-0.9951172,0.14550781,-0.111328125,-1.46875,0.375,-0.59375
282,-1.0195312,0.13183594,-0.09667969,-1.40625,-0.0625,0.15625
283,-1.0,0.1484375,-0.1015625,-0.6875,-0.46875,-0.28125
284,-1.0029297,0.12890625,-0.10058594,-1.03125,0.0625,-0.84375
285,-1.0058594,0.13671875,-0.11035156,0.96875,0.1875,0.6875
286,-1.0117188,0.13867188,-0.11328125,0.53125,0.0625,0.15625
287,-1.0126953,0.13964844,-0.09863281,0.46875,0.3125,0.03125
288,-1.0136719,0.15039062,-0.12109375,-0.0625,-0.125,-0.28125
289,-1.0039062,0.14453125,-0.115234375,0.0,0.4375,0.28125
290,-1.0087891,0.13769531,-0.10839844,-0.375,0.8125,0.40625
291,-1.015625,0.14160156,-0.109375,-0.5,0.25,0.15625
292,-1.0166016,0.1328125,-0.111328125,-1.59375,-1.03125,-0.65625
293,-1.0166016,0.13183594,-0.09472656,-3.375,-1.8125,-1.3125
294,-0.9863281,0.14941406,-0.12988281,-3.71875,-2.0625,-1.0
295,-1.0078125,0.13769531,-0.115234375,-2.6875,-0.34375,-0.65625
296,-1.0107422,0.14941406,-0.103515625,-1.65625,0.125,0.03125
297,-1.0087891,0.14257812,-0.11328125,-1.03125,0.75,0.34375
298,-1.0097656,0.15039062,-0.099609375,-1.78125,0.625,-0.09375
299,-1.0166016,0.12890625,-0.09667969,-1.84375,-1.46875,-0.21875
300,-0.9951172,0.15332031,-0.11425781,-1.53125,-0.84375,-0.46875
301,-1.0068359,0.13574219,-0.10546875,-0.8125,0.4375,0.03125
302,-1.0126953,0.14550781,-0.09863281,-2.03125,0.875,0.09375
303,-1.0039062,0.14453125,-0.10839844,-1.84375,0.5,0.46875
304,-1.0087891,0.13476562,-0.12402344,-2.09375,0.9375,0.03125
305,-1.0136719,0.13867188,-0.08886719,-1.65625,0.0,-0.21875
306,-0.9980469,0.1484375,-0.10449219,-1.28125,0.3125,0.28125
307,-1.0009766,0.1328125,-0.10546875,-1.78125,1.21875,0.625
308,-1.0136719,0.140625,-0.10058594,-1.03125,0.8125,0.09375
309,-1.0019531,0.14355469,-0.11035156,0.25,0.125,0.34375
310,-1.0078125,0.13574219,-0.09863281,-1.03125,-0.46875,0.03125
311,-1.0029297,0.14550781,-0.10058594,-0.5,0.4375,0.03125
312,-1.0048828,0.13378906,-0.11816406,-0.1875,0.3125,0.21875
313,-1.0214844,0.14160156,-0.099609375,-0.6875,-0.96875,-0.28125
314,-1.0078125,0.14550781,-0.10839844,-0.25,-0.53125,-0.15625
315,-1.0087891,0.14355469,-0.10546875,-0.0625,-0.78125,-0.59375
316,-0.9970703,0.15625,-0.115234375,0.3125,-0.125,0.09375
317,-0.9902344,0.15527344,-0.103515625,0.0625,0.4375,0.5625
318,-1.0097656,0.140625,-0.10058594,0.71875,0.75,-0.03125
319,-1.0185547,0.15039062,-0.10839844,0.125,0.0,-0.21875
320,-1.0029297,0.140625,-0.12402344,-0.125,-0.1875,0.15625
321,-1.0058594,0.12890625,-0.12402344,0.96875,0.4375,0.21875
322,-1.0175781,0.1484375,-0.08984375,0.53125,0.0,-0.46875
323,-0.9970703,0.15234375,-0.11230469,1.09375,0.0625,0.21875
324,-1.0058594,0.13476562,-0.11425781,1.21875,1.21875,0.28125
325,-1.0136719,0.15039062,-0.11425781,0.34375,1.40625,0.09375
326,-1.0068359,0.15527344,-0.10058594,0.34375,0.3125,-0.15625
327,-1.0097656,0.15332031,-0.111328125,0.0625,0.5625,0.34375
328,-1.0117188,0.14160156,-0.10839844,-0.5625,0.6875,-0.40625
329,-1.0126953,0.15429688,-0.103515625,0.125,-0.28125,0.21875
330,-1.0048828,0.13574219,-0.115234375,-0.1875,0.8125,-0.03125
331,-1.0097656,0.14160156,-0.10839844,0.0,0.125,-0.34375
332,-1.0117188,0.13085938,-0.10546875,-0.3125,-1.28125,-0.78125
333,-1.0078125,0.13183594,-0.11035156,0.46875,-1.28125,-1.0
334,-1.0,0.15332031,-0.12988281,0.46875,-1.03125,-0.65625
335,-1.0039062,0.14941406,-0.10839844,0.84375,0.0,-0.53125
336,-1.0087891,0.14941406,-0.11425781,-0.1875,0.5625,-0.34375
337,-1.015625,0.14257812,-0.103515625,-0.3125,-0.21875,0.28125
338,-1.0039062,0.1328125,-0.119140625,0.96875,0.4375,-0.21875
339,-1.0117188,0.12988281,-0.083984375,-0.25,-0.21875,-0.15625
340,-1.0166016,0.14453125,-0.11230469,-1.09375,-0.28125,-0.03125
341,-1.0019531,0.1484375,-0.125,0.25,-2.1875,-0.21875
342,-0.99316406,0.13769531,-0.10058594,-1.46875,-0.40625,-0.46875
343,-1.0087891,0.13574219,-0.09765625,-2.09375,-0.28125,-0.15625
344,-1.0029297,0.14648438,-0.091796875,0.34375,-1.03125,0.46875
345,-1.0058594,0.1484375,-0.103515625,-1.90625,-0.0625,-0.46875
346,-1.0107422,0.13574219,-0.08984375,-1.59375,-1.34375,-0.21875
347,-0.9970703,0.15136719,-0.13183594,2.3125,-2.0,-0.34375
348,-1.0048828,0.13867188,-0.07910156,1.59375,0.0625,0.46875
349,-1.0029297,0.14160156,-0.08691406,-2.5,3.25,0.5
350,-1.0058594,0.14160156,-0.13671875,-0.875,2.21875,0.15625
351,-1.0214844,0.13085938,-0.08300781,-0.25,-0.28125,0.15625
352,-1.0048828,0.13867188,-0.08496094,-1.84375,-1.8125,-0.875
353,-0.99121094,0.13769531,-0.10644531,-0.5625,-0.34375,-0.59375
354,-1.015625,0.13769531,-0.10644531,0.78125,1.21875,-0.28125
355,-1.0107422,0.15722656,-0.09667969,-1.15625,0.875,-0.21875
356,-1.0126953,0.15136719,-0.09765625,0.84375,-2.375,-0.65625
357,-1.0058594,0.140625,-0.12109375,0.53125,-2.25,-1.0625
358,-1.0048828,0.12011719,-0.09375,1.34375,0.9375,0.40625
359,-1.0107422,0.15039062,-0.10058594,-0.1875,1.15625,0.28125
360,-1.0136719,0.14355469,-0.076171875,-0.1875,-0.1875,0.09375
361,-1.0009766,0.13378906,-0.08105469,-1.53125,-0.71875,-0.53125
362,-0.9980469,0.12792969,-0.10644531,0.59375,-0.65625,0.15625
363,-1.0097656,0.13574219,-0.10253906,0.3125,0.0625,-0.34375
364,-0.9941406,0.15234375,-0.08984375,0.34375,-0.53125,-0.09375
365,-1.0107422,0.13671875,-0.08984375,-0.9375,-0.65625,-0.46875
366,-1.0,0.13671875,-0.107421875,0.25,-0.59375,-0.34375
367,-1.0048828,0.14941406,-0.12402344,-0.3125,-0.65625,-0.34375
368,-1.0058594,0.13867188,-0.087890625,0.125,0.25,0.5625
369,-1.0166016,0.14355469,-0.09082031,-0.8125,-0.125,-0.28125
370,-0.99902344,0.13378906,-0.09863281,-0.6875,-0.53125,-0.03125
371,-1.0019531,0.13476562,-0.10253906,0.84375,0.0625,0.15625
372,-1.0214844,0.13867188,-0.09472656,-0.5,-0.40625,-0.03125
373,-1.0019531,0.15136719,-0.1015625,-1.71875,-0.34375,-0.28125
374,-1.0058594,0.13378906,-0.111328125,0.0625,0.125,0.75
375,-1.0146484,0.13769531,-0.099609375,-1.09375,0.375,-0.34375
376,-1.0009766,0.14160156,-0.080078125,0.0,0.0,0.09375
377,-1.0146484,0.14160156,-0.12207031,0.1875,0.25,0.40625
378,-1.0136719,0.12695312,-0.08105469,-0.875,-0.96875,-0.46875
379,-1.0009766,0.13574219,-0.0859375,-0.75,-1.625,-0.59375
380,-0.9902344,0.15136719,-0.115234375,-0.9375,0.3125,-0.40625
381,-1.0117188,0.15429688,-0.083984375,0.1875,0.375,0.34375
382,-0.99609375,0.14355469,-0.09667969,-2.03125,0.4375,-0.71875
383,-1.0,0.15136719,-0.095703125,0.90625,0.4375,0.21875
384,-1.0107422,0.13671875,-0.109375,-2.3125,0.875,-0.28125
385,-1.0166016,0.12792969,-0.08691406,-0.625,0.0,-0.03125
386,-1.0097656,0.13574219,-0.103515625,0.40625,0.9375,-0.21875
387,-1.0126953,0.12695312,-0.09863281,-0.125,1.15625,-0.46875
388,-1.0117188,0.14550781,-0.09667969,0.0625,0.1875,-0.28125
389,-1.0029297,0.13867188,-0.119140625,0.34375,0.4375,-0.21875
390,-1.0126953,0.12695312,-0.11035156,0.53125,1.46875,0.21875
391,-1.0107422,0.13769531,-0.107421875,0.84375,0.875,0.03125
392,-1.0126953,0.14550781,-0.095703125,0.34375,0.1875,-0.15625
393,-1.0097656,0.13769531,-0.103515625,0.40625,0.4375,-0.03125
394,-0.9980469,0.14550781,-0.111328125,1.75,0.125,0.28125
395,-1.0205078,0.14160156,-0.099609375,0.96875,0.5,0.34375
396,-1.0019531,0.15234375,-0.091796875,1.21875,0.375,0.15625
397,-1.0107422,0.12109375,-0.10644531,0.46875,0.4375,0.21875
398,-1.0146484,0.14160156,-0.109375,0.65625,-0.46875,0.15625
399,-1.0087891,0.13769531,-0.10449219,0.25,-0.21875,-0.34375
400,-1.0078125,0.14550781,-0.11328125,1.34375,-0.125,0.21875
401,-1.0078125,0.1484375,-0.099609375,0.3125,0.1875,-0.03125
402,-1.0048828,0.13867188,-0.099609375,0.34375,-0.0625,0.03125
403,-1.0087891,0.14257812,-0.10839844,-0.25,-0.34375,0.03125
404,-0.9970703,0.14941406,-0.115234375,0.3125,0.25,-0.03125
405,-1.0087891,0.14746094,-0.10546875,-0.25,0.3125,0.03125
406,-1.0097656,0.15039062,-0.0859375,-0.5625,0.0625,0.09375
407,-1.0058594,0.140625,-0.111328125,0.0,0.5625,-0.28125
408,-1.015625,0.14453125,-0.09375,-0.1875,0.0,0.09375
409,-1.0009766,0.15234375,-0.10546875,-0.5625,-0.21875,0.15625
410,-1.0195312,0.14550781,-0.119140625,0.25,0.125,-0.09375
411,-1.0097656,0.12695312,-0.09472656,-0.3125,0.125,-0.03125
412,-1.0029297,0.15722656,-0.11035156,-0.4375,0.125,0.09375
413,-1.0185547,0.12890625,-0.12109375,-0.4375,0.4375,-0.28125
414,-1.0146484,0.14550781,-0.09082031,0.34375,-0.1875,0.15625
415,-1.0048828,0.14550781,-0.111328125,-0.125,-0.125,0.15625
416,-1.0136719,0.13769531,-0.09667969,0.34375,0.1875,-0.09375
417,-1.0126953,0.13574219,-0.10644531,1.15625,-0.34375,0.5
418,-1.0097656,0.15136719,-0.1015625,0.25,0.125,-0.15625
419,-1.0107422,0.12988281,-0.08984375,-0.0625,0.1875,0.09375
420,-1.0068359,0.15527344,-0.12109375,0.25,-0.21875,-0.46875
421,-1.0058594,0.13574219,-0.11035156,0.40625,-0.21875,0.21875
422,-1.0097656,0.1484375,-0.09667969,1.09375,-0.1875,0.09375
423,-1.0097656,0.14550781,-0.08300781,0.25,-0.34375,-0.40625
424,-1.0029297,0.14257812,-0.09863281,-0.125,-0.0625,0.03125
425,-1.0087891,0.14648438,-0.09863281,-0.0625,0.0,-0.15625
426,-1.0058594,0.13671875,-0.11035156,-0.3125,-0.1875,0.03125
427,-1.0078125,0.15234375,-0.1171875,0.0,-0.1875,-0.28125
428,-1.0009766,0.13378906,-0.087890625,0.0,-0.125,0.09375
429,-1.0048828,0.1484375,-0.11425781,-0.3125,0.3125,-0.15625
430,-1.0097656,0.140625,-0.11621094,0.25,0.5,0.03125
431,-1.0087891,0.13476562,-0.103515625,-0.25,0.0625,-0.53125
432,-1.0097656,0.140625,-0.11621094,-0.0625,-0.0625,0.21875
433,-0.99902344,0.13183594,-0.10644531,0.40625,0.0,-0.15625
434,-1.0126953,0.14160156,-0.12011719,-0.0625,0.0,-0.21875
435,-0.9980469,0.14941406,-0.10058594,1.625,0.1875,0.46875
436,-1.0136719,0.14550781,-0.11230469,0.34375,0.0625,-0.40625
437,-0.99902344,0.13671875,-0.09863281,0.0,-0.21875,0.15625
438,-1.0029297,0.15234375,-0.125,0.90625,0.0625,-0.15625
439,-1.0146484,0.14257812,-0.11328125,-0.3125,-0.34375,-0.09375
440,-1.0107422,0.140625,-0.103515625,0.46875,-0.0625,0.21875
441,-1.0039062,0.13574219,-0.11816406,0.0,0.0,-0.15625
442,-1.0117188,0.13671875,-0.10644531,0.34375,0.1875,-0.28125
443,-1.0048828,0.140625,-0.08984375,0.40625,-0.125,0.09375
444,-1.0,0.15527344,-0.12695312,0.34375,-0.0625,-0.09375
445,-1.0078125,0.13378906,-0.1015625,0.46875,0.0,-0.15625
446,-0.99902344,0.13574219,-0.10546875,0.46875,0.0625,-0.15625
447,-1.0107422,0.12988281,-0.119140625,0.0,0.1875,-0.15625
448,-1.0009766,0.14941406,-0.1015625,0.0,0.5,-0.03125
449,-1.0097656,0.13867188,-0.11425781,0.25,0.3125,0.09375
450,-1.0048828,0.13769531,-0.09667969,-0.3125,0.3125,0.03125
451,-1.0,0.13867188,-0.109375,0.0,0.5,0.34375
452,-1.0166016,0.14257812,-0.09667969,0.65625,-0.125,0.03125
453,-1.0126953,0.13378906,-0.095703125,-0.3125,0.0,-0.09375
454,-1.0048828,0.14257812,-0.10839844,0.0625,0.25,0.09375
455,-1.0097656,0.15234375,-0.115234375,-1.0,0.625,0.03125
456,-1.0068359,0.14550781,-0.115234375,0.78125,0.4375,0.46875
457,-1.0019531,0.15136719,-0.10449219,-0.5625,0.4375,-0.09375
458,-1.0107422,0.140625,-0.09667969,-1.34375,0.625,0.09375
459,-1.0068359,0.14746094,-0.10644531,-1.03125,0.25,-0.03125
460,-1.0097656,0.14648438,-0.099609375,-1.40625,-0.28125,-0.03125
461,-0.9970703,0.14550781,-0.119140625,-1.90625,0.0,-0.34375
462,-1.0078125,0.14160156,-0.10839844,-0.1875,0.75,0.09375
463,-1.0117188,0.14160156,-0.103515625,-0.9375,0.8125,-0.15625
464,-1.0048828,0.14648438,-0.119140625,-0.6875,0.5625,0.03125
465,-0.9970703,0.13574219,-0.11425781,0.0625,0.75,0.09375
466,-1.0185547,0.14941406,-0.11816406,-0.625,0.625,0.09375
467,-1.0019531,0.14746094,-0.119140625,-1.09375,0.5625,0.5
468,-1.0107422,0.13671875,-0.111328125,-0.375,1.34375,0.03125
469,-1.0175781,0.14941406,-0.10644531,0.25,0.9375,0.03125
470,-1.0136719,0.15625,-0.111328125,-0.1875,-0.53125,0.28125
471,-1.0029297,0.13671875,-0.13574219,0.90625,0.25,-0.15625
472,-1.0009766,0.14453125,-0.111328125,0.59375,1.0625,0.15625
473,-1.0087891,0.14453125,-0.11425781,1.34375,0.375,0.625
474,-1.0019531,0.13769531,-0.11816406,1.75,0.375,0.15625
475,-1.0078125,0.14941406,-0.115234375,1.15625,0.25,0.46875
476,-1.0097656,0.13769531,-0.111328125,1.03125,0.3125,0.28125
477,-1.0126953,0.13867188,-0.11425781,0.90625,-0.1875,-0.34375
478,-1.0068359,0.15039062,-0.10839844,0.34375,-0.40625,0.03125
479,-1.0039062,0.14648438,-0.11035156,0.0,-0.34375,-0.28125
480,-0.9970703,0.14550781,-0.12402344,0.34375,-0.0625,-0.09375
481,-1.0078125,0.15332031,-0.10449219,-0.25,-0.40625,-0.09375
482,-1.0029297,0.14453125,-0.10449219,0.1875,-0.53125,-0.15625
483,-1.0009766,0.14550781,-0.11035156,0.40625,0.3125,-0.21875
484,-1.0146484,0.15332031,-0.109375,-0.375,0.1875,-0.21875
485,-0.99316406,0.15234375,-0.111328125,0.0625,0.1875,0.21875
486,-1.0048828,0.140625,-0.13183594,-0.75,0.875,-0.40625
487,-1.0136719,0.15234375,-0.11230469,-0.25,0.5,-0.09375
488,-0.9902344,0.15136719,-0.13085938,-0.3125,0.625,-0.03125
489,-1.0039062,0.14257812,-0.10253906,0.0625,0.5,-0.21875
490,-1.0136719,0.14160156,-0.12109375,0.0,0.125,-0.21875
491,-1.0087891,0.14257812,-0.12011719,0.125,-0.21875,-0.40625
492,-1.0009766,0.13378906,-0.12402344,1.21875,0.3125,-0.03125
493,-1.015625,0.14257812,-0.1171875,0.78125,-0.1875,0.03125
494,-1.0175781,0.14160156,-0.115234375,1.28125,-0.46875,0.15625
495,-1.0087891,0.14257812,-0.12402344,-0.0625,-0.40625,-0.65625
496,-1.0107422,0.14550781,-0.11621094,0.0,-0.65625,-0.40625
497,-0.9980469,0.15820312,-0.13574219,0.84375,-0.34375,-0.15625
498,-1.0029297,0.13867188,-0.119140625,-0.1875,-0.21875,-0.40625
499,-1.0126953,0.15625,-0.11230469,-0.4375,-0.1875,-0.09375
500,-1.0068359,0.14453125,-0.12890625,0.0625,0.0,-0.03125
501,-1.0039062,0.15332031,-0.111328125,-1.46875,-0.21875,-0.59375
502,-0.9970703,0.14257812,-0.103515625,-1.0,-0.53125,-0.15625
503,-1.015625,0.13867188,-0.10644531,-1.09375,-0.53125,-0.28125
504,-1.0078125,0.13476562,-0.111328125,-1.15625,-0.46875,-0.15625
505,-1.0097656,0.14453125,-0.12011719,-0.75,0.125,-0.15625
506,-1.0136719,0.140625,-0.11230469,-1.03125,0.0,0.15625
507,-1.0048828,0.13671875,-0.11425781,-1.15625,-0.1875,-0.46875
508,-1.0039062,0.1484375,-0.119140625,-1.03125,-0.71875,-0.28125
509,-1.0058594,0.13867188,-0.11816406,0.0625,-1.34375,-0.03125
510,-1.0048828,0.140625,-0.11328125,0.34375,-0.34375,-0.28125
511,-1.0107422,0.1484375,-0.1015625,-0.0625,-0.0625,0.15625
512,-1.0185547,0.13867188,-0.109375,-0.625,-0.40625,0.03125
513,-1.0107422,0.14550781,-0.1171875,-0.375,-0.59375,-0.28125
514,-1.0039062,0.14453125,-0.1015625,-0.1875,-0.46875,-0.09375
515,-1.0019531,0.1484375,-0.12402344,-0.3125,-0.46875,-0.34375
516,-1.0136719,0.1484375,-0.109375,-1.21875,-1.5625,-0.15625
517,-0.9970703,0.14550781,-0.10546875,-1.09375,-0.90625,-0.28125
518,-1.0087891,0.14746094,-0.10839844,-1.46875,-0.46875,-0.34375
519,-1.0058594,0.15917969,-0.10449219,-1.65625,-1.40625,-0.34375
520,-1.0166016,0.13574219,-0.111328125,-1.21875,-1.03125,-0.34375
521,-1.0039062,0.14648438,-0.107421875,-1.84375,-0.53125,-0.59375
522,-1.0166016,0.14257812,-0.10449219,-1.09375,-0.59375,0.03125
523,-1.0058594,0.14160156,-0.12109375,-1.53125,-0.40625,-0.21875
524,-1.0039062,0.1328125,-0.10644531,-1.0,0.1875,-0.34375
525,-1.0087891,0.14648438,-0.103515625,-0.25,0.4375,-0.03125
526,-1.0136719,0.14453125,-0.10839844,-0.6875,-0.53125,-0.21875
527,-1.0039062,0.13476562,-0.109375,0.34375,-0.71875,-0.34375
528,-0.9941406,0.13769531,-0.10253906,0.0,-0.21875,-0.53125
529,-1.0009766,0.14550781,-0.095703125,0.96875,-0.59375,0.09375
530,-1.0039062,0.13671875,-0.09375,-0.0625,-0.71875,-0.53125
531,-1.0097656,0.14550781,-0.10839844,-0.1875,-1.15625,-0.34375
532,-1.0058594,0.12988281,-0.10058594,-0.0625,-1.5625,-0.59375
533,-1.0048828,0.13476562,-0.103515625,-0.125,-1.5,-0.59375
534,-0.99902344,0.1328125,-0.1015625,0.46875,-0.34375,-0.15625
535,-1.0097656,0.14160156,-0.10644531,0.90625,-0.1875,-0.09375
536,-1.0058594,0.14550781,-0.09863281,0.65625,-0.34375,-0.28125
537,-1.0078125,0.13671875,-0.091796875,0.84375,-1.15625,-0.34375
538,-1.0,0.13476562,-0.10058594,0.71875,-1.03125,-0.34375
539,-1.0136719,0.1484375,-0.10058594,0.84375,-0.65625,-0.21875
540,-1.0146484,0.14550781,-0.11230469,1.21875,-0.34375,-0.09375
541,-1.0058594,0.15234375,-0.11035156,0.84375,0.0,-0.03125
542,-1.0166016,0.14355469,-0.109375,0.3125,-0.21875,-0.34375
543,-1.0019531,0.13671875,-0.1015625,2.125,0.0625,0.34375
544,-1.0214844,0.13964844,-0.103515625,0.40625,0.8125,-0.59375
545,-1.0117188,0.13964844,-0.08984375,-0.3125,-0.65625,-0.15625
546,-1.0019531,0.14941406,-0.09863281,0.96875,-1.15625,-0.34375
547,-1.0107422,0.14160156,-0.10058594,-0.5,-0.71875,-0.65625
548,-1.0058594,0.15039062,-0.11328125,0.40625,-0.84375,-0.28125
549,-1.0097656,0.140625,-0.10058594,-1.09375,-1.46875,-0.875
550,-1.0087891,0.13867188,-0.10253906,-1.65625,-2.0625,-1.0
551,-1.0097656,0.13574219,-0.09375,0.40625,-2.78125,-1.125
552,-0.99609375,0.13671875,-0.103515625,1.09375,-1.28125,-0.65625
553,-1.0126953,0.12695312,-0.09082031,1.28125,-0.65625,-0.28125
554,-1.0273438,0.13183594,-0.08300781,-0.125,-1.34375,-0.84375
555,-1.0039062,0.13085938,-0.07324219,-1.78125,-2.6875,-1.375
556,-1.0429688,0.14160156,-0.06542969,0.3125,-4.75,-2.21875
557,-0.98535156,0.13183594,-0.10449219,-0.5625,-3.28125,-2.34375
558,-1.0068359,0.13183594,-0.09375,2.8125,-1.34375,-0.40625
559,-1.0126953,0.15039062,-0.0859375,1.9375,0.3125,-1.3125
560,-1.0,0.14160156,-0.08496094,0.125,-0.28125,-0.65625
561,-1.015625,0.12988281,-0.07910156,1.6875,-1.5,-1.1875
562,-1.0078125,0.11425781,-0.099609375,2.1875,-1.5,-1.5
563,-1.0136719,0.12988281,-0.08300781,0.65625,-0.59375,-1.1875
564,-1.0107422,0.13769531,-0.056640625,-0.25,-1.28125,0.15625
565,-1.0029297,0.12597656,-0.08105469,-2.9375,-1.8125,-1.1875
566,-0.99609375,0.107421875,-0.072265625,-0.9375,-0.21875,-1.625
567,-1.015625,0.095703125,-0.07324219,0.25,1.46875,-0.78125
568,-1.0185547,0.12011719,-0.048828125,-0.75,0.9375,-0.03125
569,-1.0087891,0.13769531,-0.068359375,-1.53125,0.625,-0.15625
570,-1.0126953,0.107421875,-0.07910156,-2.09375,1.53125,0.03125
571,-1.0117188,0.11621094,-0.06640625,-3.5625,1.59375,0.34375
572,-1.0068359,0.109375,-0.08105469,-1.34375,1.46875,0.28125
573,-1.0185547,0.12597656,-0.056640625,-2.875,1.71875,-0.03125
574,-1.0087891,0.115234375,-0.061523438,-3.84375,-0.40625,0.03125
575,-0.984375,0.1328125,-0.07421875,-2.09375,-1.46875,-0.53125
576,-1.0107422,0.12402344,-0.09375,-3.0,0.3125,-0.28125
577,-1.0097656,0.12109375,-0.052734375,-2.625,-0.1875,0.09375
578,-1.0009766,0.13085938,-0.08105469,-0.75,-0.53125,-0.34375
579,-1.0234375,0.1171875,-0.07128906,-2.15625,-0.46875,-0.53125
580,-1.0175781,0.12597656,-0.08300781,-1.40625,-1.34375,0.09375
581,-1.0087891,0.11621094,-0.08300781,-0.375,-0.59375,0.09375
582,-1.0078125,0.12011719,-0.09667969,0.0,-0.0625,-0.46875
583,-1.0107422,0.115234375,-0.07910156,-0.25,-0.0625,-0.21875
584,-1.0175781,0.12109375,-0.087890625,0.34375,-0.84375,-0.03125
585,-1.0058594,0.12207031,-0.080078125,-0.0625,-0.34375,-0.53125
586,-1.0136719,0.11621094,-0.08105469,-0.5,-0.34375,-0.21875
587,-1.0039062,0.119140625,-0.056640625,-0.0625,-0.71875,-0.15625
588,-1.0107422,0.12695312,-0.09375,-1.34375,-0.125,-0.28125
589,-1.0214844,0.11230469,-0.05859375,-0.5,-0.0625,-0.15625
590,-1.0039062,0.115234375,-0.07519531,0.53125,-0.84375,-0.46875
591,-1.0166016,0.123046875,-0.08496094,-0.3125,-0.125,-0.34375
592,-1.0117188,0.11328125,-0.07910156,0.0,0.4375,0.28125
593,-1.0107422,0.11621094,-0.06347656,0.84375,-0.71875,-0.40625
594,-1.0117188,0.11816406,-0.053710938,-0.125,-0.125,-0.46875
595,-1.0107422,0.1171875,-0.08105469,-0.1875,0.125,0.09375
596,-1.0166016,0.119140625,-0.06933594,0.25,-0.53125,0.15625
597,-1.0166016,0.10644531,-0.0859375,-0.1875,0.3125,-0.40625
598,-1.0107422,0.10253906,-0.048828125,0.90625,-0.21875,-0.28125
599,-1.0117188,0.12890625,-0.05859375,0.40625,-0.65625,-0.40625
600,-1.0146484,0.119140625,-0.07128906,0.78125,0.6875,-0.28125
601,-1.015625,0.12011719,-0.052734375,1.03125,-0.28125,0.21875
602,-1.0097656,0.11621094,-0.06640625,-0.0625,-0.28125,-0.28125
603,-1.0175781,0.111328125,-0.055664062,0.96875,0.4375,0.03125
604,-1.0097656,0.12011719,-0.06933594,0.65625,0.3125,0.03125
605,-1.0136719,0.11425781,-0.0703125,-0.6875,0.1875,-0.21875
606,-1.0078125,0.12011719,-0.068359375,0.46875,0.625,0.5
607,-1.0078125,0.115234375,-0.056640625,-0.125,0.0625,0.03125
608,-1.0058594,0.10449219,-0.076171875,-0.9375,0.25,-0.03125
609,-1.0078125,0.115234375,-0.0625,0.34375,0.375,0.40625
610,-1.0136719,0.12597656,-0.09082031,-0.625,-0.1875,0.15625
611,-1.0097656,0.109375,-0.0703125,-0.9375,-0.125,-0.21875
612,-1.0048828,0.109375,-0.06738281,0.59375,0.875,0.5
613,-1.0117188,0.1171875,-0.0703125,-0.125,0.3125,0.40625
614,-1.0175781,0.119140625,-0.076171875,0.25,-0.40625,0.09375
615,-1.0039062,0.109375,-0.08300781,0.46875,0.125,0.34375
616,-1.0214844,0.123046875,-0.07324219,0.53125,0.0625,0.09375
617,-1.0039062,0.12402344,-0.08691406,-1.71875,-0.53125,0.28125
618,-1.0146484,0.119140625,-0.06347656,-0.9375,-0.1875,0.34375
619,-1.0068359,0.1171875,-0.060546875,-1.28125,-0.71875,0.03125
620,-1.0058594,0.11425781,-0.06933594,-1.34375,-0.0625,0.40625
621,-1.0136719,0.11425781,-0.051757812,-0.75,0.3125,0.46875
622,-1.0107422,0.125,-0.059570312,0.0,-0.28125,-0.03125
623,-1.0175781,0.12011719,-0.072265625,-1.21875,0.3125,0.34375
624,-1.0126953,0.11230469,-0.06542969,-0.5625,0.1875,0.40625
625,-1.0058594,0.111328125,-0.05859375,0.0,0.5,0.21875
626,-1.0058594,0.11621094,-0.06933594,-0.0625,0.375,0.5
627,-1.0136719,0.12109375,-0.07714844,-0.5,1.0,0.46875
628,-1.0009766,0.115234375,-0.05078125,0.34375,0.1875,0.40625
629,-1.0107422,0.12597656,-0.072265625,0.0625,0.625,-0.15625
630,-1.0214844,0.12011719,-0.05078125,0.40625,0.5,0.40625
631,-1.015625,0.1171875,-0.06542969,0.71875,-0.65625,-0.15625
632,-1.0117188,0.12207031,-0.0546875,0.1875,-0.40625,-0.65625
633,-1.015625,0.13378906,-0.076171875,0.65625,-0.59375,-0.09375
634,-1.0029297,0.12597656,-0.09375,0.40625,1.0,0.15625
635,-1.0244141,0.12109375,-0.076171875,-0.375,1.21875,0.28125
636,-1.0117188,0.123046875,-0.072265625,0.0,0.3125,0.15625
637,-1.0146484,0.123046875,-0.061523438,0.0625,0.125,-0.21875
638,-1.0234375,0.11621094,-0.06347656,-0.5,-1.03125,-0.53125
639,-1.0039062,0.12890625,-0.05078125,-0.1875,-1.75,-0.71875
640,-1.0126953,0.11621094,-0.0625,0.84375,0.3125,-0.53125
641,-1.0273438,0.12597656,-0.059570312,-0.3125,0.375,-0.09375
642,-1.0048828,0.12988281,-0.06640625,-0.5,-0.40625,0.03125
643,-1.0009766,0.12402344,-0.091796875,0.59375,-0.125,-0.40625
644,-1.0224609,0.125,-0.048828125,0.25,0.375,-0.09375
645,-1.0097656,0.12011719,-0.064453125,-0.1875,0.4375,0.09375
646,-0.9951172,0.119140625,-0.072265625,-0.625,-0.125,-0.65625
647,-1.0234375,0.115234375,-0.05859375,-0.5,0.1875,-0.21875
648,-1.0126953,0.11230469,-0.0703125,-0.1875,-0.21875,-0.28125
649,-1.0185547,0.111328125,-0.0546875,0.0625,0.3125,-0.59375
650,-1.0019531,0.11816406,-0.07324219,0.71875,-0.125,0.03125
651,-1.0117188,0.119140625,-0.06542969,1.09375,-0.1875,-0.21875
652,-1.0146484,0.123046875,-0.057617188,-0.4375,0.0625,-0.28125
653,-1.0048828,0.123046875,-0.060546875,0.71875,-0.1875,0.21875
654,-1.0205078,0.119140625,-0.052734375,-1.15625,-0.125,-0.40625
655,-1.0273438,0.103515625,-0.044921875,-0.625,-0.53125,-0.15625
656,-1.0009766,0.119140625,-0.07421875,0.65625,-1.34375,-0.46875
657,-1.0087891,0.115234375,-0.06347656,-0.375,-1.03125,-0.59375
658,-1.0136719,0.109375,-0.07421875,0.3125,-0.40625,0.03125
659,-1.0078125,0.13085938,-0.07910156,0.25,-0.0625,-0.03125
660,-1.0146484,0.12207031,-0.07519531,-0.375,-0.53125,-0.09375
661,-1.0117188,0.12402344,-0.076171875,-0.9375,-0.0625,0.28125
662,-1.0146484,0.12109375,-0.055664062,-1.59375,0.5,0.28125
663,-1.0117188,0.115234375,-0.049804688,-1.28125,-0.125,0.21875
664,-1.0292969,0.10644531,-0.05078125,-1.15625,-0.40625,-0.09375
665,-1.0166016,0.10253906,-0.078125,-0.625,-0.46875,0.09375
666,-1.0185547,0.11425781,-0.055664062,-0.6875,-0.84375,-0.40625
667,-1.0078125,0.119140625,-0.05078125,-0.9375,-0.78125,-0.21875
668,-1.0048828,0.12109375,-0.059570312,-0.625,-1.03125,-0.15625
669,-1.0078125,0.12402344,-0.053710938,-1.15625,-0.78125,-0.21875
670,-1.0078125,0.12011719,-0.044921875,-1.03125,-0.40625,-0.03125
671,-1.0166016,0.11425781,-0.047851562,0.0,-0.53125,-0.15625
672,-1.0097656,0.10839844,-0.06542969,-1.34375,-0.53125,0.09375
673,-1.015625,0.111328125,-0.048828125,-0.0625,-0.125,0.28125
674,-1.0087891,0.11035156,-0.05078125,-0.6875,-0.34375,-0.28125
675,-1.0166016,0.10449219,-0.05078125,-0.125,-0.0625,-0.28125
676,-1.0195312,0.11621094,-0.047851562,0.0625,-0.21875,0.09375
677,-1.0048828,0.12207031,-0.0625,-0.6875,-0.78125,-0.03125
678,-1.0244141,0.109375,-0.05078125,0.0,0.625,0.21875
679,-1.0078125,0.10839844,-0.0390625,0.25,0.625,0.15625
680,-1.0175781,0.119140625,-0.05078125,-0.3125,-0.53125,-0.34375
681,-1.0107422,0.109375,-0.045898438,0.0625,0.125,-0.15625
682,-1.0087891,0.123046875,-0.045898438,0.59375,-0.53125,-0.21875
683,-1.0185547,0.107421875,-0.038085938,-0.375,-0.71875,-0.34375
684,-1.0107422,0.11425781,-0.038085938,0.125,0.0,0.03125
685,-1.0058594,0.107421875,-0.048828125,-0.25,0.125,-0.28125
686,-1.0126953,0.115234375,-0.044921875,-0.5625,0.125,-0.28125
687,-1.0058594,0.11621094,-0.041015625,-0.25,-0.46875,0.03125
688,-1.0029297,0.10839844,-0.047851562,-0.125,0.25,-0.15625
689,-1.0224609,0.107421875,-0.0546875,-0.5625,0.1875,0.03125
690,-1.0078125,0.12402344,-0.045898438,0.1875,0.1875,-0.34375
691,-1.0126953,0.10644531,-0.034179688,-0.5,-0.0625,-0.15625
692,-1.0107422,0.10449219,-0.044921875,-0.5,-0.46875,-0.03125
693,-1.0234375,0.107421875,-0.061523438,0.1875,0.0625,-0.09375
694,-1.0107422,0.12109375,-0.053710938,-0.625,-0.34375,0.21875
695,-1.0136719,0.12109375,-0.037109375,-1.53125,0.875,0.40625
696,-1.0136719,0.10253906,-0.034179688,0.84375,0.625,0.09375
697,-1.0185547,0.09863281,-0.059570312,0.46875,-0.28125,-0.21875
698,-1.0087891,0.119140625,-0.049804688,1.28125,0.25,0.28125
699,-1.0039062,0.11621094,-0.045898438,1.625,0.1875,-0.09375
700,-1.0175781,0.11328125,-0.05078125,0.90625,-0.21875,-0.40625
701,-1.0107422,0.125,-0.064453125,0.84375,0.0625,0.5625
702,-1.0214844,0.10839844,-0.034179688,0.53125,0.25,0.15625
703,-1.015625,0.11621094,-0.045898438,0.40625,0.0625,-0.34375
704,-1.0146484,0.11328125,-0.046875,0.90625,0.125,-0.21875
705,-1.015625,0.11621094,-0.041992188,0.53125,-0.21875,0.15625
706,-1.0107422,0.11328125,-0.05078125,0.96875,-0.65625,-0.53125
707,-1.0234375,0.10644531,-0.053710938,1.28125,-0.34375,-0.53125
708,-1.0166016,0.11425781,-0.053710938,1.46875,-0.125,-0.09375
709,-1.0107422,0.11425781,-0.053710938,0.34375,-0.53125,-0.15625
710,-1.0195312,0.103515625,-0.052734375,-0.0625,-0.65625,-0.21875
711,-1.0019531,0.12109375,-0.052734375,0.59375,-0.125,-0.28125
712,-1.0107422,0.10644531,-0.049804688,0.59375,0.1875,-0.15625
713,-1.0195312,0.10839844,-0.049804688,-0.1875,0.25,-0.03125
714,-1.0117188,0.11328125,-0.041015625,0.3125,0.5,0.15625
715,-1.0205078,0.1015625,-0.048828125,-0.125,-0.21875,-0.46875
716,-1.015625,0.11328125,-0.044921875,0.46875,-0.0625,-0.34375
717,-1.0019531,0.12109375,-0.053710938,1.15625,0.625,0.03125
718,-1.015625,0.12207031,-0.059570312,0.65625,0.125,-0.28125
719,-1.0097656,0.10546875,-0.047851562,0.3125,-0.125,-0.53125
720,-1.0205078,0.10644531,-0.036132812,1.21875,-0.1875,-0.28125
721,-1.0068359,0.1171875,-0.06347656,0.59375,0.3125,-0.34375
722,-1.0117188,0.103515625,-0.056640625,0.34375,0.8125,0.15625
723,-1.0107422,0.11621094,-0.0546875,1.03125,-0.40625,0.21875
724,-1.0087891,0.10839844,-0.036132812,0.34375,-0.0625,-0.34375
725,-1.015625,0.1015625,-0.046875,-0.625,-0.34375,-0.46875
726,-1.0146484,0.09863281,-0.029296875,1.15625,-1.28125,-0.03125
727,-1.0126953,0.10644531,-0.055664062,1.21875,-0.59375,-0.40625
728,-1.0244141,0.12109375,-0.05078125,0.84375,-0.46875,-0.09375
729,-1.0117188,0.11328125,-0.0390625,0.46875,-0.1875,0.34375
730,-1.0117188,0.11425781,-0.048828125,-1.0,-0.1875,0.09375
731,-1.0107422,0.10058594,-0.041992188,-1.71875,0.25,-0.03125
732,-1.0107422,0.10449219,-0.04296875,0.46875,-0.53125,0.09375
733,-0.9970703,0.10058594,-0.036132812,0.0625,-0.71875,-0.28125
734,-1.0166016,0.10839844,-0.061523438,-0.25,-0.78125,-0.15625
735,-1.0126953,0.11230469,-0.055664062,1.34375,-0.1875,0.40625
736,-1.0039062,0.109375,-0.059570312,0.0,-0.40625,-0.15625
737,-1.0097656,0.1171875,-0.043945312,-0.0625,0.25,0.46875
738,-1.0097656,0.111328125,-0.04296875,0.34375,-0.0625,0.21875
739,-1.0029297,0.11621094,-0.040039062,0.34375,-0.65625,-0.03125
740,-1.0166016,0.10546875,-0.03515625,0.0625,0.1875,0.09375
741,-1.0195312,0.10546875,-0.040039062,0.96875,-0.1875,0.28125
742,-1.0126953,0.12402344,-0.045898438,-0.3125,-0.40625,-0.28125
743,-1.015625,0.107421875,-0.045898438,-0.125,-0.53125,0.03125
744,-1.015625,0.111328125,-0.034179688,0.0625,-0.0625,0.09375
745,-1.0136719,0.123046875,-0.044921875,-1.03125,-0.46875,-0.15625
746,-1.0126953,0.09765625,-0.038085938,-0.875,0.0625,0.09375
747,-1.0185547,0.10644531,-0.041015625,-0.0625,0.4375,0.15625
748,-1.0048828,0.111328125,-0.041015625,-0.75,-0.21875,-0.03125
749,-1.0126953,0.11230469,-0.034179688,-0.6875,-0.40625,0.03125
750,-1.0097656,0.1015625,-0.038085938,0.34375,0.25,-0.15625
751,-1.0195312,0.111328125,-0.025390625,0.65625,0.375,0.15625
752,-1.0097656,0.111328125,-0.033203125,0.125,0.5625,0.21875
753,-1.0048828,0.107421875,-0.049804688,-0.375,-0.1875,-0.03125
754,-1.0048828,0.107421875,-0.0390625,-0.5,0.0,-0.28125
755,-1.0068359,0.10058594,-0.033203125,0.71875,0.125,0.21875
756,-1.0087891,0.107421875,-0.044921875,0.125,0.1875,-0.15625
757,-1.0078125,0.107421875,-0.02734375,0.59375,0.4375,0.09375
758,-1.0107422,0.10839844,-0.036132812,0.3125,0.0625,0.09375
759,-1.0097656,0.11230469,-0.032226562,0.53125,0.75,0.03125
