sample_no,accel_x,accel_y,accel_z,gyro_x,gyro_y,gyro_z
0,-1.0175781,0.028320312,-0.0146484375,-0.625,-0.1875,-0.40625
1,-1.0234375,0.029296875,-0.025390625,0.09375,0.09375,-0.09375
2,-1.0166016,0.0126953125,-0.01171875,-0.34375,0.0,-0.28125
3,-1.0244141,0.016601562,-0.020507812,-0.21875,0.0,-0.15625
4,-1.0136719,0.026367188,-0.022460938,1.6875,-0.0625,-0.03125
5,-1.0126953,0.015625,-0.021484375,0.21875,0.28125,0.03125
6,-1.0185547,0.022460938,-0.0107421875,-1.125,0.0,-0.09375
7,-1.015625,0.015625,-0.025390625,-0.53125,0.03125,-0.46875
8,-1.0302734,0.021484375,-0.0234375,-0.21875,-0.1875,-0.21875
9,-1.0146484,0.018554688,-0.020507812,-1.0625,-0.625,0.3125
10,-1.0107422,0.005859375,-0.017578125,0.53125,-0.0625,0.03125
11,-1.03125,0.022460938,-0.0146484375,0.9375,-0.125,-0.34375
12,-1.0166016,0.016601562,-0.0126953125,0.9375,-0.6875,0.15625
13,-1.0205078,0.026367188,-0.0146484375,1.0,-0.3125,-0.21875
14,-1.0214844,0.022460938,-0.029296875,0.65625,-0.25,-0.40625
15,-1.0234375,0.037109375,-0.020507812,0.59375,-0.3125,-0.40625
16,-1.0185547,0.01171875,-0.02734375,0.28125,-0.75,0.15625
17,-1.0224609,0.018554688,-0.0078125,1.5,-0.0625,-0.03125
18,-1.0205078,0.028320312,-0.009765625,0.34375,-0.25,-0.28125
19,-1.0175781,0.02734375,-0.0107421875,-0.21875,-0.5,-0.09375
20,-1.0292969,0.016601562,-0.0146484375,-0.03125,-0.6875,0.03125
21,-1.0205078,0.01171875,-0.018554688,0.34375,-0.5625,-0.59375
22,-1.0214844,0.029296875,-0.0107421875,0.28125,-0.625,-0.34375
23,-1.0224609,0.01171875,-0.01171875,0.21875,-0.4375,-0.53125
24,-1.0185547,0.025390625,-0.0068359375,0.59375,-0.375,-0.46875
25,-1.0234375,0.018554688,-0.020507812,0.09375,-0.3125,-0.59375
26,-1.0185547,0.0126953125,-0.0107421875,0.75,-0.5625,-0.59375
27,-1.0166016,0.016601562,-0.0126953125,0.46875,-0.75,-0.84375
28,-1.015625,0.024414062,-0.0087890625,1.3125,-1.25,-0.90625
29,-1.0253906,0.018554688,-0.0029296875,1.0,-1.3125,-0.96875
30,-1.0048828,0.021484375,-0.0078125,0.65625,-0.625,-0.71875
31,-1.015625,0.018554688,-0.020507812,4.4375,1.3125,-0.03125
32,-1.0253906,0.021484375,0.001953125,2.0,1.03125,-0.71875
33,-1.0224609,0.020507812,0.0,0.03125,-0.3125,-0.34375
34,-1.0234375,0.001953125,-0.0048828125,1.125,-0.6875,-0.21875
35,-1.0117188,0.017578125,-0.0087890625,2.21875,0.34375,-0.84375
36,-1.0107422,0.0234375,-0.005859375,1.75,-0.4375,-0.21875
37,-1.0166016,0.016601562,-0.020507812,1.25,0.03125,-0.53125
38,-1.0273438,0.0234375,-0.00390625,0.59375,-0.375,-0.40625
39,-1.015625,0.015625,-0.0234375,-0.28125,-0.9375,-0.40625
40,-1.0205078,0.0126953125,-0.017578125,0.28125,-0.8125,-0.78125
41,-1.0224609,0.021484375,-0.0029296875,0.21875,-1.1875,-0.78125
42,-1.0322266,0.026367188,-0.0068359375,-0.75,-1.59375,-1.0
43,-1.0146484,0.01953125,-0.021484375,-0.75,-1.71875,-0.71875
44,-1.0195312,0.028320312,0.0029296875,-0.875,-0.25,-0.65625
45,-1.0195312,0.009765625,0.0029296875,-2.78125,-0.8125,-0.65625
46,-1.0244141,0.0048828125,-0.00390625,-1.3125,-0.375,-0.46875
47,-1.0166016,0.00390625,-0.0048828125,0.28125,0.46875,-0.46875
48,-1.0195312,0.0234375,-0.001953125,0.875,0.21875,-0.15625
49,-1.0283203,0.01953125,-0.0009765625,-0.03125,-0.1875,-0.40625
50,-1.0224609,0.017578125,0.0068359375,-0.8125,-0.25,-0.46875
51,-1.0175781,0.00390625,-0.016601562,-1.5625,-0.25,-0.21875
52,-1.0166016,0.0078125,-0.001953125,-0.34375,0.65625,-0.15625
53,-1.0107422,-0.005859375,0.005859375,-0.09375,1.15625,-0.53125
54,-1.0195312,0.009765625,-0.00390625,0.46875,0.53125,-0.03125
55,-1.0273438,0.0068359375,-0.0107421875,1.6875,0.0,-0.03125
56,-1.0214844,0.016601562,-0.0078125,2.09375,0.15625,-0.28125
57,-1.0136719,0.01171875,0.001953125,0.71875,-0.125,-0.15625
58,-1.0117188,0.005859375,-0.009765625,0.875,-0.3125,0.21875
59,-1.0117188,0.0078125,0.0,1.4375,0.15625,0.09375
60,-1.0078125,0.0078125,0.001953125,1.125,-0.4375,0.09375
61,-1.0283203,0.016601562,-0.017578125,1.8125,-0.5,-0.03125
62,-1.0234375,0.0126953125,-0.0078125,1.6875,-0.75,0.03125
63,-1.0263672,0.0146484375,-0.017578125,0.59375,-1.0625,-0.21875
64,-1.0263672,0.0234375,-0.005859375,0.8125,-0.625,-0.28125
65,-1.0263672,0.022460938,-0.00390625,0.65625,-0.75,-0.34375
66,-1.0224609,0.013671875,0.0029296875,-0.40625,-0.6875,-0.15625
67,-1.0224609,0.016601562,0.0009765625,-0.875,-0.625,-0.96875
68,-1.0117188,0.0087890625,-0.00390625,-1.125,-0.5,-0.96875
69,-1.0175781,0.0078125,-0.0029296875,-0.75,-0.625,-0.34375
70,-1.015625,0.0078125,-0.009765625,-0.28125,-0.25,-0.84375
71,-1.0253906,0.009765625,0.0009765625,0.53125,0.0,-0.71875
72,-1.0117188,0.0068359375,0.0029296875,0.21875,-0.4375,-0.21875
73,-1.0244141,0.018554688,0.0,-1.125,0.0,-0.71875
74,-1.0185547,-0.0009765625,0.016601562,-1.8125,-0.5,-0.59375
75,-1.0253906,-0.0068359375,-0.0078125,-1.3125,-0.5,-0.40625
76,-1.015625,0.00390625,0.0087890625,0.09375,-0.125,-0.40625
77,-1.0263672,0.01171875,-0.001953125,1.125,-0.25,-0.21875
78,-1.0166016,0.0126953125,-0.01171875,0.65625,-0.625,-0.34375
79,-1.0136719,0.015625,-0.0146484375,-0.03125,-0.4375,-0.28125
80,-1.0195312,0.0126953125,0.0,0.21875,-0.6875,0.21875
81,-1.0273438,0.018554688,0.01171875,-0.15625,-0.1875,0.28125
82,-1.0175781,0.0029296875,0.00390625,-1.0625,-0.625,0.375
83,-1.0234375,0.001953125,0.0048828125,0.40625,-0.3125,0.6875
84,-1.0136719,0.0048828125,0.013671875,1.125,-0.25,0.03125
85,-1.0205078,0.001953125,0.0048828125,0.65625,-0.25,-0.28125
86,-1.0107422,0.015625,0.0,0.59375,-0.9375,0.28125
87,-1.0332031,0.005859375,-0.018554688,-0.21875,-1.90625,0.8125
88,-1.0166016,0.0078125,0.013671875,3.3125,-0.375,1.0
89,-1.0205078,0.033203125,0.0048828125,-0.9375,-0.6875,0.4375
90,-1.0273438,-0.001953125,0.009765625,-2.65625,-1.0625,0.75
91,-1.0205078,-0.001953125,0.015625,0.09375,-1.3125,0.4375
92,-1.0244141,0.021484375,0.0107421875,0.21875,-0.875,0.3125
93,-1.0263672,0.024414062,0.0146484375,0.03125,-0.6875,-0.09375
94,-1.0166016,0.03125,0.022460938,-1.8125,-0.9375,-0.09375
95,-1.015625,0.01953125,0.0029296875,-3.5,-1.34375,0.21875
96,-1.0166016,0.0146484375,0.0087890625,-1.1875,-0.5,0.09375
97,-1.0292969,0.0068359375,0.0068359375,-1.1875,0.21875,-0.28125
98,-1.0166016,0.013671875,0.009765625,-1.625,0.09375,0.03125
99,-1.0146484,0.009765625,0.0146484375,-1.625,0.15625,-0.28125
100,-1.0195312,0.016601562,0.013671875,-1.0625,0.34375,-0.15625
101,-1.0146484,0.013671875,0.0087890625,-0.6875,0.78125,-0.21875
102,-1.0214844,0.0009765625,0.01171875,-0.53125,0.84375,-0.09375
103,-1.0195312,0.0078125,0.0068359375,0.75,1.03125,-0.03125
104,-1.0175781,0.017578125,0.0,0.28125,0.78125,-0.21875
105,-1.0205078,0.0087890625,0.016601562,0.03125,0.28125,0.03125
106,-1.0273438,0.005859375,0.005859375,0.59375,0.65625,-0.03125
107,-1.0224609,0.013671875,0.009765625,1.1875,0.84375,0.03125
108,-1.0205078,0.016601562,0.013671875,0.34375,0.59375,-0.40625
109,-1.0253906,0.0234375,0.0078125,1.1875,0.28125,-0.03125
110,-1.0273438,0.021484375,0.0146484375,0.53125,-0.0625,-0.09375
111,-1.0224609,0.026367188,-0.0078125,-0.09375,0.03125,-0.21875
112,-1.0234375,0.013671875,0.005859375,0.40625,-0.25,-0.15625
113,-1.0224609,0.026367188,0.0048828125,0.03125,-0.0625,-0.09375
114,-1.0195312,0.0126953125,0.013671875,-0.59375,-0.1875,-0.03125
115,-1.0253906,0.005859375,0.013671875,-0.59375,-0.4375,-0.09375
116,-1.0175781,0.0068359375,0.01953125,0.21875,0.0,-0.15625
117,-1.0175781,0.0068359375,0.005859375,0.28125,0.15625,-0.03125
118,-1.0205078,0.016601562,0.0126953125,0.75,0.40625,-0.03125
119,-1.0253906,0.013671875,0.0126953125,-0.28125,-0.125,-0.09375
120,-1.0273438,0.0009765625,0.0029296875,0.15625,0.03125,-0.03125
121,-1.0136719,0.005859375,0.0009765625,0.65625,0.15625,-0.28125
122,-1.0224609,0.021484375,0.01171875,0.8125,0.21875,0.03125
123,-1.0166016,0.005859375,0.0078125,0.09375,-0.1875,-0.15625
124,-1.0195312,0.017578125,-0.0087890625,-0.53125,-0.3125,-0.40625
125,-1.0341797,0.0087890625,-0.001953125,0.15625,-0.125,-0.15625
126,-1.0175781,0.0068359375,0.0078125,-0.875,-0.4375,0.15625
127,-1.0283203,0.0146484375,0.0029296875,-0.21875,0.0,-0.09375
128,-1.0224609,0.0107421875,0.001953125,-0.34375,-0.3125,-0.03125
129,-1.0292969,-0.0009765625,-0.0009765625,-0.59375,-0.375,0.4375
130,-1.0253906,0.005859375,0.0048828125,-0.03125,-0.1875,0.03125
131,-1.0253906,0.0146484375,0.0126953125,0.59375,-0.1875,0.09375
132,-1.0253906,0.028320312,0.00390625,0.03125,-0.3125,0.09375
133,-1.0146484,0.0146484375,0.009765625,0.21875,-0.1875,-0.09375
134,-1.0185547,0.018554688,0.01171875,1.0625,0.0,0.03125
135,-1.0224609,0.013671875,0.0126953125,-0.28125,-0.1875,-0.09375
136,-1.0185547,0.0087890625,0.009765625,-0.09375,-0.125,0.09375
137,-1.0253906,0.013671875,0.0029296875,0.8125,0.15625,0.03125
138,-1.0205078,0.015625,0.022460938,0.40625,0.21875,0.03125
139,-1.0205078,0.013671875,-0.0068359375,-0.03125,0.09375,-0.21875
140,-1.0253906,0.0126953125,0.0146484375,0.65625,0.03125,0.03125
141,-1.015625,0.0107421875,0.01171875,0.34375,0.46875,-0.28125
142,-1.0175781,0.01171875,0.0068359375,0.15625,0.0,-0.15625
143,-1.0195312,0.00390625,0.0068359375,0.40625,0.15625,-0.34375
144,-1.0205078,0.01171875,0.020507812,1.3125,-0.5625,-0.28125
145,-1.0195312,0.0126953125,-0.00390625,2.0,-0.4375,0.03125
146,-1.0107422,0.01171875,-0.005859375,3.8125,0.09375,0.6875
147,-1.0244141,0.0234375,0.00390625,-0.21875,-0.125,-0.40625
148,-1.015625,0.018554688,0.0,-0.46875,-0.875,0.28125
149,-1.0097656,0.0068359375,0.005859375,-1.5,-1.1875,0.15625
150,-1.0195312,0.013671875,0.009765625,-1.0625,-0.6875,0.15625
151,-1.0224609,0.0126953125,0.026367188,-0.75,-0.3125,-0.09375
152,-1.0175781,0.020507812,0.0068359375,-0.6875,-0.875,0.15625
153,-1.0253906,0.0068359375,0.018554688,-0.75,-0.5625,-0.03125
154,-1.0136719,0.015625,0.020507812,-0.34375,-0.4375,-0.09375
155,-1.0205078,0.0126953125,0.0126953125,0.09375,-0.0625,-0.09375
156,-1.0263672,0.017578125,0.0107421875,-0.625,-0.1875,-0.21875
157,-1.0234375,0.015625,0.017578125,-1.75,-0.125,-0.34375
158,-1.0214844,0.0087890625,0.01171875,-0.21875,-0.0625,-0.28125
159,-1.015625,0.005859375,0.0126953125,-0.03125,0.28125,-0.15625
160,-1.0253906,0.0126953125,0.005859375,-0.03125,0.21875,-0.46875
161,-1.0273438,0.0146484375,0.005859375,0.21875,-0.125,-0.46875
162,-1.0263672,0.0087890625,0.0029296875,0.75,0.09375,-0.15625
163,-1.0253906,0.01171875,0.0,-0.28125,0.0,-0.40625
164,-1.0146484,0.0126953125,0.015625,0.46875,0.21875,-0.34375
165,-1.0205078,0.01171875,0.0107421875,0.71875,0.03125,-0.34375
166,-1.0234375,0.00390625,0.01171875,-0.8125,-0.1875,-0.40625
167,-1.0224609,0.01953125,0.00390625,1.1875,0.09375,-0.59375
168,-1.0224609,0.015625,0.0126953125,0.9375,0.15625,-0.59375
169,-1.0273438,0.022460938,0.020507812,0.28125,-0.25,-0.28125
170,-1.0244141,-0.0048828125,-0.0009765625,0.53125,-0.1875,-0.59375
171,-1.0175781,0.001953125,0.0107421875,1.0,-0.5,-0.46875
172,-1.0234375,0.0146484375,-0.0087890625,0.40625,-0.6875,-0.53125
173,-1.0273438,0.01953125,0.0,1.125,-0.6875,-0.46875
174,-1.0214844,0.036132812,0.009765625,-0.03125,-0.9375,-0.40625
175,-1.0166016,0.0107421875,0.02734375,-0.53125,-1.1875,0.3125
176,-1.0136719,0.0068359375,0.01953125,-0.9375,-0.875,0.15625
177,-1.0097656,0.013671875,0.015625,-0.53125,-0.0625,-0.21875
178,-1.0244141,0.0078125,0.02734375,-0.09375,-0.25,-0.03125
179,-1.0224609,0.0107421875,0.028320312,-0.09375,-0.375,-0.21875
180,-1.0253906,0.005859375,0.0234375,0.75,-0.125,-0.46875
181,-1.0117188,0.0068359375,0.028320312,0.03125,0.09375,-0.46875
182,-1.0205078,0.0068359375,0.017578125,-0.8125,0.03125,-0.53125
183,-1.0166016,0.0,0.021484375,-0.34375,-0.1875,-0.34375
184,-1.015625,-0.001953125,0.020507812,0.59375,0.40625,-0.40625
185,-1.0224609,0.005859375,0.0126953125,1.6875,0.65625,-0.34375
186,-1.0263672,0.001953125,0.016601562,1.875,0.28125,-0.21875
187,-1.0234375,0.005859375,0.0087890625,1.8125,-0.0625,-0.21875
188,-1.0185547,0.001953125,0.0107421875,1.875,0.15625,-0.09375
189,-1.0244141,0.009765625,0.013671875,2.0,0.09375,0.09375
190,-1.015625,0.009765625,0.017578125,2.0,-0.0625,-0.03125
191,-1.0195312,0.0126953125,0.015625,1.5625,-0.5625,0.625
192,-1.0166016,0.016601562,0.026367188,0.40625,0.03125,0.21875
193,-1.0175781,0.013671875,0.0078125,-0.21875,0.03125,0.03125
194,-1.0205078,0.0146484375,0.0126953125,-0.34375,-0.125,0.03125
195,-1.015625,0.015625,0.017578125,-0.40625,0.21875,-0.09375
196,-1.03125,0.0048828125,0.0078125,-1.0625,0.46875,-0.34375
197,-1.0263672,0.0078125,0.021484375,-1.25,0.28125,-0.53125
198,-1.015625,0.0048828125,0.021484375,-0.09375,0.65625,-0.15625
199,-1.0205078,0.009765625,0.0126953125,-1.3125,0.59375,-0.40625
200,-1.0195312,0.005859375,0.020507812,-1.0,0.78125,-0.28125
201,-1.0195312,-0.001953125,0.01171875,-0.28125,0.59375,-0.28125
202,-1.0175781,0.015625,-0.005859375,-1.375,1.09375,-0.40625
203,-1.0263672,0.009765625,0.017578125,-0.6875,0.40625,-0.21875
204,-1.0195312,0.005859375,0.0009765625,-0.21875,0.84375,0.03125
205,-1.0224609,0.0048828125,0.0029296875,-0.03125,1.03125,-0.34375
206,-1.0146484,0.0048828125,0.0029296875,0.28125,0.78125,-0.03125
207,-1.015625,0.0048828125,0.021484375,-0.15625,0.40625,0.15625
208,-1.0136719,0.00390625,0.0029296875,-0.21875,0.53125,-0.09375
209,-1.0253906,0.0029296875,0.01953125,0.09375,0.34375,0.15625
210,-1.0136719,0.0068359375,0.0009765625,0.28125,0.21875,0.15625
211,-1.0166016,0.0029296875,0.0107421875,-0.40625,0.21875,0.03125
212,-1.0195312,0.005859375,0.0107421875,-0.03125,0.15625,0.03125
213,-1.0253906,0.0126953125,0.0048828125,0.21875,0.09375,-0.03125
214,-1.0224609,0.0146484375,-0.0126953125,-0.46875,-0.125,-0.03125
215,-1.0195312,0.015625,0.0068359375,-0.09375,0.09375,0.03125
216,-1.0205078,0.0126953125,0.005859375,0.03125,0.09375,0.15625
217,-1.0175781,0.00390625,0.0029296875,-0.46875,-0.125,-0.09375
218,-1.0244141,0.0126953125,0.016601562,-0.53125,0.09375,0.09375
219,-1.0175781,0.00390625,0.0146484375,-0.46875,0.15625,0.21875
220,-1.0195312,0.0048828125,0.0087890625,-0.625,0.03125,0.03125
221,-1.0175781,0.0048828125,0.0087890625,-0.40625,0.34375,-0.03125
222,-1.0244141,0.018554688,0.0087890625,0.34375,0.03125,0.21875
223,-1.0185547,0.013671875,0.0029296875,0.03125,0.28125,-0.03125
224,-1.0136719,0.0126953125,0.001953125,-0.53125,0.09375,-0.03125
225,-1.0322266,0.009765625,0.0078125,0.15625,0.28125,0.28125
226,-1.0205078,-0.001953125,0.0078125,-0.625,0.03125,0.03125
227,-1.0214844,0.009765625,0.01171875,0.03125,0.34375,0.03125
228,-1.0224609,0.01171875,0.0078125,0.03125,0.03125,0.09375
229,-1.0136719,0.00390625,0.0029296875,-0.03125,0.09375,0.09375
230,-1.0175781,0.0068359375,0.013671875,0.09375,0.21875,-0.09375
231,-1.0117188,0.013671875,0.0107421875,0.28125,0.21875,0.09375
232,-1.0224609,0.01171875,0.00390625,0.40625,0.15625,-0.03125
233,-1.0166016,0.018554688,0.0087890625,0.59375,0.21875,0.03125
234,-1.015625,0.018554688,0.005859375,-0.03125,0.28125,-0.03125
235,-1.0117188,0.0146484375,0.015625,-0.75,0.0,-0.03125
236,-1.0214844,0.0107421875,0.015625,-0.34375,0.03125,0.21875
237,-1.0195312,0.0087890625,0.017578125,-0.875,0.0,0.09375
238,-1.0195312,0.01171875,0.0029296875,-0.34375,0.28125,0.15625
239,-1.0205078,0.013671875,-0.00390625,-0.46875,0.03125,0.15625
240,-1.0273438,0.009765625,-0.001953125,-0.15625,0.0,-0.03125
241,-1.0185547,0.01171875,0.016601562,-0.09375,0.09375,-0.03125
242,-1.0292969,0.0078125,0.009765625,-0.09375,-0.0625,-0.09375
243,-1.0263672,0.00390625,-0.009765625,1.25,0.03125,-0.03125
244,-1.0253906,0.015625,-0.001953125,2.34375,0.28125,-0.21875
245,-1.0224609,0.022460938,0.01953125,1.6875,0.0,-0.09375
246,-1.0253906,0.030273438,-0.001953125,0.40625,-0.375,0.03125
247,-1.0195312,0.01171875,-0.0068359375,-1.1875,-0.625,0.03125
248,-1.0166016,0.013671875,0.0009765625,-1.0625,-0.375,0.15625
249,-1.0253906,0.0107421875,0.005859375,-2.28125,-0.625,-0.03125
250,-1.0205078,0.01171875,-0.0029296875,-2.71875,-0.875,-0.09375
251,-1.0224609,0.001953125,0.0068359375,-1.5625,-0.5625,0.03125
252,-1.0136719,0.005859375,0.0068359375,-0.46875,-0.0625,0.09375
253,-1.0244141,0.00390625,0.0107421875,0.03125,0.0,-0.03125
254,-1.015625,0.013671875,0.020507812,0.65625,-0.25,0.03125
255,-1.0126953,0.009765625,-0.001953125,0.09375,-0.25,0.03125
256,-1.0078125,0.0107421875,0.0087890625,0.34375,-0.4375,-0.40625
257,-1.0244141,0.0126953125,0.0126953125,0.9375,0.09375,-0.09375
258,-1.0244141,0.017578125,0.0068359375,0.15625,0.03125,-0.03125
259,-1.0175781,0.01171875,0.0107421875,0.28125,0.34375,-0.09375
260,-1.0166016,0.0029296875,0.00390625,0.71875,-0.0625,0.09375
261,-1.0244141,0.01953125,0.02734375,1.0625,0.21875,-0.09375
262,-1.0253906,0.030273438,0.00390625,0.875,0.09375,-0.03125
263,-1.0146484,0.016601562,0.0048828125,0.40625,0.03125,0.03125
264,-1.0107422,0.013671875,0.013671875,-0.03125,0.0,0.09375
265,-1.0185547,0.018554688,0.0009765625,0.09375,0.28125,-0.09375
266,-1.0195312,0.016601562,0.0078125,-0.15625,0.03125,-0.28125
267,-1.0166016,0.0146484375,0.001953125,-0.59375,0.21875,-0.15625
268,-1.0205078,0.0107421875,0.00390625,-1.0,0.15625,-0.28125
269,-1.0273438,0.009765625,0.0126953125,-1.0,0.0,-0.28125
270,-1.0185547,0.0126953125,0.01171875,-0.40625,0.0,-0.21875
271,-1.0263672,0.0048828125,-0.0087890625,-0.875,-0.0625,-0.46875
272,-1.0234375,0.005859375,0.0,-0.34375,-0.25,-0.34375
273,-1.0166016,0.0146484375,0.00390625,-0.40625,-0.3125,-0.21875
274,-1.0166016,0.016601562,0.0087890625,-0.625,-0.25,-0.15625
275,-1.0205078,0.00390625,0.020507812,-1.8125,-0.25,0.03125
276,-1.0224609,-0.0009765625,0.0126953125,-0.6875,-0.1875,-0.03125
277,-1.0361328,0.0078125,0.0048828125,0.59375,0.03125,-0.34375
278,-1.0224609,0.022460938,0.005859375,1.1875,-0.25,0.09375
279,-1.0283203,0.005859375,0.0048828125,0.46875,-0.25,-0.34375
280,-1.0175781,0.018554688,0.0009765625,0.59375,-0.0625,-0.03125
281,-1.0166016,0.0048828125,0.009765625,0.46875,0.0,-0.09375
282,-1.0166016,0.0126953125,0.0029296875,0.21875,0.09375,-0.21875
283,-1.0136719,0.01171875,0.00390625,0.46875,-0.125,-0.09375
284,-1.0166016,0.01171875,0.0029296875,0.46875,0.09375,-0.21875
285,-1.0273438,0.0126953125,0.0107421875,0.28125,-0.0625,0.09375
286,-1.0195312,0.0146484375,0.0107421875,-0.28125,0.09375,-0.15625
287,-1.0146484,0.013671875,0.0146484375,-0.40625,0.15625,-0.21875
288,-1.0234375,0.0078125,0.0126953125,-0.46875,-0.0625,-0.21875
289,-1.0205078,0.0087890625,0.0009765625,-0.875,-0.1875,-0.09375
290,-1.0185547,0.00390625,0.001953125,-0.34375,0.0,0.09375
291,-1.0166016,0.0078125,0.009765625,-0.46875,-0.0625,-0.03125
292,-1.0117188,0.001953125,0.00390625,-0.59375,-0.0625,0.03125
293,-1.0195312,-0.005859375,0.0107421875,0.59375,0.03125,0.15625
294,-1.0146484,0.0009765625,-0.0009765625,1.4375,0.21875,0.15625
295,-1.0175781,0.013671875,0.0068359375,1.75,-0.0625,0.21875
296,-1.0185547,0.01953125,-0.0048828125,0.75,0.0,0.15625
297,-1.0126953,0.021484375,0.013671875,1.4375,0.03125,0.375
298,-1.0146484,0.005859375,0.00390625,-0.15625,-0.1875,0.15625
299,-1.0214844,0.0126953125,0.0009765625,0.34375,0.46875,0.15625
300,-1.0205078,0.0068359375,0.016601562,0.34375,0.0,-0.15625
301,-1.0214844,0.015625,0.00390625,0.28125,0.03125,-0.03125
302,-1.0234375,0.01953125,0.0029296875,-0.21875,-0.25,0.15625
303,-1.0273438,0.01953125,0.0087890625,-0.9375,0.0,0.03125
304,-1.0263672,0.0087890625,0.01953125,-1.5625,0.0,0.15625
305,-1.0234375,0.0078125,0.00390625,-0.8125,0.21875,-0.03125
306,-1.0195312,0.020507812,0.0087890625,-1.3125,0.15625,-0.28125
307,-1.0136719,0.015625,0.00390625,-1.3125,0.15625,-0.15625
308,-1.0253906,0.020507812,0.005859375,-0.8125,0.03125,-0.09375
309,-1.0175781,0.016601562,0.009765625,-1.75,0.03125,0.09375
310,-1.0214844,0.005859375,0.01171875,-1.625,0.21875,-0.09375
311,-1.0146484,0.00390625,0.005859375,-1.0625,0.34375,-0.15625
312,-1.0126953,0.009765625,0.0029296875,-0.75,0.28125,-0.28125
313,-1.0244141,0.0078125,0.0068359375,-0.28125,0.40625,-0.28125
314,-1.0253906,0.0048828125,-0.001953125,0.03125,0.21875,-0.21875
315,-1.0146484,0.0234375,0.0009765625,-0.28125,0.21875,-0.15625
316,-1.0195312,0.0087890625,0.005859375,-0.28125,0.21875,-0.09375
317,-1.0185547,0.013671875,0.0,-0.21875,0.15625,-0.09375
318,-1.0224609,0.0234375,0.005859375,0.09375,0.15625,-0.15625
319,-1.0146484,0.0126953125,0.0,0.15625,0.09375,-0.21875
320,-1.0175781,0.0087890625,-0.005859375,0.15625,-0.125,-0.21875
321,-1.0224609,0.0146484375,0.01171875,-0.28125,-0.1875,-0.09375
322,-1.0136719,0.0087890625,-0.0029296875,-0.34375,0.09375,-0.21875
323,-1.0175781,0.0107421875,0.0048828125,0.59375,0.21875,-0.15625
324,-1.0185547,0.0146484375,0.00390625,-0.21875,0.03125,-0.15625
325,-1.0136719,0.009765625,0.0087890625,0.03125,-0.125,-0.21875
326,-1.0205078,0.00390625,-0.001953125,0.71875,0.21875,-0.15625
327,-1.015625,0.018554688,0.001953125,-0.15625,0.15625,-0.03125
328,-1.0205078,0.0078125,0.013671875,-0.59375,0.15625,0.09375
329,-1.0253906,0.0048828125,0.0,-0.34375,0.21875,-0.03125
330,-1.0214844,0.0048828125,0.022460938,-0.28125,0.15625,-0.03125
331,-1.0205078,0.0068359375,0.001953125,-0.15625,0.09375,-0.15625
332,-1.0263672,0.01171875,0.0068359375,0.46875,0.09375,-0.21875
333,-1.0214844,0.009765625,0.0068359375,0.65625,0.28125,0.15625
334,-1.0136719,0.022460938,0.0,-0.03125,0.28125,-0.28125
335,-1.0175781,0.0126953125,0.005859375,0.34375,0.21875,0.09375
336,-1.0166016,0.0078125,0.0107421875,0.21875,0.46875,-0.09375
337,-1.0273438,0.013671875,0.0087890625,0.34375,0.28125,0.03125
338,-1.0185547,0.015625,0.009765625,0.59375,0.0,-0.09375
339,-1.0097656,0.0087890625,0.001953125,0.65625,-0.0625,-0.09375
340,-1.0224609,0.0068359375,0.00390625,0.75,-0.1875,0.09375
341,-1.0244141,0.0078125,0.0107421875,0.875,0.09375,-0.15625
342,-1.0175781,0.01171875,-0.001953125,0.40625,-0.0625,-0.28125
343,-1.0175781,0.0146484375,-0.0029296875,0.21875,-0.125,-0.21875
344,-1.0322266,0.01171875,0.0,0.8125,0.03125,-0.21875
345,-1.0146484,0.018554688,0.005859375,0.21875,0.09375,-0.15625
346,-1.0107422,0.015625,0.01171875,0.15625,-0.125,0.03125
347,-1.0214844,0.0068359375,0.015625,-0.28125,-0.125,-0.09375
348,-1.0214844,0.0126953125,0.009765625,-0.09375,-0.0625,-0.09375
349,-1.0087891,0.00390625,0.016601562,-0.34375,-0.125,-0.21875
350,-1.0214844,0.01171875,0.0,0.53125,-0.125,-0.03125
351,-1.0273438,0.0146484375,-0.00390625,0.8125,0.21875,-0.09375
352,-1.0205078,0.015625,0.0029296875,-0.15625,-0.3125,0.09375
353,-1.0146484,0.0087890625,0.009765625,-0.15625,-0.25,-0.09375
354,-1.0224609,0.016601562,0.00390625,0.09375,0.09375,-0.03125
355,-1.0146484,0.0146484375,0.01171875,-0.09375,-0.1875,-0.03125
356,-1.0107422,0.0146484375,0.0029296875,-0.21875,-0.375,-0.03125
357,-1.0263672,0.018554688,0.0068359375,-0.21875,-0.125,-0.15625
358,-1.0166016,0.0146484375,0.0087890625,-0.625,-0.25,-0.03125
359,-1.0175781,0.005859375,0.0,-0.875,-0.3125,-0.03125
360,-1.0283203,0.0087890625,0.005859375,-0.03125,-0.0625,-0.15625
361,-1.015625,0.015625,0.016601562,0.15625,0.03125,-0.21875
362,-1.0273438,0.029296875,0.0234375,4.25,4.625,0.5
363,-1.015625,-0.005859375,-0.0029296875,1.5,1.8125,0.8125
364,-1.0205078,0.021484375,-0.009765625,4.1875,1.375,1.1875
365,-1.0224609,0.009765625,0.0068359375,2.40625,1.09375,1.0
366,-1.0214844,-0.0048828125,-0.018554688,1.6875,1.15625,0.4375
367,-1.0175781,0.016601562,-0.0146484375,1.375,1.28125,-0.21875
368,-1.0185547,0.018554688,0.0078125,0.59375,0.71875,-0.28125
369,-1.0302734,0.016601562,-0.0068359375,0.40625,-0.3125,-0.09375
370,-1.0214844,0.016601562,-0.0078125,-0.15625,-0.875,-0.40625
371,-1.0185547,0.013671875,-0.013671875,-0.59375,-0.875,-0.46875
372,-1.0214844,0.020507812,0.0009765625,0.15625,-0.375,-0.28125
373,-1.0244141,0.0107421875,-0.0029296875,-1.0,-1.34375,-0.53125
374,-1.0273438,0.018554688,-0.001953125,-1.0625,-2.09375,-0.40625
375,-1.0224609,0.0126953125,-0.024414062,-2.71875,-2.8125,-0.71875
376,-1.0234375,0.017578125,0.0078125,-2.46875,-3.375,-0.90625
377,-1.0175781,0.0078125,0.013671875,-2.09375,-1.25,-0.96875
378,-1.0117188,0.015625,0.0068359375,-1.625,-0.8125,-0.84375
379,-1.0185547,0.013671875,0.0078125,-0.53125,-0.375,-0.21875
380,-1.0205078,0.015625,0.01171875,-0.9375,-1.125,-0.40625
381,-1.0224609,0.015625,0.00390625,-1.125,-0.8125,-0.46875
382,-1.0166016,0.0146484375,0.017578125,-0.40625,-0.625,-0.15625
383,-1.0107422,0.018554688,0.0126953125,-0.28125,-0.8125,0.03125
384,-1.0166016,0.013671875,0.0068359375,-0.75,-0.125,-0.28125
385,-1.0205078,0.001953125,0.01953125,-0.75,-0.625,0.03125
386,-1.0185547,0.0107421875,0.0068359375,-0.53125,-0.625,-0.09375
387,-1.0205078,0.01171875,0.020507812,-0.28125,-0.4375,-0.28125
388,-1.0146484,0.0146484375,0.0126953125,-0.53125,-0.3125,-0.15625
389,-1.0195312,0.009765625,0.0048828125,-0.59375,-0.375,-0.21875
390,-1.0166016,0.00390625,0.0068359375,-0.6875,-0.3125,-0.09375
391,-1.0214844,0.0107421875,0.0068359375,0.40625,0.09375,-0.03125
392,-1.0195312,0.016601562,0.0068359375,-0.15625,0.03125,-0.21875
393,-1.0175781,0.0078125,0.0029296875,0.15625,-0.1875,-0.03125
394,-1.0214844,0.01953125,0.0078125,0.46875,0.0,-0.09375
395,-1.0146484,-0.0029296875,0.001953125,0.09375,0.09375,0.03125
396,-1.0234375,0.0068359375,-0.005859375,0.59375,0.21875,0.09375
397,-1.0273438,0.009765625,0.0078125,0.75,0.09375,-0.09375
398,-1.0185547,0.0087890625,0.013671875,0.59375,0.21875,-0.15625
399,-1.0175781,0.00390625,0.0029296875,0.21875,-0.0625,-0.09375
400,-1.0224609,0.0126953125,0.0107421875,1.1875,0.09375,-0.03125
401,-1.0195312,0.005859375,0.009765625,0.53125,-0.125,-0.03125
402,-1.0302734,0.015625,0.013671875,0.40625,-0.125,0.28125
403,-1.0087891,0.009765625,0.015625,-0.03125,-0.0625,0.09375
404,-1.0322266,0.005859375,0.0068359375,-0.40625,-0.5625,-0.21875
405,-1.0175781,0.0126953125,0.0078125,0.09375,-0.75,-0.15625
406,-1.0126953,0.005859375,0.009765625,-0.625,-0.75,-0.28125
407,-1.0136719,0.0107421875,0.0029296875,0.15625,-0.4375,-0.40625
408,-1.0263672,0.0068359375,0.017578125,0.28125,-0.5625,-0.28125
409,-1.0185547,0.0078125,0.009765625,-0.15625,-1.0,-0.28125
410,-1.0263672,0.0068359375,0.0126953125,-0.34375,-0.9375,-0.46875
411,-1.0195312,-0.0029296875,0.009765625,0.75,-0.8125,-0.46875
412,-1.0253906,0.013671875,0.001953125,0.8125,-0.375,-0.46875
413,-1.0244141,0.005859375,0.017578125,-0.40625,-0.9375,-0.53125
414,-1.0097656,0.0078125,0.022460938,0.46875,-0.6875,-0.28125
415,-1.0234375,0.01171875,0.0107421875,1.0,-0.5625,-0.40625
416,-1.0146484,-0.0029296875,0.0029296875,0.46875,-0.625,-0.34375
417,-1.0146484,0.005859375,0.0107421875,1.1875,-0.75,-0.34375
418,-1.0136719,0.001953125,0.0068359375,1.75,-0.875,-0.34375
419,-1.0214844,0.00390625,0.016601562,0.875,-1.0625,-0.21875
420,-1.0205078,0.017578125,0.02734375,0.65625,-1.1875,-0.15625
421,-1.0244141,0.005859375,0.015625,1.0625,-0.6875,0.03125
422,-1.0205078,0.0048828125,0.024414062,0.71875,-0.625,-0.09375
423,-1.0185547,0.009765625,0.022460938,-0.09375,-1.0,-0.21875
424,-1.0205078,0.01171875,0.034179688,0.46875,-1.0625,0.28125
425,-1.0273438,0.01171875,0.0107421875,0.09375,-0.875,0.09375
426,-1.0253906,0.01171875,0.036132812,0.28125,-0.4375,-0.21875
427,-1.0185547,0.0068359375,0.017578125,0.15625,-0.625,-0.28125
428,-1.0185547,0.0009765625,0.033203125,0.09375,-0.875,-0.21875
429,-1.0234375,0.0048828125,0.02734375,0.53125,-0.5,-0.28125
430,-1.015625,0.0078125,0.030273438,0.71875,-0.375,-0.28125
431,-1.0166016,0.0068359375,0.015625,0.40625,-0.375,-0.21875
432,-1.0195312,0.0146484375,0.032226562,0.9375,-0.375,-0.21875
433,-1.0107422,0.00390625,0.024414062,0.53125,-0.375,-0.15625
434,-1.0214844,0.005859375,0.021484375,0.59375,-0.1875,-0.21875
435,-1.0166016,0.009765625,0.026367188,-0.46875,-0.375,-0.34375
436,-1.0185547,0.0,0.016601562,0.03125,-0.25,-0.21875
437,-1.0253906,0.01171875,0.02734375,0.15625,-0.25,-0.15625
438,-1.0234375,0.0078125,0.015625,-0.46875,-0.375,-0.21875
439,-1.0058594,0.0087890625,0.026367188,0.09375,-0.4375,-0.09375
440,-1.0126953,0.0,0.018554688,-0.28125,-0.5,-0.09375
441,-1.0175781,0.0048828125,0.0234375,0.65625,-0.5625,-0.09375
442,-1.015625,0.0107421875,0.025390625,0.15625,-0.5625,-0.21875
443,-1.015625,0.0087890625,0.013671875,0.15625,-0.75,0.03125
444,-1.0234375,0.0078125,0.018554688,-0.09375,-0.3125,-0.28125
445,-1.015625,0.01171875,0.02734375,-0.15625,-0.5,-0.09375
446,-1.0244141,0.0078125,0.0078125,-0.34375,-0.5625,0.28125
447,-1.0175781,-0.005859375,0.030273438,0.34375,-0.0625,0.03125
448,-1.03125,0.021484375,0.024414062,0.875,0.15625,0.09375
449,-1.0136719,0.0146484375,0.024414062,-0.21875,-0.25,0.5
450,-1.0117188,0.0087890625,0.029296875,-0.75,0.09375,-0.03125
451,-1.0234375,0.013671875,0.034179688,-0.8125,0.34375,-0.46875
452,-1.0273438,0.0078125,0.029296875,-0.75,0.28125,-0.21875
453,-1.0185547,0.001953125,0.025390625,-0.875,0.15625,-0.03125
454,-1.0214844,0.005859375,0.0234375,-1.0625,0.65625,-0.34375
455,-1.0195312,0.0029296875,0.015625,-0.875,0.59375,0.09375
456,-1.0283203,0.0107421875,0.01171875,-1.1875,0.34375,-0.15625
457,-1.0253906,0.005859375,0.0146484375,-0.59375,0.21875,-0.03125
458,-1.0175781,0.0146484375,0.0234375,-0.59375,0.15625,-0.03125
459,-1.0234375,0.0009765625,0.020507812,-1.0,0.15625,-0.15625
460,-1.0107422,0.0048828125,0.0234375,-0.03125,0.09375,0.09375
461,-1.0253906,0.0126953125,0.0126953125,0.75,0.28125,0.03125
462,-1.0146484,0.009765625,0.033203125,-0.21875,-0.0625,0.03125
463,-1.0224609,0.0078125,0.0107421875,-0.8125,-0.125,0.03125
464,-1.0224609,0.0048828125,0.015625,-0.03125,0.46875,-0.21875
465,-1.0263672,0.0048828125,0.02734375,-0.03125,0.40625,-0.03125
466,-1.0263672,-0.0009765625,0.0234375,-0.8125,0.0,0.09375
467,-1.0234375,0.0068359375,0.030273438,0.59375,0.71875,0.09375
468,-1.0107422,0.0068359375,0.0078125,0.28125,0.78125,0.09375
469,-1.0234375,0.00390625,0.0234375,-0.28125,0.59375,0.03125
470,-1.0195312,0.01171875,0.0234375,0.09375,0.78125,-0.09375
471,-1.0244141,0.0146484375,0.0234375,-0.34375,0.71875,-0.21875
472,-1.0175781,0.00390625,0.02734375,-0.59375,0.46875,-0.03125
473,-1.0195312,0.0087890625,0.015625,-0.75,0.71875,-0.03125
474,-1.0107422,0.0068359375,0.018554688,-0.875,0.40625,-0.09375
475,-1.0205078,0.0029296875,0.0068359375,0.09375,0.28125,0.21875
476,-1.0224609,0.01171875,0.0068359375,0.28125,0.34375,0.28125
477,-1.0205078,0.0078125,0.013671875,-0.15625,0.28125,0.3125
478,-1.015625,0.0126953125,0.0107421875,-0.21875,0.03125,0.21875
479,-1.0107422,0.0087890625,0.017578125,0.09375,0.28125,0.09375
480,-1.0205078,0.0068359375,0.026367188,0.40625,0.21875,0.09375
481,-1.0136719,0.021484375,0.026367188,0.03125,0.84375,0.21875
482,-1.03125,0.00390625,0.0078125,-1.0,0.53125,0.15625
483,-1.0166016,0.0068359375,0.0146484375,-0.8125,0.59375,0.15625
484,-1.0117188,0.00390625,0.015625,-0.03125,0.96875,0.09375
485,-1.0263672,0.0029296875,0.028320312,0.34375,0.96875,0.09375
486,-1.0205078,0.0126953125,-0.0009765625,1.1875,0.71875,-0.28125
487,-1.0292969,0.016601562,0.0234375,0.34375,0.46875,-0.21875
488,-1.0107422,0.015625,-0.00390625,-0.15625,0.0,0.09375
489,-1.0234375,0.015625,0.0,-0.21875,0.28125,-0.21875
490,-1.0175781,0.0087890625,0.0146484375,-0.59375,0.03125,0.03125
491,-1.0166016,0.0068359375,0.009765625,-0.53125,-0.25,0.15625
492,-1.0302734,0.0029296875,0.001953125,-0.15625,0.0,-0.28125
493,-1.0175781,0.00390625,0.018554688,-0.28125,-0.5,-0.40625
494,-1.0185547,0.013671875,0.0029296875,-0.09375,-0.5,-0.15625
495,-1.0224609,0.01171875,0.0126953125,0.875,0.28125,0.15625
496,-1.0185547,0.0068359375,0.0048828125,0.40625,0.09375,0.03125
497,-1.0205078,0.016601562,0.0107421875,0.34375,-0.0625,-0.15625
498,-1.0126953,0.01953125,0.0068359375,0.03125,-0.0625,-0.09375
499,-1.0195312,0.0087890625,0.009765625,-0.75,-0.375,0.03125
500,-1.0234375,0.0,0.00390625,-0.6875,-0.3125,0.03125
501,-1.0117188,0.00390625,0.0068359375,0.15625,-0.1875,0.15625
502,-1.0205078,0.005859375,0.0078125,-0.03125,0.03125,-0.09375
503,-1.0214844,0.013671875,0.00390625,-0.03125,0.15625,-0.15625
504,-1.0205078,0.0087890625,0.016601562,-0.53125,-0.0625,-0.21875
505,-1.0146484,0.0107421875,0.009765625,-0.28125,-0.125,-0.03125
506,-1.0175781,0.0029296875,0.00390625,0.65625,0.34375,-0.21875
507,-1.0214844,0.0078125,0.013671875,0.21875,0.09375,-0.09375
508,-1.0175781,0.01171875,0.015625,-0.6875,0.15625,0.03125
509,-1.0185547,0.00390625,0.0009765625,-0.03125,0.40625,0.09375
510,-1.015625,0.00390625,0.013671875,-0.09375,0.21875,0.03125
511,-1.0126953,0.005859375,-0.0009765625,0.03125,0.15625,-0.03125
512,-1.0214844,0.0234375,0.0087890625,1.75,0.53125,-0.03125
513,-1.0195312,0.017578125,0.005859375,0.8125,0.46875,-0.03125
514,-1.03125,0.013671875,0.01953125,-0.21875,0.28125,0.03125
515,-1.0185547,0.0078125,0.0029296875,-0.46875,0.34375,-0.03125
516,-1.0273438,0.0107421875,0.0,0.03125,0.40625,0.09375
517,-1.0166016,0.009765625,0.015625,-0.34375,0.40625,0.09375
518,-1.0185547,0.017578125,0.0,-0.21875,0.09375,0.03125
519,-1.0205078,0.005859375,0.001953125,-0.15625,0.21875,0.375
520,-1.0205078,0.01171875,0.005859375,-0.40625,0.28125,0.15625
521,-1.0234375,0.024414062,0.0087890625,-0.3125,0.25,0.03125
522,-1.0146484,0.015625,0.020507812,-1.28125,0.0,0.40625
523,-1.0253906,0.015625,0.0068359375,-1.03125,0.3125,0.15625
524,-1.0097656,0.020507812,0.0078125,-0.65625,0.25,0.40625
525,-1.0224609,0.0146484375,0.009765625,-0.5,0.375,0.28125
526,-1.0214844,0.016601562,0.01953125,-0.5,0.375,-0.09375
527,-1.0224609,0.015625,-0.0029296875,-0.125,0.1875,0.28125
528,-1.0175781,0.015625,0.017578125,-0.96875,0.3125,0.15625
529,-1.0302734,0.01171875,0.00390625,-0.59375,0.4375,-0.03125
530,-1.0166016,0.015625,0.0078125,-1.28125,0.125,0.15625
531,-1.0234375,0.0078125,0.0009765625,-0.59375,0.1875,0.15625
532,-1.0244141,0.0087890625,0.0029296875,-0.0625,0.1875,0.03125
533,-1.0224609,0.018554688,-0.0068359375,-0.125,0.125,-0.34375
534,-1.0166016,0.0048828125,-0.005859375,0.375,-0.25,0.03125
535,-1.0263672,0.0048828125,0.0,0.3125,-0.1875,0.15625
536,-1.0185547,0.005859375,-0.0087890625,-0.125,0.0,0.09375
537,-1.0195312,0.020507812,-0.0009765625,0.0,0.1875,-0.09375
538,-1.0224609,0.0126953125,0.013671875,-0.5,-0.25,0.09375
539,-1.0224609,0.001953125,0.0048828125,0.0,-0.1875,0.15625
540,-1.0175781,0.013671875,0.015625,0.96875,0.0,-0.15625
541,-1.0224609,0.015625,-0.00390625,0.6875,-0.0625,-0.09375
542,-1.0107422,0.01953125,0.0087890625,0.96875,0.0,0.09375
543,-1.0234375,0.0107421875,-0.0029296875,0.0,-0.0625,-0.03125
544,-1.0224609,0.0126953125,0.0068359375,0.25,-0.25,-0.09375
545,-1.0234375,0.017578125,0.0087890625,0.8125,0.0625,-0.09375
546,-1.0185547,0.013671875,-0.0029296875,0.5625,-0.0625,-0.15625
547,-1.0175781,0.01953125,0.0009765625,0.125,-0.125,-0.15625
548,-1.0214844,0.025390625,0.0009765625,-0.0625,-0.0625,0.03125
549,-1.0195312,0.015625,0.0,-0.3125,0.0,0.09375
550,-1.0195312,0.0146484375,0.015625,0.3125,0.0625,-0.09375
551,-1.0087891,0.0029296875,0.0009765625,0.4375,-0.125,0.03125
552,-1.0166016,0.01953125,-0.0048828125,0.84375,-0.125,-0.03125
553,-1.0195312,0.0146484375,0.00390625,1.28125,-0.125,0.03125
554,-1.0195312,0.013671875,0.009765625,0.96875,0.125,-0.15625
555,-1.0234375,0.01953125,0.0087890625,-0.375,-0.25,-0.21875
556,-1.0195312,0.0126953125,0.0068359375,0.1875,-0.125,0.03125
557,-1.0253906,0.0107421875,0.0078125,0.375,-0.125,-0.21875
558,-1.0166016,0.016601562,0.0068359375,0.96875,0.0625,-0.15625
559,-1.0205078,0.015625,0.0029296875,0.1875,0.0,0.09375
560,-1.0136719,0.0107421875,-0.001953125,-0.1875,-0.1875,-0.03125
561,-1.0234375,0.009765625,0.009765625,0.0625,0.0,-0.03125
562,-1.0175781,0.0029296875,-0.0087890625,0.125,0.0625,-0.03125
563,-1.0283203,0.015625,-0.001953125,0.0,-0.1875,-0.03125
564,-1.0146484,0.018554688,-0.0078125,0.0625,-0.25,-0.09375
565,-1.015625,0.0234375,0.001953125,-0.0625,-0.4375,-0.03125
566,-1.0195312,0.018554688,0.01953125,-0.4375,-0.625,0.03125
567,-1.0234375,0.005859375,0.0146484375,-0.375,-0.375,-0.09375
568,-1.0175781,0.005859375,0.0009765625,0.5,-0.0625,-0.28125
569,-1.0253906,0.0146484375,0.005859375,-0.125,-0.5625,-0.03125
570,-1.0224609,0.0078125,-0.0087890625,-0.125,-0.6875,-0.28125
571,-1.0244141,0.0048828125,-0.0048828125,0.4375,-0.5,-0.03125
572,-1.0107422,0.016601562,0.009765625,0.5,-0.5,-0.03125
573,-1.0185547,0.0078125,0.0068359375,0.1875,-0.4375,-0.03125
574,-1.0126953,0.0126953125,-0.0078125,0.5,-0.4375,-0.09375
575,-1.0292969,0.00390625,-0.005859375,0.625,-0.5,-0.21875
576,-1.0136719,0.01171875,0.0029296875,0.8125,-0.3125,-0.03125
577,-1.0146484,0.016601562,0.009765625,0.5625,-0.1875,-0.09375
578,-1.0166016,0.015625,-0.0048828125,0.5625,-0.1875,-0.03125
579,-1.0195312,0.01171875,0.0,-0.0625,-0.25,-0.03125
580,-1.0166016,0.013671875,0.0048828125,0.1875,-0.1875,-0.03125
581,-1.0224609,0.009765625,-0.00390625,-0.0625,-0.25,-0.03125
582,-1.0136719,0.009765625,-0.0068359375,-0.375,-0.3125,-0.09375
583,-1.015625,0.013671875,0.0,0.1875,-0.0625,-0.09375
584,-1.0166016,0.018554688,-0.001953125,-0.375,-0.25,0.09375
585,-1.0185547,0.0107421875,0.0078125,-0.5,-0.125,-0.03125
586,-1.0185547,0.01171875,0.0048828125,0.0,-0.0625,0.03125
587,-1.0175781,0.0126953125,0.0029296875,-0.1875,-0.25,-0.09375
588,-1.0263672,0.0146484375,0.0087890625,-0.1875,-0.0625,-0.03125
589,-1.0185547,0.016601562,0.00390625,-0.25,-0.125,0.09375
590,-1.0322266,0.0107421875,-0.0029296875,-0.125,0.0625,-0.03125
591,-1.0136719,0.01171875,-0.0029296875,-0.375,-0.25,0.09375
592,-1.0126953,0.0126953125,0.0009765625,0.1875,0.0625,-0.15625
593,-1.0253906,0.01171875,0.005859375,0.3125,-0.1875,0.09375
594,-1.0302734,0.009765625,0.013671875,0.0,0.0,-0.15625
595,-1.0185547,0.015625,-0.0009765625,-0.4375,-0.375,0.03125
596,-1.015625,0.018554688,0.0068359375,-0.65625,0.125,0.03125
597,-1.0234375,0.0107421875,-0.001953125,0.125,0.125,0.09375
598,-1.0195312,0.013671875,0.0068359375,0.0,-0.0625,-0.34375
599,-1.0244141,0.022460938,0.01171875,0.1875,-0.1875,-0.09375
600,-1.0166016,0.005859375,0.005859375,0.4375,-0.25,-0.28125
601,-1.0185547,0.020507812,0.001953125,-0.375,-0.25,-0.71875
602,-1.0185547,0.022460938,0.0009765625,-0.375,-0.375,-0.15625
603,-1.0185547,0.0078125,0.001953125,-0.71875,-0.1875,-0.21875
604,-1.0263672,0.0078125,0.0029296875,-0.25,-0.1875,-0.34375
605,-1.0224609,0.005859375,0.0029296875,0.84375,-0.1875,-0.21875
606,-1.015625,0.017578125,-0.0068359375,0.8125,-0.3125,-0.15625
607,-1.0205078,0.0107421875,0.01171875,-0.0625,-0.5,-0.15625
608,-1.0175781,0.0146484375,0.005859375,-0.0625,-0.375,-0.15625
609,-1.0195312,0.0029296875,0.0009765625,-0.375,-0.4375,-0.09375
610,-1.0224609,0.015625,-0.001953125,0.125,-0.25,-0.34375
611,-1.0185547,0.005859375,0.0087890625,0.25,-0.625,-0.34375
612,-1.0087891,0.009765625,0.00390625,0.4375,-0.5,-0.21875
613,-1.0273438,0.0087890625,0.005859375,0.375,-0.4375,-0.09375
614,-1.0136719,0.0234375,0.00390625,0.375,-0.25,-0.28125
615,-1.0195312,0.013671875,0.00390625,0.0,-0.375,-0.21875
616,-1.0234375,0.0087890625,-0.005859375,0.4375,-0.3125,-0.21875
617,-1.0273438,0.013671875,0.009765625,0.25,-0.25,-0.40625
618,-1.0244141,0.013671875,0.0029296875,-0.0625,-0.5625,-0.28125
619,-1.0234375,0.016601562,0.0087890625,-0.09375,-0.1875,0.0625
620,-1.0195312,0.0078125,-0.0048828125,0.15625,0.03125,-0.0625
621,-1.0253906,0.0107421875,0.009765625,-0.09375,-0.1875,-0.25
622,-1.0195312,0.009765625,0.0078125,0.4375,-0.03125,-0.1875
623,-1.015625,0.0068359375,0.0009765625,0.28125,0.03125,-0.0625
624,-1.0068359,0.0126953125,0.0029296875,0.09375,-0.09375,-0.1875
625,-1.0224609,0.009765625,0.0,-0.03125,-0.1875,-0.1875
626,-1.0185547,0.0146484375,-0.0009765625,-0.09375,-0.375,0.0625
627,-1.0136719,0.0107421875,-0.001953125,-0.40625,-0.3125,-0.0625
628,-1.0175781,0.015625,0.015625,-0.09375,-0.4375,-0.25
629,-1.0195312,0.01171875,0.009765625,0.21875,-0.375,0.0625
630,-1.0205078,0.013671875,0.0009765625,1.25,-0.125,0.125
631,-1.0195312,0.018554688,0.001953125,0.625,-0.09375,-0.1875
632,-1.0224609,0.013671875,0.0107421875,0.09375,-0.375,0.125
633,-1.0146484,0.0126953125,-0.0048828125,0.3125,-0.25,0.0
634,-1.0253906,0.0078125,0.0009765625,0.03125,-0.1875,-0.25
635,-1.0205078,0.01171875,-0.005859375,0.15625,-0.3125,-0.125
636,-1.0205078,0.016601562,0.005859375,0.6875,-0.125,-0.125
637,-1.0205078,0.01171875,0.00390625,0.03125,-0.1875,-0.1875
638,-1.0263672,0.016601562,0.0029296875,0.28125,-0.5,-0.1875
639,-1.0175781,0.0126953125,0.0009765625,-0.03125,-0.6875,-0.4375
640,-1.0195312,0.01953125,-0.0048828125,-0.59375,-1.0,0.0
641,-1.0205078,0.0107421875,-0.00390625,-1.3125,-0.9375,-0.125
642,-1.0185547,0.001953125,0.0107421875,-0.46875,-0.6875,0.0625
643,-1.015625,0.0029296875,0.009765625,0.5625,-0.8125,0.0
644,-1.0185547,0.01171875,0.0078125,2.15625,-0.25,-0.1875
645,-1.0146484,0.015625,0.013671875,1.84375,-0.625,0.0625
646,-1.0175781,0.01171875,0.00390625,2.28125,-0.6875,0.1875
647,-1.0244141,0.0068359375,0.0029296875,1.5625,-0.125,0.0625
648,-1.0263672,0.0146484375,0.022460938,1.0625,0.09375,0.0
649,-1.015625,0.00390625,0.005859375,0.6875,-0.25,0.125
650,-1.0175781,0.0048828125,0.009765625,0.6875,0.09375,0.125
651,-1.0244141,0.0068359375,0.0146484375,1.0625,-0.1875,0.125
652,-1.0136719,0.015625,0.013671875,0.5,0.15625,-0.0625
653,-1.0253906,0.009765625,0.0068359375,0.5625,0.21875,0.1875
654,-1.0253906,0.01171875,0.0029296875,-0.03125,-0.125,0.25
655,-1.015625,0.018554688,0.0068359375,-0.15625,0.03125,0.3125
656,-1.0244141,0.0146484375,0.015625,-0.46875,0.03125,0.25
657,-1.0244141,0.013671875,0.0029296875,-0.40625,0.03125,0.3125
658,-1.0195312,0.0107421875,0.005859375,-0.71875,-0.03125,0.25
659,-1.0136719,0.005859375,-0.001953125,-1.4375,-0.1875,0.125
660,-1.0214844,0.016601562,0.005859375,-0.09375,0.09375,0.25
661,-1.0205078,0.013671875,-0.0009765625,-0.46875,-0.03125,0.0625
662,-1.0214844,0.0107421875,0.0234375,-0.78125,0.15625,0.0
663,-1.0214844,0.00390625,0.0126953125,-0.15625,-0.09375,0.25
664,-1.0195312,0.00390625,0.015625,-0.84375,0.21875,0.25
665,-1.0224609,0.001953125,0.005859375,-0.59375,0.28125,0.25
666,-1.0205078,0.0126953125,0.0107421875,0.375,0.40625,0.0
667,-1.0234375,0.022460938,0.0078125,0.03125,0.09375,0.125
668,-1.0195312,0.0126953125,0.0048828125,0.625,0.53125,0.0625
669,-1.0205078,0.021484375,-0.0029296875,0.875,0.15625,0.0
670,-1.0146484,0.0107421875,0.0087890625,-0.21875,0.34375,-0.0625
671,-1.0244141,0.0029296875,0.0126953125,0.375,0.21875,-0.125
672,-1.0195312,0.009765625,-0.00390625,0.21875,0.28125,-0.3125
673,-1.0166016,0.009765625,0.0234375,0.03125,-0.03125,-0.0625
674,-1.015625,0.013671875,0.015625,0.28125,0.21875,0.0625
675,-1.0214844,0.0078125,-0.00390625,-0.15625,0.15625,-0.0625
676,-1.0175781,0.01171875,0.013671875,-0.59375,0.28125,0.0625
677,-1.0166016,0.009765625,0.0029296875,-0.03125,0.15625,0.125
678,-1.0146484,0.005859375,0.013671875,-0.09375,0.15625,-0.0625
679,-1.0175781,0.0146484375,0.0048828125,-0.34375,0.09375,-0.0625
680,-1.0205078,0.0146484375,-0.0009765625,0.28125,0.21875,0.125
681,-1.0195312,0.0078125,0.00390625,-0.40625,0.15625,0.375
682,-1.03125,0.005859375,0.022460938,-0.65625,0.15625,0.25
683,-1.0224609,0.015625,0.01171875,-0.09375,0.09375,0.125
684,-1.0205078,0.0029296875,0.009765625,-0.34375,0.03125,0.25
685,-1.015625,0.009765625,0.0087890625,0.09375,-0.03125,0.3125
686,-1.0175781,0.0078125,0.0087890625,0.5,0.34375,0.1875
687,-1.0136719,0.025390625,0.009765625,0.21875,0.21875,0.25
688,-1.0175781,0.016601562,0.0,-0.40625,0.15625,0.375
689,-1.0166016,0.0029296875,0.005859375,-0.21875,0.15625,0.25
690,-1.0224609,0.013671875,-0.0029296875,-0.09375,0.21875,0.0
691,-1.0234375,0.0087890625,-0.005859375,-0.09375,-0.03125,0.1875
692,-1.0224609,0.018554688,0.0029296875,-0.21875,-0.09375,0.125
693,-1.0166016,0.0078125,0.0009765625,-0.46875,-0.09375,0.25
694,-1.0224609,0.009765625,0.005859375,-0.40625,0.15625,0.3125
695,-1.0166016,0.0048828125,-0.0029296875,0.15625,0.28125,0.0625
696,-1.0117188,0.0146484375,-0.0078125,0.15625,0.03125,0.125
697,-1.0244141,0.0,0.01171875,0.21875,0.03125,0.125
698,-1.0244141,0.01953125,-0.0009765625,0.09375,-0.125,0.125
699,-1.0097656,0.013671875,0.0087890625,0.21875,0.34375,0.1875
700,-1.0146484,0.00390625,0.015625,-0.15625,0.03125,0.125
701,-1.0175781,0.0078125,0.001953125,-0.09375,-0.03125,-0.0625
702,-1.0302734,0.0087890625,0.00390625,-0.03125,0.03125,-0.0625
703,-1.0185547,0.0068359375,0.0009765625,0.15625,-0.25,0.0
704,-1.015625,0.015625,0.0009765625,0.09375,-0.25,-0.0625
705,-1.0136719,0.016601562,0.0029296875,-0.15625,-0.5,-0.1875
706,-1.0117188,0.0068359375,0.0107421875,-0.34375,-0.8125,-0.25
707,-1.0234375,0.0087890625,0.001953125,0.21875,-0.1875,-0.1875
708,-1.0205078,0.01171875,0.0,0.5,0.28125,0.125
709,-1.0185547,0.0146484375,0.0146484375,-0.15625,-0.03125,0.0
710,-1.0234375,0.018554688,-0.0029296875,-0.21875,-0.3125,0.125
711,-1.015625,0.005859375,0.0087890625,0.28125,-0.03125,0.1875
712,-1.0263672,0.017578125,0.0087890625,0.21875,0.09375,-0.0625
713,-1.0214844,0.020507812,0.0078125,0.09375,0.09375,0.0625
714,-1.0224609,0.0107421875,-0.0009765625,-0.03125,-0.1875,0.0
715,-1.0263672,0.009765625,0.00390625,-0.21875,-0.09375,-0.0625
716,-1.0253906,0.0107421875,-0.005859375,-0.15625,-0.125,0.0625
717,-1.0273438,0.0078125,-0.005859375,-0.34375,0.03125,-0.15625
718,-1.0205078,0.0048828125,0.0,-0.09375,-0.3125,-0.15625
719,-1.0068359,0.00390625,0.0009765625,0.28125,-0.375,-0.03125
720,-1.0205078,0.0029296875,0.0126953125,0.03125,-0.1875,-0.09375
721,-1.0214844,0.017578125,0.0029296875,0.15625,-0.03125,-0.03125
722,-1.0166016,0.0146484375,-0.0029296875,0.71875,-0.125,0.15625
723,-1.0234375,0.018554688,0.0087890625,0.15625,-0.09375,-0.15625
724,-1.0166016,0.001953125,0.0048828125,0.03125,-0.125,-0.15625
725,-1.0087891,0.0068359375,0.0107421875,0.34375,0.03125,-0.03125
726,-1.0185547,0.017578125,0.0048828125,0.21875,-0.09375,-0.15625
727,-1.0205078,0.005859375,0.0087890625,0.03125,0.03125,-0.03125
728,-1.0166016,0.0078125,0.009765625,0.15625,-0.09375,-0.03125
729,-1.0195312,0.0126953125,0.0048828125,-0.09375,0.09375,-0.09375
730,-1.0146484,0.0048828125,0.0048828125,-0.21875,-0.09375,-0.09375
731,-1.0205078,0.0048828125,-0.009765625,0.03125,0.09375,-0.15625
732,-1.0283203,0.01171875,0.0048828125,0.15625,0.03125,-0.03125
733,-1.0136719,0.0126953125,-0.001953125,-0.46875,-0.3125,0.15625
734,-1.0078125,0.009765625,-0.0029296875,-0.46875,0.03125,0.15625
735,-1.0234375,0.0068359375,-0.00390625,-0.46875,0.03125,0.09375
736,-1.0224609,0.0068359375,-0.00390625,0.34375,0.21875,-0.03125
737,-1.0166016,0.0078125,0.0029296875,-0.03125,-0.25,0.21875
738,-1.0195312,0.0126953125,0.0087890625,0.28125,0.21875,-0.03125
739,-1.015625,0.0146484375,0.005859375,0.21875,-0.09375,0.03125
740,-1.0234375,0.009765625,0.018554688,-0.34375,0.03125,-0.09375
741,-1.0146484,0.0,0.005859375,-0.28125,-0.03125,0.03125
742,-1.0166016,0.00390625,0.0126953125,0.09375,0.15625,-0.09375
743,-1.0195312,0.0126953125,0.001953125,0.03125,-0.03125,0.09375
744,-1.0205078,0.013671875,0.0126953125,0.09375,-0.03125,-0.21875
745,-1.0214844,0.00390625,-0.001953125,-0.46875,-0.09375,-0.21875
746,-1.0185547,0.0029296875,0.00390625,-0.46875,-0.09375,0.09375
747,-1.0166016,0.009765625,0.0,-0.28125,-0.03125,-0.375
748,-1.0244141,0.0029296875,0.0009765625,-0.09375,-0.25,-0.09375
749,-1.0097656,0.009765625,-0.0107421875,-0.03125,-0.09375,0.0
750,-1.0146484,0.01953125,0.0009765625,0.21875,-0.03125,-0.0625
751,-1.0283203,0.018554688,0.0009765625,-0.71875,-0.21875,-0.125
