sample_no,accel_x,accel_y,accel_z,gyro_x,gyro_y,gyro_z
0,0.0146484375,1.0332031,-0.044921875,7.25,-6.0,-1.9375
1,0.0390625,1.0625,-0.09375,14.875,-9.40625,3.0625
2,0.072265625,1.0341797,-0.15527344,32.03125,1.6875,15.03125
3,0.13867188,0.9863281,-0.14257812,58.9375,39.15625,36.03125
4,0.18359375,1.0898438,-0.13964844,57.71875,70.34375,61.125
5,0.15039062,1.1816406,-0.17382812,38.0,47.9375,88.28125
6,0.03125,1.0507812,-0.12597656,53.9375,-29.4375,65.03125
7,0.23144531,0.97753906,-0.103515625,43.375,-17.84375,54.21875
8,0.19726562,0.9404297,-0.1796875,29.28125,-19.0625,50.78125
9,0.16503906,0.8964844,-0.1953125,18.25,-42.6875,43.71875
10,0.16210938,0.81640625,-0.24316406,3.21875,-55.8125,31.8125
11,0.13183594,0.75878906,-0.28808594,-4.84375,-54.90625,16.0
12,0.15820312,0.7470703,-0.30371094,-8.25,-31.15625,1.46875
13,0.15039062,0.7167969,-0.28808594,-11.78125,-28.21875,-8.84375
14,0.23730469,0.79589844,-0.3173828,-17.59375,-33.34375,-22.4375
15,0.35058594,0.9550781,-0.3671875,-18.75,-53.71875,-33.96875
16,0.5966797,0.984375,-0.34179688,-25.21875,-40.65625,-20.1875
17,0.2607422,0.9277344,-0.36132812,-36.09375,23.21875,-1.21875
18,-0.09472656,1.5400391,-0.12109375,-64.78125,76.8125,-17.875
19,-0.25976562,1.3330078,-0.3408203,-25.65625,33.84375,-33.0
20,0.23632812,0.79003906,-0.119140625,-13.25,39.84375,-36.65625
21,0.11425781,0.6953125,0.2421875,-32.0,115.46875,-33.3125
22,-0.015625,1.1533203,0.21875,-38.40625,-28.71875,-37.53125
23,0.17578125,1.0400391,0.032226562,-31.03125,-64.59375,-26.28125
24,0.12207031,1.0029297,0.09277344,-37.90625,25.5625,-3.46875
25,-0.068359375,0.99316406,0.03515625,-27.53125,22.6875,0.0625
26,-0.09863281,0.92578125,0.13085938,-25.84375,-12.65625,-13.03125
27,0.02734375,0.9277344,0.10644531,-19.0,6.875,-18.1875
28,0.024414062,0.9863281,0.14355469,-20.875,8.59375,-13.84375
29,0.013671875,0.89453125,0.06640625,-22.65625,12.90625,-10.90625
30,0.13574219,0.9560547,-0.009765625,-19.84375,19.9375,-11.15625
31,0.11621094,1.0546875,0.07128906,-27.78125,17.96875,-17.875
32,0.15234375,0.96972656,0.043945312,-26.625,-2.71875,-18.28125
33,-0.040039062,1.0,0.07324219,-16.0,-13.15625,-17.125
34,0.109375,1.0800781,0.103515625,-7.6875,-4.15625,-16.65625
35,0.18261719,1.0644531,0.00390625,7.1875,29.09375,-8.90625
36,0.22851562,1.1474609,-0.109375,25.4375,29.40625,-1.3125
37,0.421875,1.3310547,-0.07324219,55.65625,-17.34375,25.15625
38,0.29882812,1.2080078,-0.044921875,104.1875,-54.21875,58.0
39,-0.13769531,1.0341797,0.16113281,129.6875,-60.625,71.84375
40,-0.5029297,1.4023438,0.14257812,88.0,31.09375,57.5
41,0.061523438,1.0253906,-0.21191406,61.9375,55.15625,52.625
42,0.20507812,0.92578125,-0.033203125,48.8125,33.78125,79.1875
43,0.06542969,0.9794922,-0.055664062,44.84375,11.625,80.40625
44,0.07421875,0.9433594,-0.036132812,25.8125,-20.28125,70.5
45,0.068359375,0.8251953,-0.080078125,16.03125,-63.8125,61.125
46,-0.072265625,0.70996094,-0.1328125,2.90625,-55.4375,41.46875
47,0.0029296875,0.6328125,-0.14746094,-8.0625,-48.375,12.84375
48,0.17382812,0.64453125,-0.21191406,-22.96875,-25.09375,-11.71875
49,0.24511719,0.7080078,-0.2578125,-35.78125,-2.9375,-33.0
50,0.4013672,0.8544922,-0.30859375,-34.3125,-12.53125,-43.0625
51,0.6113281,1.0527344,-0.41796875,-22.15625,-33.21875,-29.90625
52,0.6542969,1.0810547,-0.5078125,-17.53125,-44.625,6.5
53,0.19824219,0.8535156,-0.46875,-17.09375,-2.78125,1.0625
54,-0.15234375,1.7285156,0.01953125,-72.8125,73.78125,-43.875
55,-0.34570312,1.5019531,-0.2841797,-35.09375,16.875,-44.78125
56,0.115234375,0.6640625,-0.111328125,-10.75,45.03125,-27.21875
57,0.045898438,0.41210938,0.19824219,-36.21875,144.21875,-20.90625
58,-0.048828125,1.0625,0.23632812,-47.25,4.125,-53.75
59,0.18359375,1.1318359,0.10546875,-23.28125,-70.625,-43.125
60,0.23242188,1.0166016,0.103515625,-43.46875,19.5,-10.71875
61,-0.0234375,0.96972656,0.0087890625,-38.15625,51.375,3.4375
62,-0.08105469,0.90625,0.056640625,-32.1875,-3.9375,-12.375
63,0.0703125,0.9453125,0.18164062,-28.5625,7.4375,-24.28125
64,0.091796875,0.9873047,0.09765625,-30.09375,29.8125,-18.59375
65,0.028320312,0.94921875,0.09863281,-32.84375,21.21875,-22.3125
66,0.15527344,0.92089844,0.0078125,-35.28125,17.5625,-32.28125
67,0.17675781,0.9892578,-0.0126953125,-28.40625,13.15625,-30.6875
68,0.1015625,0.99902344,0.083984375,-11.5625,-1.4375,-23.90625
69,0.037109375,0.9794922,0.14941406,-6.90625,-0.25,-18.1875
70,-0.06347656,1.0478516,0.036132812,-8.5,25.75,-9.9375
71,-0.0048828125,1.0654297,-0.022460938,10.5,37.09375,-3.03125
72,0.3701172,1.2724609,-0.0390625,35.4375,28.1875,5.6875
73,0.50390625,1.3964844,-0.08105469,83.65625,-13.15625,41.9375
74,0.21289062,1.1494141,-0.053710938,139.6875,-71.1875,73.6875
75,-0.22070312,1.1181641,0.103515625,138.96875,-61.46875,71.1875
76,-0.35058594,1.3105469,0.08886719,92.875,32.6875,45.59375
77,0.20019531,0.96972656,-0.10644531,70.1875,35.1875,65.03125
78,0.2265625,0.9482422,-0.06542969,55.46875,27.9375,89.96875
79,0.11035156,0.92871094,-0.0126953125,22.15625,-9.71875,84.125
80,0.1171875,0.9296875,-0.03125,-2.40625,-34.9375,77.65625
81,0.041992188,0.7470703,-0.080078125,-16.96875,-48.84375,66.90625
82,0.0078125,0.6845703,-0.044921875,-21.125,-54.71875,41.9375
83,0.080078125,0.6357422,-0.17871094,-28.03125,-42.125,10.34375
84,0.10644531,0.6767578,-0.2734375,-38.28125,-13.28125,-19.46875
85,0.18457031,0.75,-0.34179688,-35.40625,-2.34375,-44.84375
86,0.43847656,0.89746094,-0.33203125,-24.4375,-33.59375,-50.21875
87,0.88378906,1.1240234,-0.2919922,-31.625,-42.8125,-21.71875
88,0.69140625,0.99609375,-0.4267578,-28.5625,-8.5625,14.1875
89,0.22363281,1.125,-0.2529297,-24.59375,39.15625,-17.125
90,-0.3017578,2.0078125,-0.00390625,-55.84375,65.53125,-73.53125
91,-0.09277344,0.7861328,-0.16210938,-15.34375,-46.96875,-20.4375
92,-0.109375,0.4111328,0.11230469,-33.65625,95.625,-28.5625
93,-0.20605469,0.7480469,0.15527344,-37.90625,70.21875,-63.46875
94,0.119140625,1.3613281,0.02734375,-10.09375,-70.9375,-65.15625
95,0.58984375,0.9550781,0.059570312,-33.875,1.125,-16.65625
96,0.11035156,0.9785156,0.064453125,-38.40625,53.03125,10.28125
97,-0.119140625,0.9746094,0.05859375,-21.3125,-0.5625,-2.1875
98,-0.013671875,0.87597656,0.09472656,-27.125,-16.375,-20.5
99,0.08203125,0.9169922,0.083984375,-29.75,8.46875,-22.6875
100,0.01171875,0.93847656,0.115234375,-32.25,23.53125,-24.875
101,0.07324219,0.93652344,0.059570312,-40.59375,15.375,-37.46875
102,0.24511719,0.98535156,-0.043945312,-37.71875,0.59375,-37.71875
103,0.13574219,1.0263672,0.0859375,-17.59375,-4.40625,-23.84375
104,0.0068359375,0.9921875,0.12792969,-6.96875,5.78125,-11.8125
105,-0.041015625,1.0585938,0.04296875,-0.9375,34.65625,-2.78125
106,0.060546875,1.1113281,-0.08691406,12.25,56.4375,3.90625
107,0.37109375,1.4121094,0.056640625,52.59375,37.8125,27.84375
108,0.39257812,1.3066406,0.0,86.40625,-13.8125,66.78125
109,-0.001953125,1.0947266,0.018554688,127.1875,-33.71875,75.09375
110,-0.31347656,1.1025391,0.03515625,121.5,-26.4375,60.0625
111,-0.095703125,1.1660156,-0.18457031,76.59375,23.65625,42.375
112,0.234375,0.9667969,-0.040039062,50.78125,47.53125,66.90625
113,0.19628906,1.0166016,0.005859375,36.25,51.4375,81.0
114,0.06347656,0.9863281,-0.087890625,37.84375,2.40625,67.59375
115,0.11230469,0.8671875,-0.09472656,22.6875,-30.59375,59.53125
116,-0.009765625,0.68652344,-0.15332031,9.375,-44.5625,44.09375
117,-0.0009765625,0.57910156,-0.11328125,-8.3125,-38.15625,16.125
118,0.14453125,0.53515625,-0.1328125,-27.21875,-18.03125,-12.875
119,0.25195312,0.58496094,-0.21386719,-43.84375,-11.3125,-34.46875
120,0.3828125,0.8046875,-0.39160156,-51.84375,-22.90625,-50.09375
121,0.7607422,1.2539062,-0.54589844,-29.84375,-36.09375,-42.15625
122,0.7109375,1.1621094,-0.5234375,-17.21875,-25.15625,12.65625
123,0.20117188,0.75,-0.39257812,-10.9375,-12.53125,9.78125
124,-0.030273438,1.6767578,0.12011719,-79.0,61.0,-64.4375
125,-0.27246094,1.46875,-0.33789062,-32.96875,-14.25,-48.09375
126,0.11621094,0.65527344,-0.14160156,-1.125,53.875,-24.71875
127,-0.0234375,0.4375,0.21679688,-33.75,120.59375,-28.5
128,0.01953125,1.1425781,0.30078125,-35.59375,-26.75,-54.1875
129,0.4248047,1.1748047,0.11230469,-27.34375,-67.65625,-32.625
130,0.16015625,0.84765625,0.046875,-39.6875,39.71875,10.5625
131,-0.10839844,0.96191406,-0.01953125,-29.84375,2.71875,-1.4375
132,-0.076171875,0.9169922,0.14355469,-28.40625,-20.53125,-21.03125
133,0.08496094,0.9667969,0.10253906,-40.53125,-1.25,-31.96875
134,-0.013671875,0.92285156,0.030273438,-44.375,28.90625,-33.625
135,0.06738281,0.95410156,0.059570312,-34.125,10.96875,-40.15625
136,0.2626953,0.9824219,-0.045898438,-34.375,13.21875,-38.1875
137,0.2421875,1.0390625,0.021484375,-10.5625,3.65625,-19.625
138,0.1171875,0.9580078,0.068359375,16.09375,2.40625,-2.78125
139,0.055664062,0.96777344,0.09375,23.0625,1.8125,0.5625
140,0.17578125,1.0478516,-0.017578125,25.9375,17.375,-2.0
141,0.22949219,1.3769531,-0.00390625,44.3125,27.3125,13.9375
142,0.24414062,1.3105469,-0.18652344,79.09375,-12.09375,56.59375
143,0.0048828125,1.0576172,0.061523438,128.78125,-17.53125,74.125
144,-0.3359375,1.3398438,0.021484375,102.40625,-2.46875,60.75
145,-0.11328125,1.1494141,-0.2939453,69.8125,36.53125,44.15625
146,0.21875,0.9511719,-0.0625,63.71875,60.9375,63.1875
147,0.12695312,0.9111328,-0.1171875,21.96875,65.28125,71.5625
148,0.12792969,0.90234375,-0.09667969,17.125,3.9375,60.5
149,0.13085938,0.8691406,-0.0390625,5.71875,-49.34375,58.4375
150,-0.06347656,0.6621094,-0.13867188,-0.5,-49.9375,39.875
151,-0.040039062,0.5839844,-0.13183594,-18.8125,-24.1875,12.21875
152,0.10839844,0.6064453,-0.18066406,-39.25,10.28125,-19.15625
153,0.24707031,0.7246094,-0.26367188,-60.25,14.375,-48.8125
154,0.46289062,0.9316406,-0.4716797,-53.1875,-24.5625,-67.25
155,1.1064453,1.3857422,-0.5878906,8.21875,-49.21875,-31.28125
156,0.640625,0.85546875,-0.48339844,0.0,-26.9375,45.125
157,-0.091796875,1.4033203,-0.12988281,-19.3125,10.40625,-0.21875
158,-0.34472656,2.0078125,-0.3125,-36.9375,27.5,-37.21875
159,-0.23828125,0.5644531,0.044921875,32.21875,31.90625,-29.46875
160,0.07519531,0.54785156,0.4140625,-1.21875,65.34375,-51.0
161,0.43164062,1.2705078,0.12597656,-70.9375,1.3125,-37.53125
162,0.068359375,1.0488281,-0.025390625,-62.09375,-14.1875,-29.59375
163,-0.07421875,0.9873047,0.09082031,-37.25,-12.78125,-25.875
164,-0.02734375,0.9375,0.0390625,-42.0,-26.4375,-29.03125
165,-0.005859375,0.8925781,0.009765625,-44.75,-1.5625,-30.0
166,0.08203125,0.9042969,0.115234375,-43.84375,13.59375,-27.09375
167,0.08886719,0.9433594,0.087890625,-47.6875,14.0625,-27.8125
168,0.13671875,0.921875,-0.0390625,-37.1875,7.59375,-35.875
169,0.20019531,0.9091797,-0.038085938,-20.59375,9.3125,-37.09375
170,0.16113281,1.0585938,0.061523438,-12.78125,-2.71875,-19.09375
171,0.13183594,1.0361328,-0.040039062,9.03125,-4.53125,-4.9375
172,0.19824219,0.9892578,-0.1484375,29.78125,6.09375,2.40625
173,0.12890625,1.0068359,-0.16113281,51.0,26.46875,6.0625
174,0.17675781,1.5488281,-0.11328125,89.03125,6.5,16.25
175,0.24121094,1.2470703,0.11621094,130.46875,19.4375,60.0
176,-0.14746094,1.2539062,0.0859375,92.21875,-26.21875,70.875
177,-0.053710938,1.2871094,-0.1484375,60.0,-34.5625,51.46875
178,0.016601562,1.1103516,-0.059570312,56.5,21.28125,60.375
179,-0.025390625,1.1308594,-0.13964844,16.90625,90.0,78.5625
180,0.17871094,0.9169922,-0.10449219,19.15625,18.96875,77.15625
181,0.060546875,0.81347656,-0.0703125,15.78125,0.71875,59.09375
182,0.057617188,0.65234375,0.060546875,12.0,-59.34375,48.46875
183,-0.11425781,0.51464844,-0.09277344,-2.625,-36.59375,17.96875
184,0.049804688,0.5341797,-0.16113281,-35.40625,-12.09375,-15.0
185,0.24902344,0.6611328,-0.3095703,-55.5625,-6.5625,-48.1875
186,0.57128906,1.0039062,-0.47460938,-42.5,-21.625,-59.375
187,0.8574219,1.2802734,-0.5097656,-6.59375,-32.0,-15.5
188,0.5722656,0.9013672,-0.34375,-9.09375,-51.03125,37.5
189,0.17578125,0.81640625,-0.10253906,-15.21875,24.875,16.0625
190,-0.20117188,1.9960938,-0.29101562,-50.25,43.875,-52.28125
191,0.03515625,0.859375,0.14453125,4.875,30.375,-30.875
192,-0.10546875,0.4345703,0.29101562,-7.46875,69.375,-53.34375
193,0.28320312,0.9003906,0.39453125,-69.65625,-27.25,-51.75
194,0.2685547,1.2783203,-0.015625,-68.3125,-49.28125,-40.03125
195,-0.057617188,0.9980469,0.057617188,-44.6875,-21.25,-21.65625
196,0.0078125,0.9003906,0.0625,-32.71875,-26.625,-20.3125
197,-0.013671875,0.8857422,0.024414062,-33.75,-14.1875,-23.0
198,0.08691406,0.9707031,0.16894531,-33.21875,-8.8125,-19.75
199,0.028320312,0.8876953,0.041015625,-39.5,6.875,-19.6875
200,0.1171875,0.88964844,0.036132812,-33.15625,5.96875,-25.5
201,0.13671875,0.94628906,-0.041015625,-32.78125,9.625,-34.40625
202,0.15722656,1.0810547,0.043945312,-28.46875,-7.53125,-27.8125
203,0.15722656,1.0527344,0.03125,-3.3125,-13.03125,-13.65625
204,0.15722656,1.0009766,-0.0146484375,11.46875,1.5,-2.3125
205,0.08300781,1.0888672,-0.18457031,22.5625,45.4375,6.59375
206,0.21484375,1.4277344,-0.06640625,70.125,26.65625,15.09375
207,0.36328125,1.25,-0.103515625,122.125,-6.1875,58.84375
208,-0.11035156,0.95410156,0.08300781,138.125,-23.9375,89.5625
209,-0.25683594,1.5449219,0.06542969,91.0625,-19.5,71.84375
210,-0.049804688,1.0800781,-0.234375,66.09375,30.5625,48.28125
211,0.16503906,0.97265625,0.03515625,48.15625,80.96875,76.90625
212,0.061523438,0.95214844,-0.1953125,29.53125,44.84375,85.09375
213,0.0859375,0.86035156,-0.09082031,7.125,6.5,68.0
214,0.18261719,0.70703125,0.03515625,3.90625,-76.4375,52.1875
215,-0.103515625,0.5683594,-0.059570312,-4.53125,-67.03125,24.0625
216,-0.041015625,0.4765625,-0.08886719,-24.5,-46.96875,-11.28125
217,0.17773438,0.5908203,-0.25585938,-45.90625,-22.96875,-39.15625
218,0.4921875,0.89160156,-0.42089844,-56.71875,-9.59375,-54.125
219,0.6972656,1.2431641,-0.5214844,-32.0625,-19.6875,-39.46875
220,0.5703125,1.0703125,-0.34960938,-24.71875,-42.1875,4.34375
221,0.08984375,1.5410156,-0.32226562,-34.75,6.3125,-4.875
222,-0.1796875,1.7861328,-0.2578125,-29.6875,61.4375,-41.78125
223,-0.059570312,0.57714844,0.016601562,-0.0625,75.1875,-8.15625
224,-0.14160156,0.25878906,0.21679688,-14.71875,57.21875,-37.53125
225,0.30371094,1.1103516,0.32128906,-46.15625,-19.375,-64.375
226,0.2841797,1.2460938,-0.14746094,-60.5,-45.3125,-42.15625
227,-0.107421875,0.91015625,0.09667969,-27.40625,-10.21875,-25.0625
228,0.14257812,0.9169922,0.07421875,-43.59375,-17.0,-19.9375
229,0.07714844,0.9716797,0.061523438,-44.125,-8.625,-13.90625
230,-0.0234375,0.9042969,0.0625,-44.375,20.375,-18.0625
231,0.029296875,0.9404297,-0.0087890625,-30.21875,13.28125,-23.1875
232,0.080078125,0.93066406,0.047851562,-21.9375,24.03125,-32.53125
233,0.2109375,0.97558594,0.051757812,-31.09375,6.75,-39.46875
234,0.22167969,1.0488281,0.048828125,-26.5625,1.5625,-25.0
235,0.14746094,1.0839844,0.028320312,-4.78125,-19.25,-2.90625
236,0.0029296875,1.0332031,-0.053710938,6.46875,12.90625,-1.21875
237,0.15136719,1.1591797,-0.18945312,44.125,59.71875,5.625
238,0.32226562,1.4033203,0.025390625,89.59375,34.90625,37.0625
239,0.20996094,1.1220703,-0.10058594,128.34375,-11.6875,79.78125
240,-0.23730469,1.1445312,-0.09765625,132.125,-20.71875,78.4375
241,-0.4560547,1.2451172,0.017578125,90.0625,22.3125,43.90625
242,0.23535156,0.88964844,-0.15527344,75.0625,49.96875,44.3125
243,0.34765625,0.8564453,-0.10058594,24.84375,77.875,83.6875
244,0.017578125,0.9550781,-0.09472656,20.625,16.8125,78.09375
245,0.06738281,0.88671875,-0.0087890625,4.0625,-27.0,61.59375
246,0.059570312,0.6816406,-0.12890625,-0.6875,-61.84375,46.09375
247,-0.051757812,0.5595703,-0.13085938,-12.53125,-67.28125,19.1875
248,0.046875,0.52246094,-0.18847656,-35.21875,-30.71875,-14.8125
249,0.19921875,0.64160156,-0.3017578,-55.75,7.65625,-39.96875
250,0.43652344,0.93847656,-0.46191406,-60.875,1.9375,-58.8125
251,0.90527344,1.2919922,-0.47558594,-26.8125,-15.9375,-44.0
252,0.65722656,0.9873047,-0.38085938,-13.125,-27.0625,16.3125
253,0.060546875,1.171875,-0.25585938,-21.5625,-17.65625,0.0625
254,-0.25878906,1.6298828,-0.07421875,-57.6875,50.5625,-44.84375
255,-0.08984375,0.9140625,-0.234375,-15.875,42.28125,-9.75
256,-0.14550781,0.4580078,0.17480469,1.875,65.03125,-36.90625
257,0.30273438,0.86328125,0.37695312,-43.09375,-17.46875,-66.625
258,0.26171875,1.2490234,0.06640625,-59.34375,-29.0,-37.71875
259,-0.09667969,0.9921875,0.083984375,-35.71875,7.0,-18.34375
260,0.022460938,0.9189453,0.040039062,-34.625,-8.75,-20.125
261,-0.00390625,0.92089844,-0.0048828125,-40.96875,-4.46875,-23.53125
262,0.08496094,0.9423828,0.072265625,-34.375,14.5625,-27.28125
263,0.12695312,0.93847656,0.022460938,-28.46875,18.40625,-26.59375
264,0.13476562,0.89941406,0.017578125,-18.5625,14.6875,-32.09375
265,0.19238281,0.9404297,-0.01171875,-18.4375,4.25,-36.0
266,0.12890625,0.9716797,-0.018554688,-13.625,5.46875,-22.4375
267,0.10253906,0.9609375,0.072265625,14.34375,-6.75,-7.25
268,0.12988281,1.0058594,-0.059570312,18.1875,2.34375,0.625
269,0.20507812,1.0107422,-0.27539062,39.59375,36.40625,8.3125
270,0.19238281,1.3193359,-0.045898438,97.9375,34.84375,39.03125
271,0.078125,1.2792969,0.11816406,125.0,16.03125,92.46875
272,-0.29003906,1.6298828,0.017578125,93.0625,14.9375,82.65625
273,-0.123046875,1.2109375,-0.19335938,60.71875,38.0625,42.125
274,0.3046875,0.9814453,-0.119140625,46.125,55.21875,62.8125
275,0.14746094,0.9667969,-0.12890625,3.53125,31.84375,84.5
276,-0.016601562,0.8720703,-0.12890625,16.53125,-9.53125,55.3125
277,0.0859375,0.78808594,-0.056640625,2.3125,-51.90625,30.28125
278,-0.103515625,0.60253906,-0.046875,-13.1875,-47.5,12.34375
279,-0.17578125,0.47753906,-0.08300781,-22.28125,-18.34375,-11.21875
280,0.0048828125,0.6376953,-0.13671875,-45.125,32.6875,-38.3125
281,0.29492188,0.87402344,-0.28027344,-58.90625,23.0,-57.53125
282,0.87890625,1.2978516,-0.5908203,-37.90625,-6.6875,-51.8125
283,1.0634766,1.1220703,-0.33398438,-12.9375,30.6875,29.0625
284,0.3564453,0.75878906,-0.34472656,-0.0625,-34.1875,31.09375
285,-0.11328125,0.9316406,-0.015625,-7.15625,20.375,-2.5625
286,-0.4140625,2.0078125,-0.7294922,-52.6875,-4.65625,-67.0625
287,-0.1484375,0.7158203,0.23730469,49.375,-2.34375,-19.6875
288,-0.047851562,0.46972656,0.40820312,9.15625,53.9375,-21.78125
289,0.3671875,1.3486328,0.18261719,-52.8125,-8.625,-24.21875
290,-0.009765625,1.0048828,-0.0068359375,-43.15625,-20.84375,-20.3125
291,-0.26757812,0.9169922,0.078125,-28.09375,9.5625,-12.5625
292,-0.02734375,0.91796875,-0.09277344,-31.03125,13.21875,-35.75
293,0.19335938,0.93066406,0.045898438,-23.625,37.5,-41.5
294,0.19628906,0.92871094,0.1015625,-28.15625,21.40625,-32.09375
295,0.14941406,0.9658203,0.04296875,-34.8125,13.28125,-31.90625
296,0.09863281,0.93847656,-0.026367188,-26.75,10.78125,-32.8125
297,0.053710938,0.953125,0.0068359375,-19.90625,8.34375,-35.6875
298,0.059570312,0.9169922,0.056640625,-7.9375,2.0,-29.90625
299,0.14453125,0.91503906,0.034179688,-0.4375,-0.5625,-22.875
300,0.08984375,0.984375,-0.06738281,2.90625,24.8125,-9.625
301,0.10839844,0.9169922,-0.1015625,22.03125,32.875,-4.5625
302,0.28808594,1.09375,-0.018554688,61.375,17.375,9.21875
303,0.21289062,1.5322266,0.0068359375,90.875,-7.40625,72.59375
304,-0.14648438,1.3232422,0.18261719,109.4375,-20.65625,90.53125
305,-0.32714844,1.4501953,0.0087890625,72.875,52.53125,60.125
306,0.24023438,1.0097656,-0.2421875,42.96875,74.5625,52.75
307,0.3125,0.890625,-0.08203125,28.5625,18.84375,81.3125
308,-0.016601562,0.97753906,-0.1015625,38.6875,-27.25,71.5
309,0.09765625,0.9267578,-0.0107421875,28.78125,-50.1875,51.46875
310,0.10253906,0.7685547,0.033203125,2.3125,-77.40625,44.3125
311,-0.04296875,0.6357422,-0.036132812,-22.90625,-49.34375,31.9375
312,-0.053710938,0.61035156,-0.078125,-42.96875,-27.3125,5.1875
313,0.09082031,0.71191406,-0.123046875,-60.6875,-44.34375,-30.0
314,0.40039062,0.94628906,-0.3408203,-53.65625,-88.8125,-59.8125
315,0.6220703,1.1416016,-0.49023438,-3.375,-98.28125,-38.875
316,0.6074219,1.2158203,-0.46484375,-0.375,-69.84375,26.3125
317,0.47558594,0.8125,-0.048828125,-19.0625,-47.875,53.0625
318,-0.2548828,0.68847656,0.095703125,-35.15625,24.875,9.15625
319,-0.33496094,1.796875,-0.6191406,-18.75,-163.96875,-64.75
320,0.29589844,1.2988281,0.23730469,38.875,-69.1875,-36.84375
321,0.047851562,0.7363281,0.21875,10.0,-46.65625,-42.15625
322,0.38183594,0.859375,0.16894531,-38.59375,-91.28125,-16.40625
323,0.18066406,1.1279297,0.032226562,-51.78125,-113.96875,9.15625
324,-0.14941406,1.0,0.09277344,-44.5,-83.53125,17.84375
325,-0.18945312,0.88964844,-0.009765625,-44.75,-75.71875,-1.5625
326,0.020507812,1.0146484,-0.08886719,-34.0625,-65.8125,-14.875
327,0.14648438,0.9716797,0.0390625,-29.3125,-73.5,-21.84375
328,0.1484375,0.9560547,0.047851562,-36.15625,-71.3125,-20.90625
329,0.14550781,1.0039062,0.045898438,-35.09375,-66.5625,-22.4375
330,0.12695312,0.9667969,0.068359375,-34.25,-66.65625,-17.625
331,-0.12207031,0.99609375,0.0068359375,-27.21875,-61.59375,-18.0
332,-0.059570312,0.9980469,0.052734375,-10.75,-59.34375,-15.625
333,0.055664062,0.98535156,0.025390625,4.25,-38.03125,-11.28125
334,0.10058594,1.0,0.01953125,13.96875,-29.9375,-9.25
335,0.18652344,1.0371094,-0.06640625,21.96875,-25.71875,-13.34375
336,0.3017578,1.1650391,-0.053710938,47.09375,-36.9375,-11.40625
337,0.45996094,1.1445312,-0.13769531,93.8125,-86.875,16.96875
338,0.052734375,1.1230469,-0.22070312,138.90625,-115.875,57.4375
339,-0.19726562,1.2949219,0.12988281,135.71875,-91.03125,63.3125
340,0.00390625,1.234375,0.038085938,94.84375,-5.875,52.03125
341,0.38183594,0.93847656,0.049804688,33.875,5.15625,74.84375
342,0.3544922,0.8779297,-0.06738281,-9.09375,-11.1875,95.46875
343,0.11328125,0.9345703,0.03125,-35.15625,-85.09375,96.5
344,0.13671875,0.91796875,0.07421875,-70.5625,-140.03125,88.34375
345,0.10644531,0.84277344,0.018554688,-62.34375,-163.34375,63.78125
346,-0.07519531,0.88964844,-0.013671875,-83.375,-128.75,34.625
347,-0.1171875,0.8828125,-0.080078125,-79.96875,-132.90625,10.8125
348,-0.009765625,1.0771484,-0.30664062,-60.6875,-135.40625,-4.375
349,0.2763672,1.1210938,-0.48632812,-14.65625,-142.78125,2.28125
350,0.3828125,0.8359375,-0.4248047,19.59375,-74.1875,27.0
351,0.47070312,0.8857422,-0.119140625,3.28125,-62.15625,28.15625
352,0.60253906,0.79785156,0.32910156,-30.96875,-56.25,34.3125
353,-0.076171875,0.65234375,0.041015625,-50.65625,-5.5,22.125
354,-0.484375,1.8955078,-0.8935547,-32.46875,-137.34375,-40.09375
355,0.140625,0.9169922,0.31835938,0.34375,-57.46875,-59.125
356,0.068359375,0.7236328,0.22460938,-13.6875,-35.84375,-45.40625
357,0.29589844,1.0576172,-0.0009765625,-40.53125,-123.9375,-20.5625
358,0.10449219,1.1035156,0.07324219,-35.0,-111.59375,-12.0
359,-0.06347656,0.97558594,0.043945312,-36.03125,-117.5625,-0.71875
360,0.020507812,0.96777344,-0.043945312,-42.84375,-86.25,-1.75
361,-0.08496094,0.9580078,0.013671875,-30.96875,-66.84375,-5.84375
362,-0.06933594,1.0048828,0.06542969,-28.875,-59.34375,-12.5625
363,0.034179688,0.9863281,0.09375,-27.84375,-61.46875,-16.53125
364,0.052734375,0.99316406,0.08984375,-27.28125,-56.71875,-15.65625
365,-0.0234375,1.0078125,0.021484375,-25.46875,-41.46875,-10.96875
366,-0.044921875,1.0361328,-0.01171875,-20.34375,-15.15625,-10.0625
367,0.055664062,1.0195312,0.016601562,-19.0,-1.3125,-14.09375
368,0.12695312,0.9501953,0.0068359375,-17.96875,-10.875,-19.15625
369,0.13183594,0.9707031,0.05078125,-14.78125,-9.90625,-22.75
370,0.15332031,1.0341797,0.045898438,-9.96875,-1.4375,-21.28125
371,0.24511719,1.1054688,0.0390625,9.3125,-6.90625,-9.3125
372,0.171875,1.1171875,0.046875,23.375,-41.84375,1.96875
373,-0.09765625,1.2910156,-0.111328125,43.75,-53.25,13.125
374,-0.083984375,1.3730469,-0.14257812,67.0625,-38.40625,14.40625
375,0.051757812,1.0927734,-0.08300781,85.6875,-20.71875,19.125
376,0.030273438,0.9423828,-0.14648438,105.46875,-44.9375,38.65625
377,0.015625,1.1230469,-0.140625,97.28125,-43.28125,54.34375
378,-0.08496094,1.1201172,-0.08984375,60.53125,44.59375,59.15625
379,-0.119140625,0.8925781,-0.072265625,26.53125,58.34375,61.40625
380,0.15722656,0.94140625,-0.07519531,3.09375,22.125,70.28125
381,0.18164062,0.97558594,-0.13769531,-12.21875,-15.78125,107.375
382,0.15625,0.89941406,-0.16503906,-0.4375,-64.84375,106.03125
383,0.13476562,0.765625,-0.24023438,-2.34375,-77.53125,83.9375
384,0.14355469,0.6689453,-0.28320312,-11.3125,-83.21875,59.9375
385,0.20605469,0.6279297,-0.2890625,-15.5625,-83.875,32.84375
386,0.234375,0.67089844,-0.4033203,-19.25,-69.84375,11.125
387,0.4033203,0.83496094,-0.51171875,-22.21875,-47.3125,-9.03125
388,0.5996094,1.0576172,-0.5,-6.375,-35.1875,-8.90625
389,0.640625,0.8798828,-0.38671875,3.03125,-40.3125,11.5
390,0.3203125,0.58496094,-0.16699219,-33.53125,14.8125,18.8125
391,-0.03125,1.4492188,-0.3623047,-51.59375,8.59375,-37.40625
392,-0.25683594,1.0292969,-0.18457031,-45.59375,16.6875,-21.28125
393,-0.26757812,0.8144531,0.06738281,-81.375,83.90625,-70.65625
394,0.13867188,1.0332031,0.0390625,-68.125,78.71875,-84.75
395,0.22949219,1.0478516,-0.020507812,-40.28125,4.8125,-70.25
396,0.32421875,1.0195312,0.049804688,-49.4375,-0.625,-61.9375
397,0.2626953,0.9501953,0.001953125,-46.03125,-24.4375,-39.65625
398,0.11035156,0.95703125,0.06542969,-35.96875,-26.75,-29.78125
399,0.0078125,0.95214844,0.08984375,-38.28125,-22.375,-21.96875
400,-0.059570312,0.9511719,0.020507812,-43.65625,0.28125,-22.15625
401,-0.0146484375,0.9980469,0.10546875,-40.40625,13.46875,-24.21875
402,0.047851562,1.0224609,0.07519531,-34.0,18.34375,-25.125
403,0.16992188,1.0478516,0.07714844,-24.125,27.09375,-16.71875
404,0.11035156,1.0664062,0.0029296875,-14.53125,22.5,-9.125
405,0.1015625,1.0888672,-0.044921875,-20.34375,0.40625,-12.8125
406,0.09082031,1.0771484,0.00390625,-2.34375,26.53125,-20.84375
407,0.25878906,1.1914062,0.0146484375,19.65625,36.71875,-11.75
408,0.2265625,1.3105469,0.10058594,51.5625,28.25,27.53125
409,-0.064453125,1.0634766,-0.17578125,86.15625,6.15625,58.71875
410,-0.18164062,0.8847656,-0.14648438,128.34375,-23.75,58.5
411,-0.14648438,1.2382812,0.06738281,118.21875,1.5,53.65625
412,0.02734375,1.0078125,-0.103515625,75.1875,78.78125,49.15625
413,0.21972656,0.9482422,-0.09667969,61.28125,66.5625,61.53125
414,0.16699219,1.0449219,-0.16015625,30.625,67.53125,76.84375
415,0.07324219,1.1220703,-0.12890625,19.03125,25.6875,94.625
416,0.16601562,0.875,-0.15332031,26.1875,-53.1875,89.375
417,0.1953125,0.6953125,-0.29101562,27.15625,-67.96875,71.96875
418,0.203125,0.671875,-0.22460938,17.5,-79.5625,58.125
419,0.21289062,0.59472656,-0.25,0.46875,-60.5625,32.71875
420,0.21875,0.55566406,-0.3798828,-18.5,-50.25,8.5
421,0.453125,0.6767578,-0.53027344,-35.28125,-51.21875,-14.375
422,0.8730469,0.99902344,-0.515625,-21.3125,-45.4375,-19.03125
423,0.6171875,0.8046875,-0.43359375,-10.375,-44.625,1.40625
424,0.00390625,0.56640625,-0.078125,-53.25,25.3125,-1.375
425,-0.072265625,2.0078125,-0.78125,-68.5625,48.625,-58.53125
426,-0.015625,0.61621094,-0.08984375,-39.5,104.46875,-14.75
427,-0.10644531,0.74609375,0.09472656,-40.78125,113.9375,-76.84375
428,0.30078125,1.1123047,0.10839844,-82.59375,46.125,-88.78125
429,0.28515625,1.0498047,0.06640625,-62.9375,-13.21875,-70.0
430,0.20800781,0.96777344,-0.0087890625,-34.3125,-12.40625,-51.0
431,0.12207031,0.9736328,0.020507812,-34.25,-13.375,-42.40625
432,0.02734375,0.9638672,0.06738281,-42.0625,-30.1875,-43.4375
433,0.07910156,0.9472656,0.111328125,-36.6875,-7.40625,-31.0625
434,0.078125,0.9628906,0.068359375,-38.40625,21.15625,-24.34375
435,0.03125,0.9082031,0.029296875,-30.78125,10.53125,-20.96875
436,0.083984375,0.9433594,0.10253906,-29.1875,8.40625,-25.875
437,0.10253906,1.0175781,0.14160156,-37.65625,27.03125,-28.4375
438,0.087890625,1.0419922,-0.0009765625,-34.9375,14.8125,-24.21875
439,0.12402344,1.0332031,-0.056640625,-32.59375,-12.28125,-23.25
440,0.06738281,1.1181641,-0.037109375,-15.28125,16.28125,-18.78125
441,0.06640625,1.2109375,-0.08105469,11.46875,39.65625,-11.9375
442,0.3466797,1.5273438,0.19921875,65.40625,34.28125,13.9375
443,0.21875,1.1914062,-0.0625,96.90625,-3.875,64.28125
444,-0.09667969,0.8173828,-0.14746094,127.84375,-45.6875,76.1875
445,-0.24511719,1.1884766,0.03515625,128.03125,-28.53125,64.78125
446,-0.07519531,1.1035156,0.055664062,80.8125,21.15625,51.96875
447,0.25,0.98828125,-0.09472656,64.1875,4.125,56.28125
448,0.08984375,1.09375,-0.0859375,36.125,42.65625,82.34375
449,-0.11035156,1.0585938,-0.10644531,4.9375,30.25,88.34375
450,0.06542969,0.96191406,-0.0029296875,-5.3125,-13.15625,77.59375
451,0.16210938,0.7636719,-0.14160156,8.21875,-69.28125,66.71875
452,0.060546875,0.6386719,-0.18945312,-2.625,-60.6875,40.96875
453,0.056640625,0.56933594,-0.16113281,-11.125,-53.65625,7.9375
454,0.09863281,0.50683594,-0.17382812,-28.46875,-33.78125,-25.8125
455,0.22265625,0.671875,-0.32714844,-41.6875,-24.5625,-52.09375
456,0.60546875,1.2158203,-0.55566406,-27.125,-51.71875,-56.875
457,0.91015625,1.1357422,-0.4140625,-16.6875,-20.28125,13.5
458,0.3544922,0.58691406,-0.38476562,-11.125,-16.8125,4.15625
459,-0.13867188,1.4638672,0.07910156,-59.15625,24.75,-48.25
460,-0.50097656,2.0078125,-0.34472656,-72.46875,9.25,-63.46875
461,0.15917969,0.74902344,-0.15625,-8.5,53.375,-18.59375
462,-0.25097656,0.36816406,0.1171875,-27.125,131.4375,-24.46875
463,0.01953125,0.80371094,0.27929688,-45.0625,24.46875,-80.5625
464,0.42382812,1.4492188,0.07128906,-32.84375,-68.0625,-59.8125
465,0.09082031,0.94433594,-0.016601562,-35.46875,32.5,-7.1875
466,0.053710938,0.9902344,0.12109375,-25.71875,26.40625,3.1875
467,-0.055664062,0.8984375,0.06640625,-36.5,-14.375,-12.9375
468,-0.03125,0.921875,0.09277344,-31.875,4.375,-22.5625
469,-0.025390625,0.98046875,0.12207031,-28.6875,25.625,-21.15625
470,0.005859375,0.9394531,0.109375,-22.46875,17.4375,-22.8125
471,0.14453125,0.9404297,0.068359375,-35.78125,0.90625,-33.8125
472,0.1484375,1.0,0.0029296875,-35.90625,12.5625,-31.1875
473,0.053710938,1.0136719,0.055664062,-21.875,2.1875,-21.15625
474,-0.037109375,1.0263672,0.072265625,-12.71875,-6.75,-14.6875
475,-0.016601562,1.0722656,-0.018554688,-3.5625,29.09375,-8.34375
476,0.04296875,1.1015625,-0.115234375,12.5,53.8125,-1.8125
477,0.34960938,1.2841797,-0.064453125,51.0625,24.40625,7.03125
478,0.3876953,1.3964844,-0.041015625,99.71875,-12.90625,41.34375
479,0.1015625,1.0566406,0.022460938,144.875,-56.1875,76.0625
480,-0.20605469,1.3320312,0.15234375,116.875,-30.53125,74.28125
481,-0.14257812,1.1601562,-0.043945312,77.625,24.6875,54.21875
482,0.29492188,0.96484375,-0.03515625,37.53125,50.8125,79.1875
483,0.17871094,1.0019531,-0.04296875,34.78125,23.46875,102.0
484,0.08984375,1.0332031,-0.02734375,16.65625,-4.71875,91.375
485,0.15722656,0.9765625,-0.001953125,20.75,-53.71875,83.3125
486,-0.040039062,0.77734375,-0.1875,8.96875,-98.28125,67.65625
487,-0.09667969,0.63183594,-0.19238281,0.78125,-104.21875,36.15625
488,0.013671875,0.55859375,-0.22363281,-14.59375,-60.25,-0.46875
489,0.115234375,0.6142578,-0.32421875,-29.25,-14.4375,-28.5
490,0.3203125,0.7685547,-0.4482422,-24.25,-17.65625,-46.5625
491,0.74609375,1.078125,-0.43164062,-17.34375,-57.28125,-43.75
492,0.8466797,0.9873047,-0.35253906,-31.375,-52.375,-8.78125
493,0.43066406,0.80078125,-0.4267578,-35.40625,-17.46875,-5.125
494,-0.17089844,1.0136719,-0.024414062,-68.6875,75.0,-25.6875
495,-0.39160156,1.9873047,-0.06542969,-80.625,67.78125,-74.15625
496,0.09375,1.0654297,-0.5878906,2.78125,-48.375,-29.34375
497,0.22753906,0.5449219,0.11621094,-36.625,141.59375,-30.3125
498,-0.13378906,0.5625,0.22167969,-34.5,72.65625,-59.75
499,-0.12402344,1.2802734,0.19238281,-14.0,-136.375,-64.0625
500,0.4658203,0.9482422,0.18164062,-50.90625,-17.84375,-14.09375
501,0.05859375,0.9980469,-0.13085938,-40.40625,90.375,14.46875
502,-0.13574219,0.8847656,0.020507812,-30.15625,-5.15625,-7.375
503,-0.15234375,0.87402344,0.20605469,-31.75,-20.34375,-31.1875
504,0.06542969,0.9560547,0.14160156,-33.9375,15.65625,-25.5625
505,0.018554688,1.0107422,0.08984375,-38.59375,32.8125,-18.0625
506,0.09375,0.9394531,0.041992188,-36.5625,20.0625,-25.6875
507,0.10546875,1.0322266,0.038085938,-28.46875,7.90625,-26.34375
508,0.03125,1.0566406,0.03515625,-19.3125,7.5,-20.375
509,0.056640625,1.0869141,0.060546875,-7.9375,17.9375,-18.0
510,0.18652344,1.2070312,0.12792969,11.28125,39.78125,-4.8125
511,0.21484375,1.53125,0.057617188,43.3125,26.59375,28.15625
512,-0.109375,1.3408203,-0.09472656,84.78125,24.5625,52.375
513,-0.068359375,0.8652344,-0.060546875,138.0625,0.15625,43.15625
514,-0.059570312,0.7363281,0.10253906,136.78125,-8.6875,34.75
515,0.091796875,1.2099609,-0.13867188,86.78125,-17.28125,53.59375
516,0.038085938,1.0927734,-0.12109375,58.59375,-18.75,62.9375
517,-0.107421875,0.99316406,0.0068359375,41.5,69.1875,71.78125
518,0.016601562,1.0478516,-0.053710938,11.71875,33.90625,84.4375
519,0.15527344,0.97753906,-0.15039062,-1.46875,19.75,85.78125
520,0.091796875,0.9003906,-0.2421875,7.5,-27.0625,74.71875
521,0.059570312,0.765625,-0.19726562,6.40625,-66.625,54.34375
522,0.10839844,0.64746094,-0.23046875,9.21875,-74.53125,28.8125
523,0.13769531,0.57714844,-0.25585938,-4.59375,-26.875,-1.5625
524,0.20410156,0.69628906,-0.29589844,-12.65625,4.875,-22.5
525,0.359375,0.8203125,-0.34179688,-23.5,-10.53125,-30.625
526,0.6777344,0.98339844,-0.484375,-25.65625,-44.34375,-24.65625
527,0.7392578,1.0351562,-0.48632812,-11.65625,-41.84375,-2.96875
528,0.45703125,0.85546875,-0.38476562,-10.09375,-43.28125,-3.15625
529,0.052734375,1.6298828,-0.24707031,-38.28125,-2.03125,-39.78125
530,-0.30371094,1.3457031,-0.4423828,-42.96875,-15.9375,-7.5
531,0.053710938,0.48046875,-0.053710938,-5.625,66.6875,-8.15625
532,-0.22070312,0.3251953,0.09863281,-26.5,154.15625,-40.03125
533,-0.15234375,0.95214844,0.19628906,-60.875,112.53125,-110.75
534,0.59472656,1.4238281,0.2685547,-94.875,27.875,-90.9375
535,0.18261719,0.8857422,-0.078125,-37.1875,48.625,-37.03125
536,0.034179688,0.93847656,0.083984375,-19.90625,-4.0,-40.5
537,0.0087890625,0.94921875,0.07519531,-33.65625,-58.75,-35.625
538,0.009765625,1.0341797,0.024414062,-26.625,-24.75,-22.09375
539,0.043945312,0.9814453,0.059570312,-23.4375,0.09375,-8.96875
540,0.009765625,0.9394531,0.043945312,-27.71875,-1.3125,-11.875
541,0.02734375,0.9199219,0.051757812,-34.0625,-2.40625,-25.5625
542,0.13769531,1.0556641,0.11425781,-36.21875,12.125,-30.0
543,0.23242188,1.0957031,-0.037109375,-18.4375,24.625,-13.0
544,0.2626953,1.0068359,-0.0048828125,-8.25,-7.84375,-4.375
545,0.21679688,1.0546875,0.11230469,-12.53125,-24.0,-14.625
546,-0.034179688,1.3232422,0.07519531,3.46875,14.875,-15.96875
547,-0.032226562,1.4433594,0.001953125,36.3125,23.46875,12.59375
548,0.08691406,1.1240234,-0.1015625,91.96875,31.96875,53.0
549,-0.0107421875,0.8515625,-0.06640625,132.9375,-13.09375,67.65625
550,-0.17578125,1.1621094,-0.15039062,118.40625,-12.09375,76.625
551,-0.33398438,1.203125,0.0126953125,90.0,13.65625,59.46875
552,0.2919922,0.92089844,-0.028320312,73.40625,84.21875,66.84375
553,0.12792969,1.0146484,-0.13867188,34.90625,77.25,99.9375
554,0.07910156,0.9482422,-0.11425781,28.0,14.0625,97.375
555,0.15917969,0.8388672,-0.140625,11.9375,-39.4375,85.59375
556,0.11621094,0.6386719,-0.2529297,8.84375,-76.1875,56.65625
557,0.08496094,0.5761719,-0.18457031,-2.15625,-92.84375,25.53125
558,0.09765625,0.4921875,-0.17480469,-20.75,-51.09375,-2.375
559,0.17773438,0.6123047,-0.3720703,-35.34375,-21.4375,-18.71875
560,0.66503906,0.99121094,-0.5058594,-47.3125,-27.84375,-30.4375
561,0.8857422,1.2148438,-0.4404297,-19.0,-28.84375,-14.34375
562,0.51660156,0.94140625,-0.44921875,4.0625,-73.03125,10.21875
563,0.12011719,0.7011719,-0.39257812,-31.5625,-45.3125,-1.09375
564,-0.11328125,1.5517578,-0.078125,-69.90625,35.0,-47.34375
565,-0.06738281,1.4228516,-0.3720703,-64.53125,52.84375,-36.46875
566,0.07714844,0.67578125,-0.22070312,-16.1875,139.375,-17.75
567,-0.20605469,0.5517578,0.11425781,-24.25,133.84375,-76.15625
568,0.1796875,1.0751953,0.28222656,-59.65625,-37.5625,-98.6875
569,0.42773438,1.1904297,0.13085938,-62.625,9.8125,-52.96875
570,0.14257812,0.96777344,-0.0068359375,-19.0,25.5,-23.96875
571,-0.043945312,0.9033203,0.064453125,-26.6875,-4.78125,-13.46875
572,-0.06738281,0.9355469,0.052734375,-29.0,-21.9375,-21.53125
573,0.029296875,0.9296875,0.1484375,-27.34375,12.125,-19.15625
574,0.046875,0.99609375,0.047851562,-22.65625,27.03125,-16.65625
575,0.055664062,0.9160156,0.029296875,-21.125,7.84375,-19.40625
576,0.1328125,0.98828125,0.08691406,-35.96875,-1.5,-24.28125
577,0.12011719,0.98535156,0.036132812,-43.28125,12.3125,-21.40625
578,0.11035156,0.96777344,-0.037109375,-29.6875,1.5,-16.28125
579,0.0048828125,1.0185547,0.10546875,-17.59375,-13.03125,-12.9375
580,0.013671875,1.0400391,0.109375,-10.5,1.125,-13.28125
581,0.036132812,1.1396484,0.05078125,0.59375,35.0625,-12.875
582,0.25390625,1.2900391,0.078125,22.09375,26.90625,-11.03125
583,0.37109375,1.3730469,0.009765625,48.5625,17.625,22.0625
584,0.09863281,1.1748047,-0.1484375,88.78125,-35.40625,50.75
585,-0.028320312,0.89160156,-0.11035156,132.5,-57.53125,50.6875
586,-0.24121094,1.2314453,0.046875,132.375,-19.75,58.25
587,-0.109375,1.1337891,0.038085938,90.875,7.375,46.46875
588,0.28710938,1.0146484,-0.083984375,65.90625,65.96875,74.46875
589,0.16015625,1.0244141,-0.107421875,33.375,83.96875,95.03125
590,-0.013671875,0.9785156,-0.028320312,28.78125,-5.40625,97.625
591,0.068359375,0.796875,-0.068359375,14.28125,-49.71875,86.6875
592,0.022460938,0.6357422,-0.16992188,1.5,-60.5625,52.5625
593,-0.041015625,0.5810547,-0.12597656,-15.09375,-63.5625,23.9375
594,0.064453125,0.49316406,-0.1640625,-29.625,-55.5,-11.15625
595,0.23925781,0.64453125,-0.36914062,-42.5625,-38.96875,-42.90625
596,0.6220703,0.9970703,-0.5332031,-44.8125,-46.84375,-55.28125
597,0.8857422,1.3251953,-0.41015625,-27.28125,-26.75,-18.84375
598,0.4375,0.79003906,-0.4013672,-17.65625,-29.375,11.5625
599,-0.111328125,1.1679688,-0.043945312,-52.4375,16.03125,-21.15625
600,-0.5957031,2.0078125,-0.125,-65.9375,60.59375,-84.09375
601,0.16308594,0.86035156,-0.46289062,-5.1875,-64.09375,-31.46875
602,0.17871094,0.37402344,0.13867188,-29.96875,164.90625,-25.375
603,-0.12597656,0.70703125,0.23730469,-30.53125,40.25,-53.15625
604,-0.10058594,1.2851562,0.16992188,-12.34375,-103.0,-50.59375
605,0.3466797,0.9716797,0.14746094,-42.0,-26.75,-20.25
606,0.10839844,1.0019531,0.053710938,-59.875,62.0,2.875
607,-0.18164062,0.9121094,-0.055664062,-38.84375,3.59375,-6.6875
608,-0.13769531,0.8730469,0.140625,-31.9375,-22.40625,-29.59375
609,0.045898438,0.99902344,0.1328125,-33.28125,21.40625,-27.9375
610,0.0078125,0.97558594,0.078125,-29.3125,36.46875,-19.75
611,0.06933594,0.9091797,0.038085938,-17.96875,7.78125,-21.84375
612,0.1484375,0.90527344,0.044921875,-14.0,16.09375,-18.34375
613,0.07714844,1.0566406,0.107421875,-25.09375,8.15625,-12.375
614,0.0087890625,1.09375,0.038085938,-25.59375,1.375,-14.9375
615,-0.033203125,1.0898438,0.059570312,-2.75,-1.125,-20.1875
616,0.14746094,1.0732422,0.029296875,15.25,15.25,-16.34375
617,0.23046875,1.2441406,-0.06640625,28.0625,31.40625,-3.53125
618,0.21289062,1.3232422,-0.14550781,64.1875,2.65625,28.9375
619,0.109375,1.0107422,-0.059570312,119.4375,-28.65625,48.21875
620,-0.11621094,0.89941406,0.025390625,140.96875,-32.625,64.96875
621,-0.30273438,1.3271484,0.15039062,101.25,-0.8125,61.0
622,0.09375,1.09375,-0.12597656,44.71875,85.375,65.8125
623,0.23242188,0.9892578,-0.08105469,21.65625,39.15625,93.09375
624,0.111328125,0.9980469,-0.03125,18.84375,-13.9375,90.40625
625,0.072265625,0.9501953,-0.07421875,2.4375,-18.875,78.09375
626,0.10449219,0.87109375,-0.119140625,3.46875,-50.875,64.84375
627,-0.009765625,0.74902344,-0.15722656,-10.3125,-63.5625,47.6875
628,-0.01953125,0.6298828,-0.13867188,-10.375,-73.625,18.875
629,0.05078125,0.5800781,-0.17382812,-23.5,-43.0,-11.65625
630,0.19042969,0.6533203,-0.2705078,-38.65625,-16.125,-35.875
631,0.41210938,0.8769531,-0.36816406,-44.25,-30.59375,-51.9375
632,0.84277344,1.2138672,-0.4169922,-37.78125,-24.3125,-35.6875
633,0.7597656,1.0097656,-0.5185547,-15.75,-7.53125,6.96875
634,0.021484375,1.2822266,-0.091796875,-33.28125,35.8125,-14.875
635,-0.6142578,1.9423828,-0.091796875,-63.625,52.90625,-63.78125
636,-0.08203125,0.76660156,-0.19628906,-9.65625,-31.5625,-33.25
637,0.033203125,0.4326172,0.15917969,-32.53125,123.625,-30.4375
638,-0.056640625,0.8515625,0.21777344,-35.65625,68.03125,-64.5
639,0.09765625,1.3671875,0.1015625,-14.53125,-59.09375,-57.40625
640,0.41796875,0.97753906,0.10644531,-27.125,-9.78125,-19.15625
641,0.038085938,0.9501953,0.1015625,-41.75,24.8125,4.46875
642,-0.15917969,0.95703125,0.083984375,-28.46875,-16.25,-5.84375
643,-0.07519531,0.91308594,0.07714844,-34.375,-0.5625,-18.53125
644,0.00390625,0.9501953,0.051757812,-29.3125,20.59375,-19.625
645,-0.024414062,0.95996094,0.07128906,-24.5,26.28125,-21.46875
646,0.14160156,1.0019531,0.034179688,-28.875,16.46875,-31.1875
647,0.26660156,1.0097656,-0.0625,-35.40625,11.15625,-31.28125
648,0.16894531,0.99121094,-0.044921875,-17.84375,8.59375,-13.78125
649,0.005859375,0.96972656,0.12011719,4.03125,15.3125,-6.9375
650,0.056640625,1.0859375,0.15429688,17.375,12.1875,-6.625
651,0.24414062,1.5087891,0.07714844,30.375,31.46875,19.0
652,-0.0126953125,1.3808594,-0.140625,63.28125,35.4375,51.09375
653,-0.0048828125,0.9609375,-0.072265625,112.96875,-24.3125,46.28125
654,-0.08300781,0.7265625,-0.024414062,135.59375,-11.5,53.96875
655,-0.39160156,1.4150391,0.0029296875,98.125,66.75,52.8125
656,0.20898438,1.0351562,-0.12890625,64.75,63.75,52.875
657,0.12890625,1.0019531,-0.034179688,37.21875,44.21875,76.1875
658,0.06542969,1.0498047,-0.057617188,21.71875,10.28125,82.53125
659,0.041015625,0.90722656,-0.07128906,5.90625,-5.34375,69.09375
660,0.10644531,0.6923828,-0.1328125,-0.0625,-42.125,52.4375
661,0.060546875,0.6201172,-0.18652344,-16.25,-60.1875,31.75
662,0.13574219,0.62597656,-0.18164062,-25.65625,-72.71875,-0.78125
663,0.22363281,0.7285156,-0.24023438,-34.625,-66.96875,-25.6875
664,0.2998047,0.84765625,-0.36523438,-44.1875,-57.625,-41.5625
665,0.5732422,1.1347656,-0.5371094,-27.71875,-48.78125,-42.15625
666,0.57421875,1.1660156,-0.5,3.90625,-60.5625,-2.71875
667,0.3935547,0.8496094,-0.3935547,4.25,-103.0625,29.25
668,-0.2548828,0.88964844,-0.0078125,-47.25,-7.46875,11.625
669,-0.36914062,2.0078125,-0.5390625,-34.625,-82.78125,-52.78125
670,0.107421875,0.62890625,0.3046875,17.625,-18.875,-55.78125
671,0.12207031,0.6386719,0.1796875,-25.78125,-11.8125,-52.28125
672,0.44921875,0.94921875,0.021484375,-51.40625,-104.28125,-38.0625
673,0.21972656,1.1367188,0.029296875,-38.46875,-167.8125,-15.625
674,-0.07910156,1.0244141,0.02734375,-42.1875,-120.5625,1.34375
675,-0.111328125,1.0068359,-0.0859375,-41.34375,-81.125,6.4375
676,0.01953125,1.0214844,-0.049804688,-31.5625,-77.90625,-1.5625
677,-0.055664062,0.89941406,0.02734375,-29.3125,-70.8125,-5.21875
678,-0.009765625,0.95214844,0.06738281,-37.0625,-62.15625,-17.9375
679,0.03125,0.94921875,0.09765625,-45.125,-44.28125,-25.25
680,0.080078125,0.9707031,0.053710938,-53.78125,-29.25,-29.34375
681,0.083984375,1.0234375,-0.045898438,-45.1875,-16.625,-28.125
682,0.09375,1.1318359,-0.15527344,-27.34375,-39.8125,-23.0625
683,0.123046875,1.0126953,-0.1484375,-8.0,-35.125,-14.4375
684,-0.01953125,0.9667969,-0.10058594,14.40625,-26.625,-0.03125
685,0.095703125,1.1992188,0.16503906,58.875,-45.0,16.4375
686,0.3642578,1.4697266,0.044921875,83.71875,-65.5625,33.84375
687,0.055664062,1.2060547,-0.12988281,119.375,-92.0,38.65625
688,-0.017578125,0.97753906,0.053710938,146.84375,-88.71875,37.75
689,-0.00390625,1.1289062,0.0029296875,98.4375,-59.53125,40.71875
690,0.3330078,1.0058594,0.041992188,58.71875,-113.4375,51.15625
691,0.21777344,0.9501953,0.060546875,28.25,-86.8125,69.96875
692,-0.0009765625,1.0322266,-0.095703125,10.25,-56.53125,70.3125
693,-0.11035156,0.96777344,-0.0859375,-2.5625,-44.03125,72.59375
694,0.04296875,0.8886719,-0.0087890625,-30.84375,-104.5625,71.78125
695,0.1015625,0.8535156,-0.041992188,-35.09375,-114.34375,52.0625
696,0.061523438,0.84277344,-0.12011719,-51.65625,-127.15625,26.3125
697,0.061523438,0.88378906,-0.1171875,-63.1875,-151.5625,1.25
698,0.043945312,1.0419922,-0.25683594,-45.96875,-190.21875,-18.46875
699,0.1484375,1.0849609,-0.35839844,-10.4375,-210.59375,-0.28125
700,-0.07324219,0.8955078,-0.19042969,12.75,-165.5625,24.71875
701,-0.25683594,0.7236328,-0.09082031,2.4375,-83.875,18.5625
702,-0.421875,1.0556641,0.14746094,-51.9375,-56.78125,-4.6875
703,0.22265625,1.6035156,-0.10644531,-58.375,-96.09375,-18.40625
704,0.50390625,0.98828125,-0.13671875,-29.75,-107.125,8.5
705,0.16113281,0.8574219,0.14453125,-14.59375,-146.5,15.21875
706,0.072265625,0.96484375,0.11425781,-37.25,-142.0,17.09375
707,0.025390625,1.0048828,0.083984375,-50.4375,-79.5625,20.28125
708,-0.020507812,1.0410156,0.064453125,-48.28125,-39.375,11.3125
709,-0.12207031,1.0166016,-0.037109375,-45.375,-55.4375,-1.875
710,0.03125,0.98535156,0.103515625,-29.375,-48.375,-7.375
711,0.02734375,0.97753906,0.07910156,-32.1875,-37.8125,-7.4375
712,0.03125,1.0595703,0.055664062,-26.25,-41.15625,-6.03125
713,0.068359375,0.9980469,0.123046875,-17.15625,-41.84375,-2.1875
714,0.022460938,1.0224609,0.078125,-20.09375,-34.9375,1.28125
715,-0.072265625,1.0332031,0.020507812,-20.03125,-24.625,-3.40625
716,0.059570312,0.98339844,0.03515625,-5.125,-16.9375,-2.65625
717,0.07910156,1.046875,0.14550781,1.28125,-17.96875,-1.375
718,0.12597656,1.0195312,0.26953125,-1.28125,-37.9375,-1.8125
719,-0.08886719,0.9970703,0.15039062,-12.875,-24.8125,2.34375
720,-0.15917969,0.9746094,0.107421875,-7.59375,-25.21875,1.0
721,-0.083984375,0.95703125,0.1015625,-1.71875,-5.15625,-3.53125
722,0.026367188,1.0068359,0.12890625,1.21875,2.0,-3.78125
723,0.04296875,1.0361328,0.10546875,0.0,-1.1875,-1.5
724,-0.0048828125,0.9921875,0.12109375,-0.125,-3.5,-0.28125
725,-0.034179688,0.98828125,0.10449219,-0.9375,-2.875,0.3125
726,-0.041015625,1.0,0.13085938,0.59375,-0.15625,-0.53125
727,-0.025390625,0.98535156,0.12402344,0.90625,2.96875,-2.25
728,-0.028320312,0.98046875,0.13769531,0.96875,2.46875,-2.5
729,-0.0048828125,1.0097656,0.125,0.53125,2.0625,-1.15625
730,-0.016601562,1.0039062,0.091796875,1.40625,3.75,0.0
731,-0.03515625,0.98828125,0.11621094,2.4375,4.4375,0.0625
732,-0.01953125,0.98535156,0.119140625,2.1875,3.34375,-0.40625
733,-0.018554688,1.0087891,0.111328125,0.90625,4.125,-0.34375
