sample_no,accel_x,accel_y,accel_z,gyro_x,gyro_y,gyro_z
0,-1.421875,-0.42871094,0.024414062,5.5625,-25.21875,7.65625
1,-1.1435547,-0.31835938,0.040039062,27.25,-37.96875,0.5625
2,-0.8388672,-0.080078125,0.018554688,53.25,-69.5625,-6.9375
3,-0.8613281,-0.045898438,0.22070312,65.375,-61.75,-15.65625
4,-1.0947266,-0.12695312,0.23828125,21.875,-100.03125,-33.0
5,-0.9628906,-0.34472656,0.10449219,41.53125,-52.84375,-39.59375
6,-0.88183594,-0.35058594,0.24023438,64.53125,-1.40625,-46.90625
7,-0.8828125,-0.3076172,0.27441406,90.78125,-4.21875,-51.4375
8,-0.875,-0.21972656,0.25390625,68.1875,7.4375,-63.09375
9,-0.7910156,-0.22753906,0.13964844,55.8125,27.65625,-58.6875
10,-0.83984375,-0.23535156,0.18066406,57.5,51.40625,-42.9375
11,-0.79589844,-0.19042969,0.19628906,51.21875,46.5625,-21.28125
12,-0.85253906,-0.22460938,0.23046875,45.78125,38.875,-4.0625
13,-0.93652344,-0.33691406,0.3955078,48.46875,29.65625,10.71875
14,-0.97265625,-0.5917969,0.5097656,55.5625,2.5625,-11.5
15,-0.9042969,-0.57421875,0.33496094,42.5,-17.4375,-48.0625
16,-0.875,-0.7753906,0.44140625,66.25,13.4375,-44.09375
17,-0.5996094,-0.46777344,0.38964844,103.21875,18.375,-44.34375
18,-0.69433594,-0.32910156,0.34570312,108.90625,13.5625,-46.90625
19,-1.0419922,-0.23339844,0.15332031,82.0,45.84375,-54.71875
20,-2.0,-0.6767578,0.26757812,73.25,60.375,-49.0
21,-0.30664062,0.36621094,0.23144531,17.15625,27.28125,13.15625
22,-0.79589844,-0.19140625,-0.12695312,74.78125,-35.21875,2.78125
23,-1.3759766,-0.3388672,0.044921875,-3.84375,81.125,8.8125
24,-0.7919922,-0.19824219,0.05859375,25.65625,34.84375,1.90625
25,-0.8701172,-0.18652344,0.15722656,14.71875,32.21875,3.5
26,-1.0595703,-0.33984375,0.047851562,-32.40625,19.21875,5.6875
27,-0.92089844,-0.4873047,0.13476562,-10.96875,29.84375,3.25
28,-0.8642578,-0.3623047,0.1171875,3.75,34.96875,5.09375
29,-0.91308594,-0.2861328,0.15820312,8.875,42.78125,12.0
30,-0.9707031,-0.2705078,0.119140625,1.65625,32.59375,23.03125
31,-0.8642578,-0.29492188,0.115234375,-11.15625,25.6875,29.3125
32,-0.99902344,-0.44140625,0.14160156,-15.625,29.1875,28.15625
33,-0.9082031,-0.34570312,0.080078125,-16.71875,27.78125,19.625
34,-1.0253906,-0.31835938,0.18457031,-5.1875,24.1875,21.21875
35,-1.0410156,-0.390625,0.13671875,-10.1875,-0.1875,29.03125
36,-1.1083984,-0.3408203,0.08105469,-24.65625,-22.40625,24.3125
37,-1.3291016,-0.47753906,-0.14941406,-26.84375,-49.0625,2.34375
38,-1.1376953,-0.2529297,0.022460938,22.78125,-40.59375,-36.46875
39,-0.88671875,-0.080078125,0.111328125,52.5,-88.125,-26.40625
40,-1.1425781,0.0068359375,0.15625,24.96875,-119.0625,-31.09375
41,-1.0253906,-0.21191406,0.08691406,14.96875,-111.3125,-45.5
42,-0.9863281,-0.49804688,0.36816406,15.53125,-24.34375,-33.96875
43,-0.81640625,-0.4140625,0.19042969,19.4375,-1.78125,-38.3125
44,-0.7246094,-0.15917969,0.16992188,69.78125,11.53125,-42.40625
45,-0.828125,-0.20019531,0.26171875,41.875,14.53125,-48.0625
46,-0.72558594,-0.19726562,0.15625,28.09375,29.71875,-37.6875
47,-0.7109375,-0.11816406,0.22070312,15.9375,46.6875,-22.0
48,-0.7207031,-0.16308594,0.19921875,7.65625,43.65625,3.25
49,-0.8964844,-0.34277344,0.34472656,13.0625,24.40625,25.46875
50,-0.97265625,-0.71972656,0.67089844,34.625,15.3125,2.84375
51,-0.89746094,-0.73535156,0.29589844,18.25,-27.65625,-54.59375
52,-0.94628906,-0.83984375,0.5654297,62.875,21.4375,-34.03125
53,-0.53125,-0.46679688,0.31835938,99.3125,19.34375,-35.0625
54,-0.8173828,-0.22460938,0.25878906,106.875,39.96875,-34.65625
55,-1.2871094,0.041015625,0.31347656,41.75,46.875,-15.40625
56,-1.3681641,-0.51464844,0.09765625,8.5625,64.03125,17.46875
57,-0.17871094,0.22460938,0.041015625,61.1875,5.0,21.09375
58,-1.1445312,-0.47460938,-0.19042969,34.9375,9.34375,-16.625
59,-1.0302734,-0.17089844,0.32226562,32.375,71.59375,10.03125
60,-0.8388672,-0.14746094,0.09765625,3.1875,25.8125,0.9375
61,-0.9511719,-0.29492188,0.14941406,-31.90625,17.09375,9.0625
62,-0.9765625,-0.42871094,0.09472656,-27.375,25.34375,5.09375
63,-0.8886719,-0.39257812,0.11816406,-12.3125,28.875,5.65625
64,-0.88183594,-0.3388672,0.13085938,-6.875,33.375,12.96875
65,-0.92578125,-0.28808594,0.13671875,-12.875,30.34375,17.59375
66,-0.9160156,-0.35839844,0.123046875,-21.71875,27.21875,24.375
67,-0.9033203,-0.29882812,0.12988281,-19.34375,30.40625,27.84375
68,-0.9550781,-0.42089844,0.059570312,-22.15625,25.625,26.625
69,-0.95996094,-0.1953125,0.09375,-13.90625,26.0,21.15625
70,-1.0302734,-0.31835938,0.09082031,-23.96875,6.0,19.25
71,-1.1074219,-0.34375,0.15234375,-35.6875,-9.34375,22.90625
72,-1.203125,-0.546875,-0.06738281,-42.53125,-35.65625,16.25
73,-1.3115234,-0.3466797,0.103515625,9.34375,-24.46875,-29.40625
74,-1.0019531,-0.111328125,0.08105469,24.5625,-67.875,-36.59375
75,-1.0019531,0.0390625,0.04296875,45.5625,-121.9375,-56.5
76,-1.3056641,0.4013672,0.11621094,66.71875,-130.6875,-41.34375
77,-1.0371094,-0.5800781,0.5517578,-106.625,-38.5625,-55.21875
78,-1.0273438,-0.31640625,-0.03515625,26.4375,-24.59375,-25.84375
79,-0.8095703,-0.3232422,0.20800781,56.15625,-4.625,-22.0625
80,-0.8408203,-0.14550781,0.34375,20.875,-1.71875,-35.625
81,-0.6503906,-0.13769531,0.16992188,24.0625,-5.375,-13.21875
82,-0.6044922,-0.07421875,0.20703125,-3.9375,25.15625,-1.5
83,-0.6376953,-0.13574219,0.2548828,-2.84375,43.09375,14.5
84,-0.65722656,-0.27441406,0.27441406,-11.34375,26.1875,28.21875
85,-1.2861328,-0.5644531,0.734375,-5.46875,40.53125,9.375
86,-1.1269531,-0.6826172,0.4736328,-16.34375,-18.0,-33.84375
87,-0.7529297,-0.53222656,0.49121094,15.46875,-7.875,-26.71875
88,-0.53515625,-0.6044922,0.48632812,63.0625,6.71875,-16.28125
89,-0.73535156,-0.36523438,0.2607422,86.3125,23.0,-13.09375
90,-1.3398438,0.12695312,0.2919922,34.6875,46.28125,-3.09375
91,-1.4716797,-0.52246094,0.061523438,11.5625,41.1875,23.9375
92,-0.09277344,0.3642578,-0.056640625,6.5,-1.8125,16.9375
93,-1.0322266,-0.5390625,-0.13867188,-3.84375,4.875,-16.40625
94,-1.1748047,-0.2109375,0.23144531,19.78125,74.71875,11.9375
95,-0.8564453,-0.01171875,-0.001953125,-22.375,17.15625,12.53125
96,-0.9814453,-0.2685547,0.15429688,-74.3125,5.0625,4.375
97,-1.0009766,-0.32714844,0.0390625,-73.03125,2.09375,1.625
98,-0.9013672,-0.38378906,0.068359375,-63.46875,7.15625,10.46875
99,-0.87597656,-0.39941406,0.095703125,-58.6875,10.6875,15.15625
100,-0.93066406,-0.39453125,0.11621094,-52.40625,6.71875,18.59375
101,-0.9189453,-0.39160156,0.091796875,-44.53125,9.90625,19.25
102,-0.88964844,-0.36035156,0.15234375,-35.875,10.5625,21.6875
103,-0.9277344,-0.3935547,0.1328125,-27.5625,14.34375,22.4375
104,-0.921875,-0.42871094,0.055664062,-15.1875,17.34375,16.5625
105,-0.96191406,-0.34375,0.09765625,-17.75,17.53125,14.4375
106,-0.96875,-0.3203125,0.18164062,-22.9375,10.375,19.625
107,-0.921875,-0.36621094,0.12988281,-22.5,7.625,19.375
108,-0.9189453,-0.33398438,0.06347656,-26.84375,2.09375,23.84375
109,-1.0283203,-0.4580078,0.07714844,-31.1875,-5.0625,27.8125
110,-1.0957031,-0.51953125,-0.049804688,-20.0,-24.71875,24.0625
111,-1.4414062,-0.35351562,0.10058594,5.25,-20.3125,-25.84375
112,-1.0371094,-0.27441406,-0.032226562,37.84375,-43.40625,-4.0
113,-0.7011719,-0.017578125,0.11035156,67.8125,-72.09375,-30.5625
114,-1.0546875,-0.19335938,0.24511719,12.46875,-97.15625,-52.40625
115,-1.1289062,-0.34570312,0.19824219,5.8125,-52.0,-52.84375
116,-0.9628906,-0.4111328,0.22558594,44.75,-15.0,-48.8125
117,-0.9199219,-0.421875,0.25,84.25,-0.53125,-48.375
118,-0.90527344,-0.13476562,0.28710938,66.46875,-3.28125,-44.71875
119,-0.7998047,-0.17089844,0.13867188,55.5625,1.34375,-37.625
120,-0.7597656,-0.18359375,0.15722656,14.0,9.34375,-23.65625
121,-0.6298828,-0.10546875,0.26660156,19.84375,22.53125,-0.53125
122,-0.6621094,-0.31347656,0.23046875,28.875,27.90625,12.78125
123,-0.7626953,-0.39648438,0.45117188,21.0625,24.65625,20.59375
124,-0.99121094,-0.9716797,0.4951172,39.8125,10.5,-13.34375
125,-0.99902344,-0.42871094,0.29101562,34.5,-1.15625,-32.5625
126,-0.81347656,-0.5,0.3359375,66.84375,-0.1875,-21.28125
127,-0.76171875,-0.34277344,0.6152344,66.0625,9.40625,-21.21875
128,-1.0175781,-0.072265625,0.2578125,79.3125,26.8125,10.34375
129,-2.0,-0.5205078,0.0029296875,67.03125,24.25,-3.8125
130,-0.18261719,0.17480469,0.12207031,-21.59375,17.71875,22.4375
131,-0.5283203,-0.28027344,-0.0029296875,41.46875,-9.53125,-1.6875
132,-1.5244141,-0.36328125,0.0009765625,-8.03125,72.4375,2.96875
133,-0.80371094,-0.19921875,0.12695312,-1.8125,37.46875,-0.15625
134,-0.88378906,-0.16699219,0.1796875,-34.96875,26.25,0.5625
135,-0.99316406,-0.30566406,0.09277344,-61.5625,15.1875,-3.875
136,-0.94921875,-0.36914062,0.02734375,-44.1875,29.25,3.0625
137,-0.8779297,-0.29882812,0.10839844,-38.25,29.84375,6.1875
138,-0.9824219,-0.22070312,0.13085938,-49.53125,17.40625,18.8125
139,-0.95214844,-0.36035156,0.09863281,-52.53125,17.34375,18.8125
140,-0.9404297,-0.33496094,0.08691406,-49.0625,19.09375,13.9375
141,-0.9326172,-0.3701172,0.123046875,-39.21875,18.8125,16.375
142,-1.0,-0.33496094,0.095703125,-36.3125,7.75,12.34375
143,-0.96484375,-0.328125,0.22949219,-55.28125,-5.3125,12.0
144,-1.0429688,-0.4375,0.15332031,-64.0625,-15.0,20.15625
145,-1.0888672,-0.5527344,0.15332031,-62.375,-22.28125,27.96875
146,-1.4697266,-0.62109375,-0.09375,-39.71875,-52.78125,15.21875
147,-1.2822266,-0.37402344,0.12597656,32.4375,-43.6875,-1.9375
148,-1.0917969,-0.048828125,0.14257812,30.78125,-63.71875,-1.0
149,-0.9033203,-0.12792969,0.29296875,-18.46875,-110.03125,-18.03125
150,-0.984375,-0.41015625,0.16015625,30.28125,-57.0,-20.53125
151,-0.9794922,-0.26464844,0.24414062,36.4375,-33.5625,-17.5625
152,-0.90625,-0.31347656,0.2578125,45.25,-31.75,-25.5
153,-0.7705078,-0.056640625,0.171875,28.8125,-14.21875,-29.46875
154,-0.8222656,-0.16210938,0.26367188,13.6875,-20.5,-29.5
155,-0.7363281,-0.29296875,0.2421875,2.34375,5.25,-34.34375
156,-0.5996094,-0.14941406,0.29101562,35.65625,21.625,-17.3125
157,-0.66796875,-0.34960938,0.3173828,54.875,30.53125,-12.25
158,-0.88378906,-0.4609375,0.45996094,55.375,35.15625,-18.53125
159,-1.0595703,-0.6464844,0.57128906,64.78125,20.5,-34.40625
160,-0.6484375,-0.38183594,0.37402344,87.21875,9.78125,-49.21875
161,-0.48242188,-0.3857422,0.03125,-8.03125,-51.6875,-60.59375
162,-1.3759766,-0.26757812,0.7167969,96.15625,15.375,-53.375
163,-1.5166016,-0.123046875,-0.07519531,76.0625,137.34375,3.125
164,-0.087890625,-0.115234375,0.0146484375,82.34375,-0.84375,32.0625
165,-1.0361328,-0.5283203,-0.171875,107.5,20.09375,-7.90625
166,-1.2207031,-0.2998047,0.25585938,106.46875,93.5,10.21875
167,-0.7597656,-0.19140625,0.020507812,96.5625,58.59375,-4.96875
168,-0.9169922,-0.35253906,0.18847656,97.1875,50.65625,0.625
169,-1.0117188,-0.36621094,0.08300781,111.34375,56.59375,-12.1875
170,-0.921875,-0.30078125,0.041015625,126.84375,62.0,-8.53125
171,-0.9140625,-0.2548828,0.046875,119.09375,58.0,-9.75
172,-1.0214844,-0.2998047,0.017578125,98.46875,50.28125,-10.21875
173,-0.94433594,-0.31152344,-0.07324219,85.46875,41.4375,-12.3125
174,-0.95703125,-0.33398438,-0.037109375,88.28125,45.71875,-8.75
175,-0.9785156,-0.27929688,-0.041015625,91.6875,42.125,-4.375
176,-1.0615234,-0.19433594,0.08203125,90.65625,29.3125,4.96875
177,-1.1005859,-0.22851562,0.12890625,72.90625,-2.875,8.75
178,-1.0976562,-0.25,-0.044921875,48.0625,-33.5,7.34375
179,-1.2783203,-0.37890625,0.018554688,78.3125,-19.46875,-3.09375
180,-0.9589844,-0.35058594,0.030273438,122.34375,-25.875,-3.875
181,-0.9248047,-0.078125,0.21972656,137.46875,-55.40625,-13.65625
182,-1.0537109,-0.018554688,0.35351562,120.8125,-84.40625,-40.0625
183,-0.9375,-0.10058594,0.083984375,94.875,-57.25,-74.625
184,-1.0214844,-0.2685547,0.09277344,62.8125,-14.03125,-87.5625
185,-1.0185547,-0.32910156,0.28125,71.0,17.75,-91.84375
186,-0.9746094,-0.3408203,0.22265625,68.6875,19.84375,-94.15625
187,-0.88378906,-0.19433594,0.22558594,75.09375,35.40625,-81.5625
188,-0.8847656,-0.16210938,0.19238281,79.40625,32.96875,-51.90625
189,-0.8046875,-0.14550781,0.23632812,64.21875,33.09375,-27.3125
190,-0.78808594,-0.15527344,0.28027344,61.40625,34.5,-3.625
191,-0.67089844,-0.24023438,0.31933594,56.09375,30.65625,21.625
192,-0.8408203,-0.390625,0.5683594,63.75,12.53125,21.15625
193,-0.9794922,-0.7128906,0.4892578,70.15625,-4.03125,-15.96875
194,-0.8232422,-0.20800781,0.22265625,25.09375,13.125,-51.5
195,-0.5800781,-0.16113281,0.09863281,-20.6875,18.3125,-41.65625
196,-2.0,-0.93359375,-0.026367188,160.40625,-94.78125,-77.3125
197,-0.5986328,-0.37304688,0.24511719,33.78125,19.65625,8.09375
198,-0.6689453,-0.34375,-0.20507812,49.46875,59.28125,-15.96875
199,-1.3037109,-0.28808594,0.17382812,79.84375,73.96875,-18.46875
200,-0.8544922,0.06347656,0.026367188,2.6875,55.71875,-3.5625
201,-0.89160156,-0.41308594,0.21289062,-21.09375,32.53125,16.5
202,-0.83203125,-0.47753906,0.08300781,5.1875,39.5625,20.40625
203,-0.9033203,-0.51171875,0.15625,30.90625,52.5625,15.90625
204,-0.8671875,-0.3984375,0.09863281,46.84375,52.125,12.53125
205,-0.8486328,-0.3173828,0.0625,47.5625,55.0625,19.375
206,-0.85546875,-0.33203125,0.0146484375,38.46875,57.75,24.875
207,-0.9482422,-0.3125,0.013671875,43.15625,71.71875,26.8125
208,-1.2226562,-0.36328125,0.22363281,45.5,39.5625,28.96875
209,-0.8935547,-0.3720703,0.04296875,26.5625,-1.8125,11.5625
210,-0.9785156,-0.31933594,0.0009765625,23.28125,-10.3125,5.40625
211,-1.0683594,-0.024414062,0.0087890625,35.28125,-40.09375,-33.59375
212,-1.5244141,-0.1015625,0.119140625,12.90625,-53.15625,-56.8125
213,-1.046875,-0.14746094,0.17285156,1.71875,-81.84375,-47.34375
214,-0.99121094,-0.14550781,0.24804688,16.625,-86.65625,-45.5625
215,-1.0,-0.24902344,0.3955078,6.96875,-85.375,-42.15625
216,-0.98535156,-0.2939453,0.15332031,37.5,-41.1875,-33.0
217,-0.92285156,-0.14453125,0.27246094,31.9375,-20.9375,-36.03125
218,-0.87402344,-0.0009765625,0.24902344,4.46875,-30.21875,-19.75
219,-0.7714844,-0.111328125,0.2529297,-15.25,-5.71875,-0.84375
220,-0.71191406,-0.1953125,0.2685547,-12.0625,11.78125,12.71875
221,-0.59277344,-0.20898438,0.25390625,-22.5625,22.65625,14.375
222,-0.57421875,-0.27441406,0.23046875,-28.0625,41.15625,22.96875
223,-0.6923828,-0.32128906,0.39453125,-14.6875,33.75,25.84375
224,-1.3183594,-0.79589844,0.8017578,7.71875,45.34375,-8.15625
225,-1.1318359,-0.37890625,0.45507812,-10.4375,0.5625,-38.78125
226,-0.6298828,-0.45410156,0.55371094,-3.65625,9.53125,-22.3125
227,-1.3789062,-0.28515625,0.390625,65.5625,-34.59375,8.75
228,-1.7460938,-0.2578125,0.19824219,12.71875,-25.6875,10.84375
229,-0.35351562,0.08300781,-0.103515625,0.125,4.15625,0.03125
230,-1.0107422,-0.5703125,-0.24023438,16.8125,8.84375,-16.6875
231,-1.1455078,-0.09765625,0.2861328,4.34375,81.65625,12.59375
232,-0.92089844,0.005859375,0.09277344,-57.1875,18.0625,-2.96875
233,-0.9111328,-0.24316406,0.036132812,-95.625,5.375,6.125
234,-0.93847656,-0.4970703,0.04296875,-70.3125,16.1875,14.96875
235,-0.85058594,-0.46972656,0.08300781,-41.0625,24.40625,20.34375
236,-0.8642578,-0.43164062,0.10546875,-33.25,20.34375,23.59375
237,-0.88183594,-0.44726562,0.07714844,-22.03125,28.3125,27.5
238,-0.87597656,-0.35546875,0.17285156,-18.40625,28.1875,36.53125
239,-0.92285156,-0.46679688,0.0546875,-19.6875,22.9375,42.8125
240,-1.1601562,-0.5986328,0.8076172,18.15625,43.59375,11.125
241,-0.99121094,-0.7080078,0.38085938,-6.875,-38.75,-38.59375
242,-0.81933594,-0.4580078,0.4609375,22.28125,-0.3125,-25.4375
243,-0.63183594,-0.56933594,0.49804688,50.90625,-7.1875,-17.4375
244,-1.0117188,-0.3095703,0.4501953,85.84375,18.5625,-22.125
245,-1.625,0.078125,0.14257812,45.1875,55.96875,-8.03125
246,-0.8720703,-0.1015625,0.32910156,9.96875,5.8125,10.03125
247,-0.63671875,-0.13867188,-0.099609375,14.65625,-15.125,5.34375
248,-1.0605469,-0.4482422,-0.038085938,-11.8125,45.65625,-2.53125
249,-0.98535156,-0.31640625,-0.0029296875,30.65625,37.1875,11.125
250,-0.8955078,-0.13867188,0.16699219,7.34375,41.09375,5.40625
251,-0.9902344,-0.2626953,0.171875,-31.65625,28.375,1.78125
252,-0.9140625,-0.33496094,0.076171875,-37.40625,27.34375,9.90625
253,-0.8564453,-0.35253906,0.099609375,-22.375,34.0625,18.53125
254,-0.91503906,-0.37597656,0.13476562,-12.9375,39.5625,23.71875
255,-0.8496094,-0.39746094,0.111328125,-12.9375,39.4375,24.625
256,-0.91015625,-0.3701172,0.09375,-3.84375,44.4375,29.125
257,-0.9609375,-0.359375,0.107421875,-3.21875,39.8125,29.1875
258,-1.0107422,-0.3466797,0.15429688,-11.28125,21.5,31.28125
259,-0.9951172,-0.3408203,0.13769531,-12.1875,6.0,19.3125
260,-0.93359375,-0.34570312,0.07519531,-13.65625,-11.28125,4.78125
261,-0.98828125,-0.39257812,0.07324219,-21.59375,-21.90625,7.09375
262,-1.2207031,-0.44433594,0.029296875,-16.40625,-20.3125,12.34375
263,-1.2275391,-0.5214844,-0.056640625,19.5,-23.9375,-7.40625
264,-1.1708984,-0.23925781,0.119140625,55.0,-38.25,-29.46875
265,-1.046875,0.041015625,0.12695312,63.4375,-76.28125,-42.6875
266,-1.0283203,-0.06542969,0.1796875,10.28125,-99.46875,-52.46875
267,-1.0302734,-0.37304688,0.19628906,7.40625,-59.8125,-40.3125
268,-0.9394531,-0.2705078,0.20898438,53.96875,-32.53125,-40.125
269,-0.8574219,-0.39257812,0.24902344,71.0,-16.71875,-38.65625
270,-0.8232422,-0.1875,0.22753906,48.96875,-1.15625,-37.09375
271,-0.76171875,-0.10449219,0.22070312,37.1875,11.28125,-31.21875
272,-0.7080078,-0.13476562,0.18945312,5.15625,23.0,-21.65625
273,-0.6347656,-0.12988281,0.23046875,-5.1875,36.5,-4.125
274,-0.64746094,-0.20605469,0.21777344,-6.21875,37.0625,11.3125
275,-0.9980469,-0.4140625,0.4296875,-10.1875,20.375,21.625
276,-1.1777344,-0.8701172,0.6621094,9.09375,16.0,-5.78125
277,-0.9433594,-0.41796875,0.4169922,-4.6875,-16.71875,-39.9375
278,-0.7685547,-0.6972656,0.4404297,52.375,18.125,-8.875
279,-0.7441406,-0.47265625,0.39453125,83.375,0.0625,-19.03125
280,-1.4003906,-0.18945312,0.25195312,60.9375,27.40625,-22.5
281,-1.4814453,-0.15234375,0.35839844,21.9375,36.0,13.6875
282,-0.35351562,0.14746094,0.038085938,-5.21875,-8.90625,2.96875
283,-0.99609375,-0.5419922,-0.2109375,-12.5,-16.34375,-13.65625
284,-1.1601562,-0.24023438,0.19824219,9.15625,62.5625,14.0
285,-0.8798828,-0.111328125,0.022460938,13.1875,20.875,11.875
286,-0.97265625,-0.0859375,0.119140625,-38.625,16.3125,5.46875
287,-1.0205078,-0.29785156,0.05078125,-64.6875,7.9375,11.4375
288,-0.9082031,-0.3779297,0.044921875,-47.21875,18.875,12.21875
289,-0.87597656,-0.36621094,0.080078125,-40.6875,26.90625,13.9375
290,-0.9277344,-0.42773438,0.15136719,-40.09375,25.46875,16.9375
291,-0.87597656,-0.40429688,0.05859375,-32.15625,22.59375,21.9375
292,-0.9140625,-0.3701172,0.15625,-25.4375,22.65625,30.40625
293,-0.9267578,-0.34375,0.20117188,-34.15625,17.71875,32.5
294,-0.9111328,-0.45703125,0.08105469,-34.59375,12.28125,28.53125
295,-0.9707031,-0.38476562,0.10058594,-25.3125,12.75,15.09375
296,-0.9296875,-0.38085938,0.06933594,-22.75,1.15625,17.125
297,-1.1748047,-0.43945312,0.15527344,-30.6875,-7.0625,25.0625
298,-1.2197266,-0.5058594,0.024414062,-19.03125,-23.8125,6.375
299,-1.2021484,-0.30859375,0.025390625,20.59375,-33.4375,-17.90625
300,-1.0185547,-0.028320312,0.11425781,41.28125,-60.71875,-30.3125
301,-1.0341797,0.057617188,0.1796875,13.8125,-88.1875,-39.78125
302,-1.0859375,-0.23046875,0.17285156,-5.59375,-87.09375,-31.78125
303,-0.9892578,-0.30859375,0.25,22.65625,-55.28125,-23.90625
304,-0.9296875,-0.27539062,0.2109375,44.75,-37.96875,-16.34375
305,-0.87402344,-0.15429688,0.25976562,27.78125,-25.03125,-18.84375
306,-0.8203125,-0.04296875,0.27441406,7.21875,-12.21875,-10.03125
307,-0.76464844,-0.1328125,0.24316406,-3.53125,-5.125,1.5
308,-0.7089844,-0.10546875,0.21386719,-11.09375,8.78125,16.75
309,-0.6582031,-0.15136719,0.2421875,-24.40625,25.03125,19.75
310,-0.7216797,-0.21484375,0.23828125,-41.3125,29.375,22.84375
311,-1.0253906,-0.5419922,0.60546875,-12.8125,22.84375,10.21875
312,-1.0498047,-0.625,0.45996094,-43.375,-4.6875,-20.1875
313,-0.91796875,-0.38183594,0.5761719,-21.15625,-20.3125,-22.0
314,-0.73828125,-0.5126953,0.50683594,30.21875,5.5,-3.6875
315,-0.9394531,-0.33789062,0.46777344,66.65625,1.71875,-0.15625
316,-1.546875,-0.09375,0.27441406,28.6875,4.28125,1.78125
317,-0.9628906,0.015625,0.4638672,7.21875,1.15625,12.1875
318,-0.5449219,0.029296875,0.08105469,-19.9375,-13.96875,-0.21875
319,-1.140625,-0.5136719,-0.026367188,-40.15625,25.6875,-3.625
320,-1.0048828,-0.2421875,0.09375,16.1875,27.40625,11.0625
321,-0.9199219,-0.17773438,0.06933594,-3.34375,29.46875,2.78125
322,-0.94628906,-0.21582031,0.15917969,-38.125,23.1875,-4.625
323,-0.99316406,-0.24609375,0.047851562,-56.875,15.125,6.1875
324,-0.9003906,-0.2998047,0.0859375,-52.96875,18.4375,16.09375
325,-0.9111328,-0.40234375,0.076171875,-43.25,23.5625,19.6875
326,-0.90625,-0.37890625,0.12207031,-30.0,29.1875,16.8125
327,-0.94140625,-0.4169922,0.14550781,-21.90625,24.0625,15.96875
328,-0.89160156,-0.34570312,0.11816406,-17.375,19.21875,20.03125
329,-0.9423828,-0.32421875,0.17773438,-20.25,18.4375,29.8125
330,-0.9511719,-0.41308594,0.09863281,-29.65625,6.03125,28.03125
331,-0.95996094,-0.3076172,0.15820312,-17.375,12.9375,14.96875
332,-0.9560547,-0.3232422,0.11816406,-22.5,-4.6875,8.75
333,-1.0742188,-0.3076172,0.08984375,-34.28125,-16.65625,18.40625
334,-1.2587891,-0.4326172,0.049804688,-39.71875,-29.59375,12.90625
335,-1.1923828,-0.55371094,-0.013671875,0.5,-30.5,-6.9375
336,-1.1074219,-0.26660156,0.11328125,45.375,-39.90625,-15.53125
337,-0.99121094,0.0234375,0.12890625,50.84375,-78.96875,-25.65625
338,-1.046875,0.0390625,0.15917969,-8.46875,-103.28125,-31.78125
339,-1.0341797,-0.29101562,0.23535156,0.4375,-80.3125,-25.84375
340,-0.91503906,-0.29589844,0.23925781,29.0625,-50.09375,-24.03125
341,-0.85253906,-0.20605469,0.2685547,35.28125,-31.75,-22.625
342,-0.8496094,-0.16601562,0.35058594,10.34375,-15.875,-31.34375
343,-0.78808594,-0.17089844,0.29492188,-5.78125,3.53125,-31.78125
344,-0.7392578,-0.22460938,0.23632812,-7.8125,18.8125,-27.625
345,-0.6533203,-0.24804688,0.21289062,3.5,34.625,-6.9375
346,-0.7080078,-0.28320312,0.2705078,15.75,37.34375,2.28125
347,-0.9423828,-0.44921875,0.43066406,27.0,24.40625,6.5625
348,-1.0732422,-0.6455078,0.5527344,21.9375,25.625,-16.6875
349,-0.8808594,-0.5859375,0.375,17.71875,-8.65625,-54.34375
350,-0.8359375,-0.62890625,0.41503906,53.3125,23.0,-49.40625
351,-0.6230469,-0.46191406,0.3828125,74.84375,28.15625,-47.28125
352,-0.6894531,-0.3251953,0.3466797,89.90625,24.65625,-37.6875
353,-1.1591797,-0.17773438,0.25097656,50.0625,48.09375,-26.46875
354,-2.0,-0.58203125,0.43359375,53.0625,38.34375,12.71875
355,-0.53027344,-0.043945312,0.11328125,18.625,-8.65625,12.78125
356,-0.6376953,-0.2861328,-0.049804688,32.3125,15.03125,-12.3125
357,-1.1005859,-0.46484375,0.08984375,60.375,68.90625,5.8125
358,-0.9560547,-0.24121094,0.034179688,77.15625,44.6875,14.625
359,-0.88183594,-0.34960938,0.18066406,53.96875,46.8125,4.90625
360,-0.9482422,-0.4423828,0.13183594,35.90625,39.96875,-4.125
361,-0.8857422,-0.3515625,0.123046875,45.4375,47.0,-2.40625
362,-0.85839844,-0.37597656,0.13867188,59.40625,49.1875,8.3125
363,-0.93066406,-0.33789062,0.12988281,60.125,51.6875,15.15625
364,-0.9316406,-0.38378906,0.11425781,59.9375,49.75,11.5
365,-0.90625,-0.3955078,0.048828125,63.5625,42.65625,10.09375
366,-0.96972656,-0.36816406,0.032226562,59.71875,36.125,11.75
367,-1.0078125,-0.265625,0.06347656,56.15625,28.03125,12.0625
368,-0.98535156,-0.25976562,0.078125,47.5,16.71875,9.375
369,-1.0009766,-0.3515625,0.17089844,37.0625,10.3125,9.3125
370,-1.109375,-0.4609375,0.033203125,20.46875,-3.15625,13.6875
371,-1.1367188,-0.4091797,-0.038085938,25.28125,-11.28125,13.15625
372,-1.1552734,-0.27441406,0.041015625,62.28125,-7.25,-14.375
373,-1.0283203,-0.08496094,0.19921875,75.6875,-35.21875,-15.21875
374,-0.98046875,-0.12597656,0.14941406,76.5625,-74.09375,-19.875
375,-1.0107422,-0.20605469,0.15136719,54.9375,-76.90625,-43.25
376,-1.0078125,-0.11816406,0.1796875,45.0,-43.34375,-53.5625
377,-0.9482422,-0.29003906,0.20214844,52.03125,-24.09375,-51.96875
378,-0.87402344,-0.30859375,0.18359375,55.875,-10.0,-55.03125
379,-0.8671875,-0.17675781,0.2685547,44.5625,3.0625,-48.0625
380,-0.8183594,-0.16503906,0.1953125,32.125,14.34375,-39.28125
381,-0.7734375,-0.18359375,0.20800781,29.1875,26.8125,-25.1875
382,-0.7480469,-0.19140625,0.24414062,29.6875,30.59375,-9.0
383,-0.79296875,-0.21386719,0.25390625,17.59375,25.625,4.25
384,-0.9794922,-0.38378906,0.49316406,28.8125,35.71875,5.46875
385,-1.0400391,-0.55566406,0.5371094,16.875,12.75,-17.125
386,-0.8964844,-0.5625,0.34570312,27.0625,-5.6875,-44.21875
387,-0.7910156,-0.7548828,0.46875,52.9375,22.59375,-39.53125
388,-0.5625,-0.49414062,0.2841797,84.71875,14.46875,-48.3125
389,-0.9375,-0.38476562,0.25585938,102.3125,36.3125,-44.28125
390,-2.0,-0.5332031,0.125,66.90625,56.53125,-39.03125
391,-0.43554688,0.068359375,0.2734375,19.84375,52.4375,4.375
392,-0.5878906,-0.029296875,0.21386719,87.90625,-28.6875,19.9375
393,-1.3769531,-0.6308594,-0.10644531,27.0,48.15625,11.0
394,-0.8701172,-0.2841797,0.107421875,68.375,55.65625,11.875
395,-0.81152344,-0.31347656,0.13867188,78.4375,34.375,2.71875
396,-1.0830078,-0.3330078,0.05078125,37.375,38.5625,-0.34375
397,-0.9785156,-0.32617188,0.13476562,35.125,41.03125,-7.0625
398,-0.92089844,-0.3154297,0.057617188,40.59375,36.75,1.5625
399,-0.96777344,-0.296875,0.07519531,46.34375,49.5625,8.6875
400,-0.9277344,-0.29101562,0.10449219,47.4375,43.15625,11.0625
401,-0.9423828,-0.33007812,0.0234375,42.875,34.5625,15.84375
402,-0.93066406,-0.29296875,0.040039062,31.625,31.0625,22.4375
403,-0.93652344,-0.2841797,0.10058594,24.5,22.03125,25.34375
404,-1.0380859,-0.2841797,0.15234375,9.21875,11.71875,21.21875
405,-1.0029297,-0.23828125,0.1953125,5.3125,4.40625,16.75
406,-1.1875,-0.44335938,-0.01171875,18.625,-13.4375,7.90625
407,-1.2363281,-0.39160156,0.025390625,53.1875,-11.53125,-18.09375
408,-0.9736328,-0.25,0.051757812,58.78125,-33.0625,-8.15625
409,-0.97558594,0.034179688,0.19628906,67.9375,-63.59375,-17.5
410,-1.109375,-0.057617188,0.2763672,24.90625,-101.3125,-45.625
411,-1.1005859,-0.31445312,0.21484375,20.28125,-76.21875,-54.0
412,-0.9003906,-0.3408203,0.13476562,54.65625,-24.46875,-58.125
413,-0.89941406,-0.31933594,0.32421875,68.3125,-6.59375,-63.15625
414,-0.9404297,-0.26171875,0.30273438,51.03125,6.46875,-65.21875
415,-0.7919922,-0.18457031,0.14941406,40.1875,19.15625,-54.71875
416,-0.7753906,-0.19238281,0.12207031,48.78125,42.3125,-37.625
417,-0.75097656,-0.16503906,0.23632812,41.28125,41.1875,-17.375
418,-0.78027344,-0.19824219,0.21386719,39.6875,35.40625,-2.40625
419,-0.8984375,-0.375,0.30371094,46.34375,25.40625,11.625
420,-0.97753906,-0.50683594,0.67285156,55.9375,25.53125,-10.28125
421,-0.86816406,-0.71777344,0.27441406,38.15625,-31.0625,-54.46875
422,-0.7011719,-0.7558594,0.37597656,59.15625,16.0,-59.3125
423,-0.6191406,-0.47460938,0.3203125,102.4375,33.28125,-60.15625
424,-1.0214844,-0.3623047,0.24804688,102.0,50.25,-58.25
425,-1.9130859,-0.33496094,0.2998047,68.75,54.03125,-50.15625
426,-0.5703125,0.13574219,0.2109375,30.21875,48.53125,-2.59375
427,-0.80371094,-0.12988281,-0.07324219,85.84375,-4.34375,8.21875
428,-1.296875,-0.42382812,-0.056640625,44.09375,49.9375,26.15625
429,-0.85253906,-0.3232422,0.140625,50.1875,43.46875,3.5625
430,-0.93359375,-0.31933594,0.10253906,20.03125,42.0,-10.59375
431,-1.0009766,-0.31054688,0.078125,3.375,42.65625,-4.0
432,-0.92285156,-0.42382812,0.052734375,17.65625,48.46875,4.46875
433,-0.8955078,-0.32226562,0.115234375,23.625,44.75,15.28125
434,-0.92089844,-0.33203125,0.045898438,24.6875,42.375,15.71875
435,-0.91308594,-0.32421875,0.06640625,25.53125,46.21875,15.03125
436,-0.8769531,-0.25878906,0.034179688,14.34375,34.1875,21.9375
437,-1.0048828,-0.26757812,0.10253906,3.8125,31.9375,32.5
438,-1.0058594,-0.26660156,0.125,-7.6875,23.0,30.25
439,-1.0117188,-0.30371094,0.07128906,-8.21875,15.3125,22.1875
440,-1.0263672,-0.28515625,0.06640625,-9.375,3.125,21.28125
441,-1.1621094,-0.3984375,0.107421875,-30.0,-14.28125,16.3125
442,-1.1064453,-0.54785156,0.040039062,-18.28125,-27.65625,8.28125
443,-1.1103516,-0.4033203,0.080078125,26.875,-30.6875,-14.6875
444,-0.95410156,-0.12695312,0.13867188,57.3125,-48.6875,-22.125
445,-0.98828125,0.08300781,0.13476562,56.53125,-90.15625,-32.875
446,-1.1943359,-0.1171875,0.18847656,1.78125,-108.21875,-43.125
447,-1.0166016,-0.27929688,0.28808594,1.1875,-61.9375,-38.90625
448,-0.890625,-0.3232422,0.2626953,46.46875,-32.03125,-42.625
449,-0.8701172,-0.37890625,0.33007812,49.03125,-12.03125,-46.0625
450,-0.8027344,-0.18652344,0.27929688,34.875,11.84375,-51.625
451,-0.7636719,-0.12402344,0.23632812,24.125,22.28125,-46.96875
452,-0.72265625,-0.20117188,0.19140625,12.78125,31.0625,-21.53125
453,-0.69433594,-0.15722656,0.22460938,9.90625,39.6875,-1.875
454,-0.7324219,-0.14160156,0.20898438,1.28125,26.90625,20.78125
455,-1.0087891,-0.33496094,0.5722656,12.28125,24.96875,30.40625
456,-1.0019531,-0.86035156,0.578125,6.96875,-22.875,-4.1875
457,-0.9472656,-0.5234375,0.3330078,-9.75,-18.0,-48.875
458,-0.70996094,-0.75,0.4873047,24.125,15.375,-29.8125
459,-0.4794922,-0.3544922,0.39648438,78.125,0.1875,-18.84375
460,-0.984375,-0.33496094,0.47070312,94.0625,29.1875,-19.375
461,-1.8925781,-0.125,0.22753906,9.09375,21.25,-24.09375
462,-0.7783203,-0.09472656,0.47265625,-7.25,22.40625,5.6875
463,-0.3857422,0.20507812,0.099609375,16.96875,-35.75,14.0625
464,-1.3535156,-0.6513672,-0.1171875,-49.59375,33.4375,-5.65625
465,-0.97753906,-0.36035156,0.14648438,20.8125,29.25,17.84375
466,-0.8496094,-0.17285156,0.12792969,9.0625,38.34375,7.15625
467,-1.0263672,-0.25097656,0.20019531,-34.40625,19.21875,0.5
468,-0.97265625,-0.3359375,0.080078125,-50.03125,23.125,7.90625
469,-0.87109375,-0.36621094,0.11230469,-35.1875,29.3125,16.875
470,-0.90234375,-0.390625,0.10058594,-30.625,32.59375,22.96875
471,-0.85839844,-0.37597656,0.11621094,-29.21875,36.0625,25.28125
472,-0.86621094,-0.4140625,0.10546875,-18.0625,35.03125,28.34375
473,-0.8730469,-0.3935547,0.08984375,-13.28125,36.875,33.21875
474,-0.94433594,-0.36132812,0.107421875,-9.25,39.0625,38.71875
475,-1.0302734,-0.30078125,0.099609375,-5.1875,24.1875,32.625
476,-1.0429688,-0.3466797,0.028320312,-10.0625,-0.65625,12.34375
477,-1.0800781,-0.3330078,0.1015625,-30.6875,-19.71875,14.1875
478,-1.1816406,-0.38476562,0.056640625,-32.46875,-23.96875,18.875
479,-1.1171875,-0.453125,0.030273438,-16.28125,-28.5,3.125
480,-1.0664062,-0.3095703,0.044921875,12.15625,-37.84375,-8.40625
481,-0.9482422,-0.11816406,0.115234375,41.28125,-53.65625,-19.375
482,-0.9482422,0.08105469,0.2265625,21.5625,-79.65625,-38.0
483,-1.0673828,-0.26464844,0.27441406,2.34375,-87.03125,-43.4375
484,-0.9482422,-0.30859375,0.24707031,25.71875,-55.125,-44.34375
485,-1.0029297,-0.2861328,0.21191406,74.28125,-32.90625,-33.65625
486,-1.0341797,-0.115234375,0.31445312,50.6875,-22.03125,-24.4375
487,-0.92578125,-0.0234375,0.34375,20.78125,-16.71875,-17.78125
488,-0.85058594,-0.12402344,0.26367188,1.84375,-16.0625,-2.0
489,-0.7246094,-0.09765625,0.2548828,4.46875,8.625,10.65625
490,-0.60839844,-0.14746094,0.23925781,2.21875,28.4375,21.9375
491,-0.6328125,-0.20410156,0.26953125,-9.625,37.53125,18.875
492,-0.85839844,-0.26367188,0.484375,-6.34375,34.0625,8.625
493,-1.1806641,-0.6074219,0.5859375,2.8125,12.6875,-7.40625
494,-0.93847656,-0.3515625,0.49804688,-23.25,1.78125,-26.71875
495,-0.7480469,-0.40234375,0.6171875,-5.71875,-18.96875,-19.25
496,-0.85546875,-0.26171875,0.46191406,33.34375,-21.0,-10.15625
497,-1.1201172,-0.20703125,0.40820312,28.40625,-6.96875,-4.0
498,-1.53125,-0.26660156,0.41210938,-12.875,5.0625,0.6875
499,-0.3935547,0.13476562,0.2734375,-25.0625,3.3125,-2.65625
500,-0.9160156,-0.42089844,0.07128906,-26.09375,-36.5625,-12.3125
501,-1.0830078,-0.46484375,0.06738281,-32.5625,46.03125,-4.75
502,-0.9003906,-0.4033203,-0.015625,12.96875,20.34375,2.28125
503,-0.89746094,-0.22265625,0.18457031,2.625,39.25,-1.8125
504,-1.0283203,-0.25390625,0.14453125,-35.25,31.0625,0.09375
505,-0.9472656,-0.34472656,0.10546875,-47.46875,36.0,14.90625
506,-0.8408203,-0.37695312,0.11621094,-34.53125,33.6875,25.90625
507,-0.86328125,-0.38867188,0.055664062,-17.9375,42.125,33.09375
508,-0.8486328,-0.37695312,0.09863281,-14.4375,46.625,33.90625
509,-0.8935547,-0.40234375,0.024414062,-7.75,49.9375,35.4375
510,-0.9404297,-0.375,0.07519531,-3.46875,49.0,36.90625
511,-1.0068359,-0.3076172,0.11816406,-10.59375,38.625,38.84375
512,-0.9716797,-0.34472656,-0.0068359375,-15.5,16.71875,29.4375
513,-1.0771484,-0.37402344,0.045898438,-13.34375,7.21875,20.15625
514,-1.2197266,-0.3388672,0.095703125,-30.5,-7.6875,16.1875
515,-1.1904297,-0.43359375,0.022460938,-17.1875,-24.21875,1.375
516,-1.1435547,-0.30664062,0.047851562,0.625,-41.5,-19.0625
517,-1.03125,-0.15820312,0.026367188,28.8125,-65.125,-34.40625
518,-0.9765625,0.13867188,0.16015625,33.03125,-90.34375,-52.09375
519,-1.2382812,-0.056640625,0.32226562,-21.46875,-115.40625,-55.875
520,-1.1181641,-0.29785156,0.32617188,-8.71875,-70.90625,-45.09375
521,-0.8828125,-0.29101562,0.13085938,25.09375,-64.09375,-30.5
522,-0.91503906,-0.23730469,0.25976562,20.03125,-37.09375,-20.59375
523,-0.8046875,0.0029296875,0.3046875,11.0,-12.4375,-6.5
524,-0.69433594,-0.15722656,0.26660156,-2.4375,-4.625,-1.125
525,-0.5673828,-0.13867188,0.17871094,-12.25,14.09375,6.9375
526,-0.5566406,-0.15820312,0.21582031,-11.75,42.78125,16.1875
527,-0.6269531,-0.19042969,0.24414062,-21.46875,47.1875,16.1875
528,-0.9824219,-0.42578125,0.60546875,1.84375,37.46875,-6.3125
529,-1.3544922,-0.80371094,0.40625,-18.84375,-15.3125,-25.71875
530,-0.9746094,-0.39453125,0.71875,4.84375,4.34375,-18.90625
531,-0.60546875,-0.26757812,0.46875,40.65625,-13.53125,2.84375
532,-0.9902344,-0.32910156,0.5283203,80.65625,-9.09375,5.875
533,-1.6679688,-0.12890625,0.17578125,-20.0,10.25,-13.71875
534,-0.8125,-0.013671875,0.3701172,-10.90625,36.625,-3.875
535,-0.42089844,0.055664062,-0.021484375,-14.5625,-7.6875,10.03125
536,-1.4414062,-0.7753906,-0.20800781,-33.25,1.84375,0.46875
537,-0.89941406,-0.16015625,0.23730469,8.6875,37.59375,9.84375
538,-0.8701172,-0.068359375,0.09375,-30.625,20.5625,3.5
539,-0.98339844,-0.23730469,0.09863281,-68.09375,13.25,5.46875
540,-0.9472656,-0.3408203,0.055664062,-64.75,8.78125,19.3125
541,-0.859375,-0.4453125,0.020507812,-46.96875,22.03125,12.46875
542,-0.8984375,-0.390625,0.0859375,-38.3125,37.96875,11.9375
543,-0.92578125,-0.375,0.09863281,-32.75,33.9375,16.375
544,-0.9511719,-0.3154297,0.09375,-26.90625,31.125,26.28125
545,-0.90234375,-0.25195312,0.1171875,-35.8125,25.46875,38.96875
546,-0.9765625,-0.43066406,0.01953125,-45.875,20.8125,40.0625
547,-1.0,-0.3017578,0.08496094,-36.0625,29.125,26.46875
548,-1.0625,-0.41210938,0.005859375,-34.03125,-1.21875,19.0625
549,-1.0986328,-0.45507812,0.16210938,-54.0,-16.34375,26.625
550,-1.1210938,-0.578125,0.1015625,-50.71875,-29.46875,27.3125
551,-1.0195312,-0.5449219,0.041015625,-24.28125,-38.15625,5.53125
552,-0.9892578,-0.33984375,-0.123046875,40.125,-48.46875,-29.75
553,-1.1015625,-0.022460938,0.13671875,99.0625,-61.59375,-52.21875
554,-1.3212891,0.06738281,0.26171875,15.875,-100.71875,-61.1875
555,-1.0019531,-0.19335938,0.15625,-16.46875,-70.90625,-58.375
556,-1.0175781,-0.29003906,0.20996094,30.84375,-50.96875,-39.15625
557,-1.0234375,-0.37304688,0.1953125,84.0,-29.71875,-29.03125
558,-0.9375,-0.061523438,0.21582031,32.3125,-21.0,-26.21875
559,-0.86035156,-0.078125,0.21777344,10.8125,-27.59375,-12.78125
560,-0.66015625,-0.091796875,0.18652344,7.46875,-15.0625,12.78125
561,-0.5800781,-0.15234375,0.24804688,11.625,12.46875,23.34375
562,-0.5498047,-0.21679688,0.26171875,10.8125,34.65625,16.625
563,-0.83984375,-0.4873047,0.43164062,16.0,38.28125,1.5625
564,-1.1845703,-0.78808594,0.5175781,14.65625,15.9375,-19.1875
565,-0.93359375,-0.3388672,0.5136719,13.1875,0.0,-34.09375
566,-0.79785156,-0.40429688,0.48339844,49.5625,12.53125,-4.125
567,-0.86816406,-0.31933594,0.5253906,70.8125,1.34375,1.1875
568,-1.1875,-0.13378906,0.44628906,36.40625,-6.46875,-4.0
569,-1.8447266,-0.2109375,0.24804688,-11.28125,27.78125,5.46875
570,-0.4189453,0.015625,0.15527344,-24.65625,29.90625,2.34375
571,-0.5527344,-0.041992188,-0.015625,-13.65625,-2.8125,3.0625
572,-1.3691406,-0.6201172,-0.056640625,-14.625,21.625,9.1875
573,-0.8623047,-0.080078125,0.18164062,9.0625,38.40625,5.28125
574,-0.8964844,-0.107421875,0.09082031,-10.25,17.03125,4.90625
575,-1.0078125,-0.19238281,0.119140625,-49.4375,10.0,0.5625
576,-0.953125,-0.3154297,0.0703125,-46.25,5.0,7.78125
577,-0.8808594,-0.36816406,0.0703125,-20.96875,24.71875,8.9375
578,-0.92285156,-0.31445312,0.12695312,-15.4375,36.625,6.1875
579,-0.94921875,-0.36523438,0.13867188,-16.71875,28.875,9.25
580,-0.9277344,-0.36523438,0.115234375,-8.34375,24.53125,9.1875
581,-0.9345703,-0.30273438,0.15527344,-1.3125,25.09375,15.59375
582,-0.9658203,-0.32421875,0.11328125,-5.53125,18.0625,16.6875
583,-0.9892578,-0.30859375,0.06738281,-14.4375,15.1875,12.96875
584,-1.0126953,-0.33691406,0.16699219,-23.90625,10.125,7.40625
585,-0.96191406,-0.3701172,0.14648438,-29.34375,3.1875,13.875
586,-1.015625,-0.53515625,0.09277344,-31.40625,-4.5,21.15625
587,-1.2265625,-0.57910156,0.0087890625,-6.40625,-16.78125,13.28125
588,-1.2597656,-0.59765625,0.0546875,53.65625,-10.375,-0.65625
589,-1.1318359,-0.37890625,-0.109375,91.8125,-32.21875,-0.71875
590,-0.9199219,-0.0126953125,0.061523438,115.3125,-52.25,-3.5625
591,-0.9902344,-0.13378906,0.14453125,77.09375,-85.4375,-24.75
592,-1.0019531,-0.22363281,0.02734375,49.09375,-69.28125,-44.84375
593,-0.984375,-0.28222656,0.18261719,62.21875,-19.28125,-45.8125
594,-0.890625,-0.4013672,0.21972656,76.6875,-20.25,-50.21875
595,-0.8408203,-0.22167969,0.13867188,90.90625,-3.84375,-52.78125
596,-0.86621094,-0.21289062,0.19335938,81.9375,10.5625,-53.625
597,-0.85546875,-0.30371094,0.14160156,70.21875,33.375,-53.6875
598,-0.85839844,-0.17382812,0.22167969,69.71875,48.21875,-46.84375
599,-0.8408203,-0.24316406,0.22949219,83.6875,34.375,-29.46875
600,-0.9433594,-0.36523438,0.30859375,84.625,22.9375,-20.1875
601,-0.88183594,-0.31445312,0.44433594,87.34375,25.9375,-26.03125
602,-0.7705078,-0.53222656,0.31054688,81.75,6.65625,-41.28125
603,-0.9003906,-0.5,0.2890625,75.40625,25.625,-52.9375
604,-0.8486328,-0.5361328,0.3623047,80.09375,43.59375,-60.40625
605,-0.6923828,-0.3671875,0.25878906,98.15625,44.75,-66.4375
606,-0.80371094,-0.2626953,0.12988281,73.9375,66.59375,-58.875
607,-1.6787109,-0.32617188,0.22558594,83.15625,54.875,-31.78125
608,-1.0644531,-0.29785156,0.0859375,52.3125,40.28125,11.125
609,-0.515625,-0.087890625,0.041015625,77.90625,15.875,6.75
610,-1.0898438,-0.5097656,0.005859375,78.375,23.5625,-10.84375
611,-1.0380859,-0.31347656,0.111328125,86.0625,75.4375,2.09375
612,-0.8623047,-0.24511719,0.13574219,105.78125,31.25,7.09375
613,-0.9375,-0.36816406,0.140625,82.28125,30.15625,0.09375
614,-0.9589844,-0.45410156,0.14941406,70.15625,46.21875,-13.03125
615,-0.8808594,-0.453125,0.119140625,86.375,55.1875,-8.15625
616,-0.88378906,-0.35546875,0.099609375,100.34375,54.375,-2.40625
617,-0.9638672,-0.29003906,0.123046875,91.5,52.1875,3.25
618,-0.93066406,-0.40722656,0.09277344,83.9375,41.25,-0.9375
619,-0.9169922,-0.3876953,0.01953125,84.375,46.5625,-2.34375
620,-0.88378906,-0.41015625,-0.03125,83.8125,47.90625,2.21875
621,-0.96484375,-0.3076172,-0.09082031,85.53125,54.375,7.34375
622,-1.0566406,-0.22265625,0.060546875,88.15625,49.0625,11.9375
623,-1.0986328,-0.18164062,0.16308594,72.84375,21.5,12.21875
624,-0.9873047,-0.234375,0.053710938,56.96875,-7.4375,4.53125
625,-0.9169922,-0.33984375,-0.018554688,40.40625,-20.03125,-3.03125
626,-0.93847656,-0.3798828,-0.10839844,43.71875,-36.0,-5.40625
627,-1.3603516,-0.28710938,0.20605469,69.0,-4.75,-22.9375
628,-1.0976562,-0.18164062,0.07519531,78.1875,-46.3125,-31.21875
629,-1.0097656,-0.048828125,0.1875,79.0625,-73.46875,-38.375
630,-1.0244141,-0.16992188,0.31835938,62.40625,-77.6875,-38.84375
631,-0.9326172,-0.14648438,0.24414062,46.59375,-43.15625,-53.5
632,-0.92871094,-0.25976562,0.09277344,54.09375,-13.25,-60.40625
633,-0.9785156,-0.25976562,0.328125,44.75,3.84375,-67.46875
634,-0.93066406,-0.31445312,0.2705078,13.4375,26.8125,-69.4375
635,-0.81347656,-0.22363281,0.25976562,39.03125,42.4375,-55.09375
636,-0.7734375,-0.22265625,0.25195312,55.75,22.78125,-23.59375
637,-0.796875,-0.1953125,0.21386719,37.4375,22.40625,-6.03125
638,-0.75,-0.13964844,0.27734375,31.5,27.78125,12.59375
639,-0.7548828,-0.38378906,0.40722656,26.0625,19.21875,25.71875
640,-0.78125,-0.515625,0.5625,26.25,12.9375,-7.65625
641,-1.0039062,-0.69921875,0.25390625,28.03125,-7.5625,-49.46875
642,-0.84375,-0.4580078,0.46484375,21.6875,34.78125,-50.4375
643,-0.68652344,-0.32910156,0.453125,40.71875,6.96875,-37.8125
644,-2.0,-0.6777344,0.51660156,63.625,1.78125,-26.71875
645,-0.4296875,0.13964844,0.1328125,-6.40625,41.625,-4.125
646,-0.15234375,-0.20214844,0.046875,76.375,-38.8125,15.15625
647,-1.6289062,-0.76660156,-0.1640625,49.21875,33.15625,-37.9375
648,-1.0429688,-0.18652344,0.25585938,27.34375,51.03125,-10.40625
649,-0.91308594,-0.14550781,0.06933594,7.21875,33.4375,1.4375
650,-0.9511719,-0.35058594,0.15234375,-12.4375,27.71875,4.78125
651,-0.88378906,-0.36816406,0.08496094,-9.125,45.84375,12.59375
652,-0.8701172,-0.5048828,0.16308594,1.1875,47.5,22.59375
653,-0.8125,-0.40039062,0.12988281,8.8125,40.09375,24.4375
654,-0.8613281,-0.41210938,0.16015625,9.84375,37.125,32.125
655,-0.83691406,-0.390625,0.11425781,4.21875,39.0,31.875
656,-0.8798828,-0.30273438,0.1171875,0.3125,35.40625,31.8125
657,-0.9658203,-0.28222656,0.095703125,-5.125,29.84375,28.84375
658,-0.8955078,-0.27441406,0.07421875,0.375,25.21875,23.59375
659,-1.1318359,-0.3828125,0.1875,-22.3125,-1.53125,25.1875
660,-1.1669922,-0.53027344,0.016601562,-25.8125,-31.90625,12.84375
661,-1.140625,-0.4892578,0.047851562,34.375,-39.125,-32.875
662,-1.1181641,0.005859375,0.26367188,66.375,-71.34375,-59.0625
663,-1.1894531,-0.04296875,0.25976562,10.5625,-115.53125,-55.28125
664,-1.1660156,-0.53125,0.20996094,-16.03125,-89.34375,-45.1875
665,-1.0449219,-0.3564453,0.32128906,34.0,-42.34375,-45.03125
666,-0.9404297,-0.3564453,0.25,77.71875,-27.59375,-31.03125
667,-0.83984375,-0.15429688,0.19433594,39.125,5.8125,-34.46875
668,-0.7089844,-0.06933594,0.23925781,26.03125,7.5625,-23.21875
669,-0.6191406,-0.07421875,0.15136719,15.9375,12.8125,-5.46875
670,-0.5234375,-0.14453125,0.17089844,10.09375,40.15625,9.25
671,-0.59375,-0.16796875,0.23144531,1.78125,43.78125,17.3125
672,-0.9326172,-0.5107422,0.51953125,-0.09375,26.375,5.875
673,-1.3759766,-0.8183594,0.62402344,8.875,0.125,-5.28125
674,-0.96875,-0.28808594,0.55859375,5.09375,-16.84375,-29.75
675,-0.6816406,-0.46191406,0.39941406,29.1875,7.9375,-15.59375
676,-1.0019531,-0.390625,0.5234375,37.625,-5.3125,-19.75
677,-1.5957031,-0.044921875,0.051757812,8.25,3.46875,-3.4375
678,-0.65625,-0.20605469,0.20996094,-8.40625,-2.9375,-8.46875
679,-0.64453125,-0.26757812,-0.2265625,14.65625,-19.21875,-15.125
680,-1.3105469,-0.3623047,0.15917969,13.625,52.6875,0.15625
681,-0.9433594,-0.15332031,0.13671875,-15.3125,23.4375,-1.8125
682,-0.90527344,-0.18945312,0.119140625,-52.65625,19.53125,-1.1875
683,-0.92578125,-0.40234375,0.051757812,-56.4375,22.21875,8.6875
684,-0.8671875,-0.5019531,0.15039062,-30.6875,30.09375,20.84375
685,-0.83984375,-0.45996094,0.15039062,-18.71875,31.875,19.9375
686,-0.87597656,-0.44433594,0.11621094,-11.65625,34.4375,20.71875
687,-0.89160156,-0.36328125,0.11621094,-8.15625,34.90625,24.6875
688,-0.90722656,-0.3095703,0.15039062,-15.1875,29.4375,31.59375
689,-1.0039062,-0.41015625,0.099609375,-19.6875,14.40625,26.03125
690,-0.9707031,-0.359375,0.099609375,-17.75,5.375,8.15625
691,-0.9296875,-0.3251953,0.16699219,-30.25,-12.15625,-2.59375
692,-0.8857422,-0.3720703,0.059570312,-39.21875,-13.3125,7.90625
693,-0.9892578,-0.4453125,0.09277344,-41.96875,-7.75,20.65625
694,-1.0751953,-0.56152344,0.051757812,-33.96875,-6.46875,21.4375
695,-1.15625,-0.5175781,0.047851562,0.6875,-9.75,-2.90625
696,-1.0537109,-0.30078125,0.16113281,24.4375,-25.8125,-17.96875
697,-0.9423828,-0.08984375,0.15039062,37.25,-76.21875,-24.4375
698,-1.0927734,-0.040039062,0.2685547,8.1875,-97.84375,-37.375
699,-1.2900391,-0.33496094,0.29882812,11.78125,-79.65625,-22.3125
700,-0.9472656,-0.36816406,0.21972656,28.34375,-44.5,-8.65625
701,-0.90527344,-0.33984375,0.24902344,42.1875,-35.8125,-15.15625
702,-0.8486328,-0.09277344,0.28320312,31.15625,-19.40625,-8.28125
703,-0.7050781,-0.0009765625,0.26953125,15.625,-12.9375,5.28125
704,-0.75,-0.1328125,0.25097656,-0.03125,-7.625,16.4375
705,-0.65722656,-0.12207031,0.2998047,-12.6875,14.28125,25.1875
706,-0.6044922,-0.19042969,0.3046875,-26.90625,37.125,22.0625
707,-0.6376953,-0.26464844,0.3486328,-28.84375,44.6875,25.46875
708,-1.0507812,-0.61035156,0.68847656,21.5,33.5625,6.6875
709,-1.2607422,-0.5126953,0.58691406,-2.78125,-9.09375,-19.25
710,-0.7402344,-0.33496094,0.49902344,18.4375,8.25,-17.1875
711,-0.79003906,-0.32421875,0.42773438,49.625,-13.59375,-13.84375
712,-1.2373047,-0.12011719,0.24023438,51.71875,0.90625,-16.28125
713,-1.7578125,0.022460938,0.3388672,13.375,9.34375,5.21875
714,-0.6328125,0.103515625,-0.12402344,-36.59375,3.0625,-2.34375
715,-0.84277344,-0.28710938,-0.0546875,-49.0,-4.4375,0.625
716,-1.1396484,-0.36523438,0.07324219,-37.34375,41.4375,11.0625
717,-0.88671875,-0.1796875,0.17382812,-35.9375,30.15625,-1.375
718,-0.90527344,-0.296875,0.1015625,-68.40625,8.5,0.5625
719,-0.9189453,-0.4482422,0.12109375,-58.875,3.1875,7.71875
720,-0.88183594,-0.4609375,0.11425781,-35.3125,14.65625,2.09375
721,-0.8544922,-0.41601562,0.16796875,-19.53125,28.5,4.0
722,-0.9013672,-0.39453125,0.15136719,-14.4375,27.65625,12.1875
723,-0.88964844,-0.36132812,0.14941406,-6.875,23.9375,22.0
724,-0.8964844,-0.35742188,0.22167969,-10.53125,21.90625,28.21875
725,-0.8730469,-0.4501953,0.15332031,-19.15625,20.5625,29.875
726,-0.92089844,-0.41796875,0.056640625,-12.25,29.0625,26.21875
727,-1.0351562,-0.26757812,0.026367188,-15.25,12.03125,14.90625
728,-0.9501953,-0.3359375,0.06738281,-18.96875,1.46875,10.9375
729,-1.1435547,-0.43554688,0.13574219,-42.46875,-21.46875,13.46875
730,-1.1523438,-0.64453125,0.028320312,-20.25,-30.6875,4.84375
731,-1.1542969,-0.41796875,0.06640625,45.4375,-27.71875,-22.5625
732,-0.9765625,-0.123046875,0.107421875,75.6875,-62.75,-28.65625
733,-1.1015625,-0.013671875,0.26367188,21.8125,-93.3125,-37.8125
734,-1.2070312,-0.43554688,0.19726562,11.4375,-77.6875,-36.21875
735,-1.0009766,-0.2421875,0.22851562,31.8125,-43.5625,-23.09375
736,-0.8798828,-0.42773438,0.25878906,59.875,-32.28125,-27.0
737,-0.87597656,-0.19140625,0.24707031,38.96875,-10.3125,-39.21875
738,-0.7792969,-0.0048828125,0.21484375,29.25,0.6875,-32.375
739,-0.73046875,-0.14648438,0.16796875,11.375,4.75,-11.4375
740,-0.5810547,-0.07910156,0.2109375,-6.09375,17.9375,2.09375
741,-0.56347656,-0.11035156,0.22167969,-5.59375,28.25,11.375
742,-0.6152344,-0.2626953,0.24316406,-21.28125,36.3125,23.65625
743,-1.0,-0.6777344,0.7138672,-14.4375,36.3125,-11.15625
744,-1.4121094,-0.82128906,0.5576172,-24.34375,-35.9375,-39.90625
745,-0.82421875,-0.78222656,0.6875,4.84375,15.25,-26.21875
746,-0.33398438,-0.42382812,0.32910156,79.78125,-31.25,-9.375
747,-1.0996094,-0.50683594,0.4267578,115.5625,30.34375,-11.9375
748,-1.7773438,0.025390625,0.30566406,10.75,33.5625,-13.59375
749,-0.6269531,0.11035156,0.23535156,-5.71875,24.0625,-11.75
750,-0.60253906,-0.13867188,-0.10058594,25.28125,-25.375,1.0
751,-1.2753906,-0.40527344,0.01171875,1.46875,39.625,15.96875
752,-0.95214844,-0.3017578,0.15722656,22.71875,27.40625,10.53125
753,-0.8720703,-0.16699219,0.13671875,-23.0625,41.03125,-4.96875
754,-0.9785156,-0.32714844,0.107421875,-41.6875,31.4375,6.5
755,-0.8847656,-0.37109375,0.06542969,-24.53125,36.1875,19.75
756,-0.828125,-0.3623047,0.09667969,-16.03125,40.96875,20.59375
757,-0.89941406,-0.38378906,0.14941406,-10.46875,42.25,24.5625
758,-0.89746094,-0.36816406,0.10644531,-10.71875,37.84375,24.0625
759,-0.87890625,-0.3857422,0.16210938,-13.09375,35.46875,33.15625
