sample_no,accel_x,accel_y,accel_z,gyro_x,gyro_y,gyro_z
0,-0.09399414,-0.99176025,0.086120605,-0.28125,1.375,1.328125
1,-0.09765625,-0.99591064,0.097351074,0.265625,0.515625,0.828125
2,-0.1105957,-0.9902954,0.07366943,-0.109375,-0.03125,0.453125
3,-0.0847168,-0.9849243,0.089538574,-1.4375,0.765625,0.203125
4,-0.09765625,-0.99591064,0.10101318,0.125,1.15625,0.90625
5,-0.1015625,-0.98028564,0.093933105,-0.734375,0.671875,0.34375
6,-0.10888672,-0.9956665,0.09295654,-1.171875,0.375,0.234375
7,-0.08300781,-0.989563,0.10076904,0.78125,1.171875,0.75
8,-0.1105957,-0.9968872,0.09661865,0.1875,-0.25,0.9375
9,-0.099121094,-0.9812622,0.074645996,-0.046875,1.34375,1.359375
10,-0.08276367,-0.9993286,0.105163574,0.53125,1.40625,2.015625
11,-0.096191406,-0.9817505,0.08026123,0.8125,2.125,1.34375
12,-0.075927734,-0.99835205,0.073913574,0.59375,0.21875,1.25
13,-0.09814453,-0.9902954,0.097595215,0.359375,-0.203125,0.921875
14,-0.095703125,-0.9937134,0.09051514,-0.328125,-0.78125,0.90625
15,-0.1003418,-0.9807739,0.08538818,-1.328125,0.328125,0.6875
16,-0.08520508,-0.9949341,0.09613037,-0.25,0.71875,0.359375
17,-0.0859375,-0.9949341,0.085876465,0.25,-0.515625,0.96875
18,-0.10253906,-0.98443604,0.0848999,-1.140625,0.0625,0.921875
19,-0.07763672,-0.9819946,0.07659912,-0.671875,0.9375,0.984375
20,-0.080322266,-0.9949341,0.09906006,-0.53125,0.328125,1.3125
21,-0.099365234,-0.9939575,0.09197998,0.28125,0.578125,0.140625
22,-0.080078125,-0.9920044,0.093688965,1.484375,1.21875,-0.28125
23,-0.0949707,-1.0183716,0.12371826,3.875,0.59375,-1.203125
24,-0.09399414,-0.991272,0.070495605,4.984375,6.53125,-1.90625
25,-0.09814453,-1.0073853,0.04168701,3.6875,4.890625,0.078125
26,-0.07128906,-0.9998169,0.05291748,2.640625,2.765625,-0.65625
27,-0.092285156,-0.98931885,0.046813965,-1.03125,-2.6875,-1.28125
28,-0.119140625,-0.95196533,0.022644043,-0.25,-0.6875,-1.125
29,-0.09472656,-0.9993286,0.06756592,1.34375,3.9375,1.796875
30,-0.08544922,-0.9746704,0.04168701,0.390625,-0.828125,1.578125
31,-0.080566406,-0.9768677,0.028259277,-0.671875,-0.25,1.453125
32,-0.07861328,-0.989563,0.05633545,2.09375,-2.359375,1.078125
33,-0.09399414,-1.0064087,0.06512451,0.703125,-2.59375,0.828125
34,-0.09350586,-0.9915161,0.0602417,-1.28125,-4.546875,0.0625
35,-0.10473633,-0.99224854,0.07269287,-2.5,-3.609375,-0.09375
36,-0.09399414,-0.9961548,0.06951904,-2.515625,-1.203125,1.015625
37,-0.095214844,-0.9834595,0.04827881,-2.515625,-0.609375,0.5
38,-0.091308594,-1.0027466,0.058044434,-2.0625,-0.21875,0.203125
39,-0.09106445,-0.9873657,0.05609131,-2.125,-0.78125,-0.046875
40,-0.09375,-0.98565674,0.062438965,-1.40625,-1.078125,-0.609375
41,-0.09887695,-0.99176025,0.08880615,-1.53125,-2.640625,-0.578125
42,-0.11694336,-1.00177,0.09173584,-1.9375,-1.453125,1.0
43,-0.111816406,-0.99468994,0.08001709,-2.234375,-0.828125,-0.203125
44,-0.084472656,-0.9846802,0.054870605,-1.28125,1.375,0.234375
45,-0.091308594,-0.9885864,0.070495605,-1.125,-0.4375,0.46875
46,-0.10961914,-0.9920044,0.07366943,-1.078125,-0.84375,-1.125
47,-0.087646484,-1.0100708,0.07122803,-2.609375,-3.15625,0.03125
48,-0.13110352,-0.98394775,0.09075928,-2.03125,-2.078125,0.15625
49,-0.11791992,-0.99346924,0.085632324,-0.6875,0.65625,0.0
50,-0.08544922,-0.9807739,0.08343506,0.234375,1.625,1.390625
51,-0.12060547,-0.9927368,0.0914917,1.171875,0.546875,0.5
52,-0.107177734,-0.9805298,0.06732178,0.53125,1.6875,0.53125
53,-0.09643555,-0.9800415,0.07269287,0.046875,1.5,0.03125
54,-0.09887695,-1.0037231,0.08758545,0.234375,1.328125,0.65625
55,-0.100097656,-0.98150635,0.06951904,-0.546875,1.21875,0.03125
56,-0.09033203,-0.9993286,0.07952881,0.484375,2.265625,0.296875
57,-0.09106445,-0.986145,0.0770874,0.265625,1.125,0.96875
58,-0.107421875,-0.99298096,0.070739746,0.40625,0.125,-0.21875
59,-0.091796875,-0.99468994,0.074157715,-1.078125,-0.921875,0.453125
60,-0.11376953,-0.9902954,0.08050537,-0.921875,-0.390625,0.53125
61,-0.09790039,-0.9907837,0.06756592,-1.03125,-0.078125,0.796875
62,-0.09399414,-0.9873657,0.08782959,-1.59375,-0.875,0.0
63,-0.10620117,-0.9968872,0.08343506,-2.078125,-0.96875,0.109375
64,-0.103515625,-0.9841919,0.08709717,-1.59375,-0.9375,-0.59375
65,-0.09887695,-0.99420166,0.074645996,-1.90625,0.375,0.265625
66,-0.11621094,-0.98883057,0.097351074,-0.96875,0.890625,0.296875
67,-0.10229492,-0.99224854,0.08050537,-1.53125,2.03125,0.46875
68,-0.10205078,-0.9873657,0.08074951,-0.765625,1.125,0.453125
69,-0.0871582,-0.9846802,0.08685303,0.3125,0.890625,0.78125
70,-0.11352539,-0.9902954,0.07928467,-0.828125,-0.734375,0.328125
71,-0.09887695,-1.0046997,0.09222412,-0.25,1.4375,0.796875
72,-0.095947266,-0.9854126,0.085876465,-0.375,0.703125,0.875
73,-0.09814453,-0.98516846,0.074645996,-0.421875,1.609375,1.65625
74,-0.08984375,-0.98760986,0.086364746,0.296875,-0.015625,0.546875
75,-0.099365234,-0.99786377,0.090270996,-0.125,0.34375,0.96875
76,-0.103515625,-0.98760986,0.081970215,-0.984375,-0.265625,0.0625
77,-0.106933594,-1.0012817,0.09246826,-1.21875,0.4375,0.484375
78,-0.10498047,-0.9817505,0.10345459,-1.390625,-0.046875,0.3125
79,-0.109375,-0.9993286,0.085632324,-0.34375,1.34375,0.859375
80,-0.09472656,-0.99102783,0.094177246,-1.03125,-0.890625,0.171875
81,-0.08984375,-0.98883057,0.1005249,0.71875,0.359375,1.09375
82,-0.110839844,-0.9829712,0.08856201,-1.1875,-0.8125,0.5625
83,-0.09814453,-0.987854,0.0927124,-0.40625,0.953125,0.78125
84,-0.095947266,-0.98883057,0.09124756,0.296875,1.328125,1.40625
85,-0.10620117,-0.99298096,0.097595215,0.125,0.078125,0.390625
86,-0.09423828,-0.98687744,0.08465576,-0.671875,-0.546875,0.875
87,-0.095458984,-0.9837036,0.09051514,0.140625,1.4375,0.5625
88,-0.1027832,-0.99957275,0.09442139,-0.65625,0.71875,0.921875
89,-0.095947266,-0.9846802,0.07733154,0.015625,0.609375,0.78125
90,-0.08105469,-0.98638916,0.082458496,-0.90625,0.8125,0.671875
91,-0.09106445,-0.9949341,0.097839355,-0.171875,0.921875,0.8125
92,-0.09765625,-0.9885864,0.08880615,0.046875,0.1875,0.421875
93,-0.10473633,-1.0007935,0.08441162,-1.203125,0.40625,0.71875
94,-0.079833984,-0.99420166,0.093444824,0.71875,1.640625,1.171875
95,-0.1015625,-0.98883057,0.090270996,-1.421875,-1.453125,0.203125
96,-0.09301758,-0.99176025,0.09613037,-0.921875,-0.09375,0.203125
97,-0.11254883,-0.99346924,0.08856201,-0.28125,0.265625,0.328125
98,-0.09838867,-0.9927368,0.09051514,-0.21875,0.9375,0.78125
99,-0.095214844,-0.9956665,0.08807373,0.484375,1.65625,1.140625
100,-0.08154297,-0.97857666,0.07977295,-1.421875,1.390625,1.734375
101,-0.08251953,-1.0083618,0.09588623,-0.703125,0.3125,1.03125
102,-0.09106445,-0.9729614,0.08148193,-2.46875,0.34375,0.34375
103,-0.087890625,-0.99102783,0.10101318,-0.015625,0.125,-0.1875
104,-0.09448242,-0.9973755,0.109802246,1.90625,1.296875,0.875
105,-0.095947266,-0.9924927,0.074401855,-0.25,1.15625,0.515625
106,-0.08105469,-0.986145,0.11077881,-1.234375,2.6875,1.171875
107,-0.08154297,-0.9907837,0.07928467,1.171875,0.609375,2.265625
108,-0.10083008,-0.9834595,0.078552246,0.453125,1.109375,0.6875
109,-0.06323242,-0.9976196,0.09466553,0.640625,0.9375,0.96875
110,-0.08642578,-0.9920044,0.08660889,-0.75,0.0625,1.21875
111,-0.08154297,-0.991272,0.1071167,-0.84375,-0.140625,0.671875
112,-0.083984375,-0.9885864,0.08148193,-0.609375,0.140625,0.96875
113,-0.07397461,-0.989563,0.09637451,-0.25,0.4375,1.625
114,-0.08154297,-0.99346924,0.085876465,-0.59375,-0.53125,0.671875
115,-0.072021484,-0.99053955,0.08905029,-0.703125,-0.4375,0.46875
116,-0.080078125,-0.98760986,0.09954834,-0.09375,0.203125,0.1875
117,-0.05810547,-0.99005127,0.116882324,3.28125,5.15625,-1.21875
118,-0.061767578,-1.010315,0.086120605,3.484375,8.015625,-1.34375
119,-0.12207031,-1.0293579,0.08538818,-0.09375,4.9375,0.328125
120,-0.08666992,-0.97979736,0.055847168,0.21875,1.03125,-1.484375
121,-0.08984375,-0.9607544,0.059020996,-2.546875,1.296875,-0.3125
122,-0.09643555,-1.0071411,0.093444824,2.484375,-1.984375,0.21875
123,-0.087646484,-0.9768677,0.059020996,1.890625,-3.109375,-0.328125
124,-0.08544922,-0.97540283,0.05999756,3.234375,-3.40625,0.734375
125,-0.0769043,-0.9788208,0.06707764,1.9375,-1.8125,-0.109375
126,-0.08569336,-0.9944458,0.057800293,-2.6875,-3.109375,1.609375
127,-0.08959961,-0.9841919,0.07977295,-1.265625,-3.65625,-0.359375
128,-0.09106445,-1.0020142,0.08001709,-0.84375,-0.828125,0.375
129,-0.08911133,-0.9871216,0.05682373,-1.03125,-0.828125,0.375
130,-0.111328125,-0.99835205,0.09051514,0.234375,0.4375,0.484375
131,-0.07373047,-0.99176025,0.06585693,-1.75,-0.5,0.96875
132,-0.08251953,-0.99298096,0.06781006,-1.875,-2.046875,0.171875
133,-0.083984375,-0.9890747,0.066833496,0.34375,-0.546875,0.703125
134,-0.09423828,-0.9939575,0.06439209,-0.28125,-1.6875,1.296875
135,-0.087890625,-0.99298096,0.07171631,-0.65625,-1.125,0.546875
136,-0.07788086,-0.99298096,0.0692749,-0.484375,-0.875,0.515625
137,-0.084472656,-0.99468994,0.081726074,-0.6875,-0.296875,0.5
138,-0.10107422,-0.9871216,0.06854248,-0.765625,-1.1875,0.375
139,-0.0859375,-0.98443604,0.070495605,-0.375,0.578125,0.625
140,-0.09301758,-1.0027466,0.07659912,0.03125,0.46875,0.6875
141,-0.08691406,-0.9902954,0.06854248,0.53125,0.046875,0.5
142,-0.08911133,-0.99102783,0.059509277,-0.34375,0.59375,0.484375
143,-0.08666992,-0.9976196,0.08074951,0.8125,2.046875,0.25
144,-0.09350586,-0.9981079,0.07171631,-0.5,0.84375,0.828125
145,-0.107666016,-0.9859009,0.06903076,-1.28125,0.671875,-0.390625
146,-0.07495117,-0.9932251,0.06488037,0.578125,0.515625,-0.125
147,-0.092041016,-0.9841919,0.070495605,0.0625,0.296875,0.328125
148,-0.091552734,-0.9854126,0.07757568,0.03125,-0.140625,0.015625
149,-0.10620117,-0.98687744,0.06317139,-0.84375,0.5625,0.296875
150,-0.068847656,-0.99468994,0.058288574,-0.640625,1.703125,0.46875
151,-0.0847168,-0.9932251,0.07098389,0.640625,0.25,0.203125
152,-0.095703125,-0.9927368,0.0680542,-1.765625,-0.484375,-0.25
153,-0.084228516,-0.99005127,0.07342529,-1.203125,-0.484375,0.0
154,-0.099853516,-0.99468994,0.078552246,-1.046875,-0.796875,-0.359375
155,-0.091308594,-0.99053955,0.043640137,-1.859375,-0.28125,-0.40625
156,-0.076660156,-0.9998169,0.085632324,-0.359375,0.109375,0.3125
157,-0.09643555,-0.986145,0.053649902,-2.0,-0.8125,-0.15625
158,-0.099121094,-0.99176025,0.074157715,-1.546875,-0.671875,-0.46875
159,-0.083984375,-0.99884033,0.08270264,-1.140625,0.34375,0.6875
160,-0.10205078,-0.98443604,0.07977295,-0.890625,-0.890625,0.09375
161,-0.08959961,-0.99786377,0.07952881,-1.3125,-0.5625,0.921875
162,-0.09033203,-0.9854126,0.08465576,-1.375,-0.375,0.65625
163,-0.092285156,-0.99053955,0.081726074,-0.953125,0.0625,0.84375
164,-0.08251953,-0.9854126,0.07562256,-0.0625,0.078125,0.390625
165,-0.0847168,-0.986145,0.08343506,0.265625,0.171875,0.6875
166,-0.0925293,-0.99420166,0.08294678,0.59375,-0.09375,0.59375
167,-0.0871582,-0.99468994,0.07513428,0.625,-0.046875,0.9375
168,-0.095703125,-0.9883423,0.07220459,-0.296875,-0.125,0.6875
169,-0.08911133,-0.9963989,0.090270996,0.21875,1.34375,1.328125
170,-0.0925293,-0.9961548,0.066833496,0.40625,0.640625,1.375
171,-0.095703125,-0.9915161,0.08660889,-0.28125,0.25,1.0
172,-0.08642578,-0.9976196,0.08441162,1.84375,0.828125,0.96875
173,-0.079833984,-0.99786377,0.058776855,0.109375,-0.484375,1.328125
174,-0.10449219,-0.989563,0.089538574,0.453125,-0.53125,0.171875
175,-0.08325195,-1.0115356,0.070007324,-0.125,-1.234375,1.171875
176,-0.08251953,-0.9783325,0.06512451,-1.546875,-0.3125,1.375
177,-0.09008789,-0.97857666,0.07293701,-0.609375,0.953125,1.859375
178,-0.08642578,-1.0015259,0.07269287,0.0,0.875,1.921875
179,-0.07861328,-0.9837036,0.0770874,0.234375,2.03125,0.953125
180,-0.08325195,-0.9915161,0.08294678,0.703125,1.0625,0.65625
181,-0.079589844,-0.99591064,0.07171631,-0.59375,0.4375,0.8125
182,-0.08642578,-0.9817505,0.073913574,-1.1875,0.28125,0.484375
183,-0.087402344,-0.98809814,0.06439209,-1.03125,0.59375,-0.421875
184,-0.07080078,-0.9920044,0.07659912,-0.6875,0.625,0.640625
185,-0.08276367,-0.98516846,0.07098389,-0.53125,1.375,0.09375
186,-0.07788086,-0.9841919,0.059753418,-0.65625,2.5625,0.390625
187,-0.068603516,-0.9990845,0.08831787,-0.46875,1.671875,1.546875
188,-0.075683594,-0.99664307,0.07952881,-0.703125,-0.1875,-0.015625
189,-0.0637207,-0.9859009,0.07611084,-0.890625,0.0625,0.890625
190,-0.08129883,-0.9898071,0.08123779,0.359375,-0.125,0.21875
191,-0.07910156,-0.99102783,0.07293701,0.28125,0.296875,1.015625
192,-0.06738281,-0.9956665,0.078552246,0.5625,0.171875,0.984375
193,-0.068603516,-0.9939575,0.06732178,-0.5,0.921875,0.5625
194,-0.0637207,-0.99176025,0.0692749,-0.921875,-0.09375,0.90625
195,-0.076171875,-0.98638916,0.07366943,-2.578125,-1.296875,-0.4375
196,-0.072753906,-0.9981079,0.07635498,-3.59375,-0.59375,-1.96875
197,-0.07080078,-0.9873657,0.08734131,-1.921875,0.4375,-0.453125
198,-0.1027832,-0.98150635,0.07904053,-1.015625,-0.171875,-0.4375
199,-0.06542969,-1.0010376,0.08782959,0.03125,0.734375,0.421875
200,-0.09472656,-0.9795532,0.08050537,-0.9375,-0.75,0.21875
201,-0.08129883,-1.0005493,0.08441162,0.515625,1.703125,1.140625
202,-0.080566406,-0.98931885,0.08343506,-0.1875,-0.4375,1.03125
203,-0.07519531,-0.9902954,0.07977295,-1.96875,0.65625,0.53125
204,-0.0690918,-0.9907837,0.08734131,-4.734375,0.90625,-0.34375
205,-0.07739258,-0.98272705,0.10296631,-3.4375,-1.328125,-1.96875
206,-0.09350586,-0.98565674,0.09124756,-0.859375,-1.296875,-2.015625
207,-0.10668945,-0.9961548,0.10687256,0.6875,-0.15625,-1.015625
208,-0.10571289,-0.9939575,0.0993042,-0.375,-0.78125,-0.28125
209,-0.08544922,-0.9920044,0.10784912,0.3125,-0.875,0.3125
210,-0.096191406,-0.9961548,0.13031006,3.515625,-1.78125,-0.234375
211,-0.087646484,-1.0308228,0.08392334,4.5,-0.671875,-0.796875
212,-0.080322266,-0.96221924,0.046081543,-0.171875,3.21875,3.15625
213,-0.068603516,-1.0042114,0.062194824,0.515625,-0.0625,1.875
214,-0.11376953,-0.99420166,0.09613037,4.453125,0.4375,0.359375
215,-0.07299805,-0.9729614,0.019958496,-3.796875,-1.78125,-0.296875
216,-0.118652344,-0.987854,0.10467529,-2.90625,-4.0,-2.765625
217,-0.109375,-1.0010376,0.07977295,1.125,-1.921875,-2.25
218,-0.07299805,-0.9668579,0.07196045,-1.984375,-0.0625,0.359375
219,-0.115478516,-0.99786377,0.078063965,0.046875,-1.59375,0.09375
220,-0.091796875,-0.9961548,0.09490967,-0.546875,-1.265625,0.421875
221,-0.10473633,-0.9898071,0.09490967,1.390625,-0.046875,0.015625
222,-0.09765625,-0.99835205,0.07952881,1.640625,1.34375,0.640625
223,-0.080078125,-0.9890747,0.06829834,1.03125,0.65625,1.203125
224,-0.111572266,-0.9932251,0.06707764,-0.484375,-0.65625,0.875
225,-0.10449219,-0.98760986,0.08026123,-0.921875,-0.25,0.203125
226,-0.09790039,-0.98931885,0.07342529,-1.0,0.453125,0.078125
227,-0.109375,-0.99884033,0.0758667,-0.96875,0.484375,0.34375
228,-0.106933594,-0.987854,0.07293701,-1.203125,-0.234375,-0.546875
229,-0.09008789,-1.0027466,0.07659912,-0.640625,0.640625,0.96875
230,-0.099853516,-0.98565674,0.08392334,-0.875,-0.53125,-0.078125
231,-0.091552734,-0.9973755,0.08660889,-0.359375,0.6875,0.453125
232,-0.08496094,-0.9898071,0.078063965,-0.609375,-0.578125,1.203125
233,-0.11279297,-0.9920044,0.07513428,-0.84375,-0.34375,0.625
234,-0.091308594,-0.9993286,0.08343506,-0.8125,-0.046875,0.546875
235,-0.083496094,-0.9854126,0.08343506,-2.015625,-1.375,0.375
236,-0.11328125,-0.9883423,0.08416748,-1.671875,-0.453125,0.0
237,-0.09399414,-0.9993286,0.08392334,-1.296875,0.1875,-0.125
238,-0.0949707,-0.9890747,0.08319092,-1.09375,-0.390625,0.25
239,-0.095703125,-0.98101807,0.08831787,-0.71875,-1.015625,0.28125
240,-0.091796875,-0.99346924,0.089538574,-0.6875,-0.5,0.03125
241,-0.08544922,-0.99224854,0.07977295,-1.046875,-1.328125,0.140625
242,-0.107910156,-0.9885864,0.09906006,-0.078125,-0.203125,0.734375
243,-0.11254883,-0.9920044,0.070251465,-1.046875,1.0,1.171875
244,-0.09692383,-0.9871216,0.09320068,-0.203125,1.625,0.703125
245,-0.08959961,-0.99346924,0.089782715,1.71875,0.90625,1.21875
246,-0.107910156,-0.98687744,0.081726074,0.984375,-0.53125,0.484375
247,-0.106933594,-0.98150635,0.09197998,0.65625,0.828125,1.15625
248,-0.08178711,-0.9932251,0.08001709,0.640625,1.703125,2.0
249,-0.08959961,-0.98443604,0.0770874,0.125,-0.171875,0.375
250,-0.09301758,-0.9973755,0.08123779,0.28125,0.265625,1.046875
251,-0.09375,-0.9932251,0.07489014,0.421875,0.53125,0.609375
252,-0.09423828,-0.9944458,0.07147217,0.46875,-0.140625,0.78125
253,-0.08959961,-0.98931885,0.08758545,1.03125,1.15625,0.96875
254,-0.083496094,-0.9920044,0.06561279,0.78125,0.125,0.359375
255,-0.08935547,-0.98150635,0.06707764,-0.09375,0.078125,1.09375
256,-0.092041016,-0.99957275,0.07244873,2.015625,1.828125,1.875
257,-0.076416016,-0.9849243,0.06072998,0.9375,0.921875,1.6875
258,-0.10253906,-0.9981079,0.070251465,-0.25,0.796875,1.453125
259,-0.07373047,-0.99835205,0.07757568,1.53125,1.6875,2.15625
260,-0.08642578,-0.9866333,0.050720215,0.109375,-0.609375,1.0
261,-0.08569336,-0.99102783,0.07122803,-0.390625,-0.5,0.359375
262,-0.08496094,-0.9981079,0.06072998,-0.71875,0.203125,0.484375
263,-0.080566406,-0.98931885,0.066101074,-0.9375,-0.171875,0.296875
264,-0.07763672,-0.99298096,0.058288574,-0.59375,-1.3125,-0.09375
265,-0.09106445,-0.9932251,0.06854248,-1.21875,-0.375,0.421875
266,-0.07788086,-0.9873657,0.0602417,-1.96875,-0.265625,0.46875
267,-0.080566406,-0.99005127,0.08148193,-1.78125,0.28125,0.296875
268,-0.09423828,-0.9885864,0.059753418,-1.71875,-0.4375,0.328125
269,-0.0703125,-0.9817505,0.06829834,-1.28125,0.234375,0.5
270,-0.0949707,-0.9883423,0.08123779,0.421875,0.921875,0.65625
271,-0.079833984,-0.9944458,0.06707764,-0.609375,1.5,0.953125
272,-0.08520508,-0.9932251,0.07293701,-0.65625,1.5,0.75
273,-0.064941406,-1.0005493,0.081970215,0.390625,0.6875,1.765625
274,-0.09741211,-0.98516846,0.06756592,-0.640625,0.015625,0.484375
275,-0.06713867,-0.99346924,0.07489014,-0.171875,1.6875,0.59375
276,-0.07714844,-0.9873657,0.070495605,-0.890625,-0.21875,0.1875
277,-0.0925293,-0.9915161,0.078552246,-0.6875,0.0,0.15625
278,-0.06738281,-0.9976196,0.07171631,-0.5,0.59375,0.28125
279,-0.08203125,-0.9871216,0.06903076,-0.1875,-0.328125,0.140625
280,-0.07910156,-0.9890747,0.07977295,-0.5625,-0.0625,0.265625
281,-0.08520508,-0.9927368,0.06707764,-0.703125,0.4375,0.25
282,-0.079833984,-0.9998169,0.077819824,-0.5,-0.125,0.640625
283,-0.0793457,-0.9944458,0.06707764,-1.34375,0.390625,0.03125
284,-0.0871582,-0.9937134,0.0914917,-1.09375,0.515625,0.25
285,-0.07446289,-0.9932251,0.050231934,-1.46875,0.015625,0.84375
286,-0.083496094,-0.9939575,0.08294678,-0.4375,0.734375,1.5625
287,-0.08251953,-0.9961548,0.07537842,1.203125,0.859375,1.703125
288,-0.07543945,-0.9883423,0.07147217,-0.96875,0.734375,1.375
289,-0.07055664,-1.00177,0.08538818,-0.828125,-0.390625,0.875
290,-0.0715332,-0.9902954,0.08099365,-0.0625,0.9375,1.078125
291,-0.07739258,-0.98101807,0.0770874,-0.828125,1.234375,1.046875
292,-0.06225586,-0.9973755,0.078063965,-0.53125,1.265625,0.671875
293,-0.0637207,-0.991272,0.07635498,-0.0625,-0.21875,0.59375
294,-0.075683594,-0.9873657,0.08416748,-0.5625,0.9375,0.640625
295,-0.07788086,-0.9973755,0.07928467,-0.578125,-0.921875,0.6875
296,-0.061523438,-0.991272,0.08392334,-0.578125,-0.265625,0.671875
297,-0.075683594,-0.9956665,0.08685303,-0.796875,-0.640625,0.65625
298,-0.07446289,-0.99224854,0.07293701,-0.78125,0.265625,-0.515625
299,-0.06542969,-1.0027466,0.0927124,1.34375,-0.578125,-0.203125
300,-0.0871582,-0.99957275,0.11248779,5.140625,2.5,-1.265625
301,-0.05883789,-1.0037231,0.05609131,6.953125,6.765625,0.484375
302,-0.07519531,-0.9915161,0.020935059,5.078125,6.578125,3.0625
303,-0.061279297,-0.99420166,0.07489014,5.453125,1.5,-0.5625
304,-0.067871094,-1.0037231,0.050476074,0.328125,-3.3125,-0.71875
305,-0.10058594,-0.9690552,0.03656006,-1.828125,-3.640625,-1.59375
306,-0.09033203,-0.9846802,0.031188965,1.328125,-2.296875,-2.46875
307,-0.07543945,-0.9859009,0.0368042,0.4375,-1.984375,0.6875
308,-0.07104492,-0.97003174,0.0004272461,-3.0625,-3.359375,-0.46875
309,-0.08886719,-0.99420166,0.062927246,-1.703125,-1.53125,0.65625
310,-0.095947266,-1.00177,0.055114746,-1.765625,-1.59375,0.109375
311,-0.076416016,-0.9920044,0.043151855,-0.984375,-0.375,0.5
312,-0.07763672,-0.9854126,0.06463623,-0.765625,-1.125,0.34375
313,-0.08935547,-1.0132446,0.049743652,-2.421875,-2.515625,0.53125
314,-0.07788086,-0.9924927,0.051940918,-1.625,-1.171875,0.5625
315,-0.07739258,-0.9976196,0.05267334,-0.46875,-0.46875,0.921875
316,-0.07788086,-0.9956665,0.055114746,-1.3125,-0.640625,0.765625
317,-0.0793457,-0.99102783,0.04559326,-0.984375,-0.890625,0.234375
318,-0.079589844,-0.9968872,0.061706543,-1.421875,-0.984375,0.171875
319,-0.087890625,-0.9920044,0.055603027,-0.84375,-0.8125,-0.375
320,-0.08984375,-0.98443604,0.04925537,-1.421875,-0.9375,0.09375
321,-0.07373047,-0.98760986,0.055847168,-0.859375,-0.5625,-0.15625
322,-0.0871582,-0.9932251,0.06488037,-1.171875,-0.25,0.65625
323,-0.08496094,-0.9871216,0.06732178,-0.75,-0.078125,-0.125
324,-0.07788086,-0.98565674,0.057556152,-0.3125,0.5625,0.75
325,-0.08911133,-0.98809814,0.059020996,-0.984375,-0.40625,-0.078125
326,-0.08520508,-0.99664307,0.08099365,-0.234375,-0.53125,0.515625
327,-0.08276367,-0.9885864,0.059753418,-0.96875,-0.375,0.078125
328,-0.076660156,-0.99298096,0.066345215,-0.34375,1.375,0.515625
329,-0.084472656,-0.99298096,0.06561279,-0.53125,0.5,0.75
330,-0.07861328,-0.9885864,0.054382324,-0.171875,-0.109375,0.09375
331,-0.08325195,-0.9939575,0.062194824,-0.828125,-0.421875,0.375
332,-0.08959961,-0.9898071,0.06439209,-1.09375,1.546875,0.40625
333,-0.080322266,-0.9924927,0.06390381,-0.890625,0.40625,0.015625
334,-0.075683594,-0.991272,0.06585693,-0.3125,0.703125,0.375
335,-0.092285156,-0.989563,0.06878662,-0.34375,-0.46875,0.546875
336,-0.08203125,-0.9976196,0.06488037,-1.40625,-0.234375,0.28125
337,-0.09033203,-0.9883423,0.07293701,-1.046875,-0.828125,-0.140625
338,-0.08105469,-0.9846802,0.06878662,-1.328125,0.8125,0.8125
339,-0.092285156,-0.99224854,0.066101074,-0.0625,0.078125,0.3125
340,-0.083496094,-0.98443604,0.06121826,-1.6875,-0.9375,0.09375
341,-0.08325195,-0.9902954,0.070251465,-1.640625,0.59375,0.28125
342,-0.095947266,-0.98809814,0.08465576,-0.71875,0.0,0.328125
343,-0.100097656,-0.9981079,0.066833496,-1.34375,-0.21875,0.265625
344,-0.07446289,-0.9924927,0.07122803,-0.046875,1.125,0.890625
345,-0.08251953,-0.987854,0.07098389,-0.953125,-0.53125,0.015625
346,-0.091552734,-0.98760986,0.08148193,-0.734375,0.078125,-0.0625
347,-0.084472656,-0.99053955,0.07904053,-1.296875,-0.125,0.171875
348,-0.088378906,-0.99102783,0.07635498,-1.03125,-0.015625,0.03125
349,-0.08520508,-0.9937134,0.08099365,-0.171875,0.34375,0.5
350,-0.08251953,-0.99102783,0.070495605,-1.03125,0.296875,0.859375
351,-0.08666992,-0.991272,0.07342529,-0.421875,0.640625,0.734375
352,-0.09375,-0.986145,0.08026123,0.484375,0.28125,0.859375
353,-0.08569336,-0.9963989,0.078308105,-0.125,1.90625,1.578125
354,-0.08227539,-0.9981079,0.074401855,-0.796875,-0.515625,0.921875
355,-0.076171875,-0.98443604,0.07513428,1.1875,1.25,0.875
356,-0.0925293,-0.9854126,0.07489014,-0.59375,-0.140625,0.796875
357,-0.09008789,-0.9951782,0.073913574,0.15625,0.640625,0.5625
358,-0.0690918,-0.98565674,0.061706543,-0.546875,-0.78125,0.578125
359,-0.083496094,-0.9939575,0.093444824,0.078125,-0.3125,0.546875
360,-0.09667969,-0.9907837,0.06488037,0.5625,-0.546875,0.265625
361,-0.072021484,-0.99420166,0.0770874,0.921875,0.734375,1.046875
362,-0.078125,-0.98638916,0.061950684,0.453125,-0.21875,0.703125
363,-0.07885742,-0.989563,0.082458496,0.53125,-0.015625,0.765625
364,-0.07788086,-0.9924927,0.070495605,0.78125,0.765625,0.953125
365,-0.08178711,-0.9817505,0.066589355,0.3125,0.46875,0.984375
366,-0.07519531,-0.986145,0.06072998,0.46875,0.265625,0.515625
367,-0.076416016,-1.0027466,0.073913574,0.90625,0.734375,1.484375
368,-0.07006836,-0.9800415,0.059020996,-0.765625,0.828125,0.75
369,-0.083740234,-0.9951782,0.06072998,0.0,1.0,0.71875
370,-0.06567383,-0.9973755,0.07513428,-1.0625,-0.5625,0.984375
371,-0.08935547,-0.9885864,0.070007324,-1.03125,-0.671875,-0.3125
372,-0.0703125,-1.000061,0.07659912,-0.765625,-0.171875,-0.03125
373,-0.08129883,-0.98638916,0.070007324,-0.40625,1.015625,0.375
374,-0.072509766,-0.98809814,0.070495605,-0.875,0.046875,0.1875
375,-0.07763672,-0.99224854,0.06976318,-0.859375,0.5,0.546875
376,-0.08129883,-0.9949341,0.06829834,-0.984375,0.171875,0.171875
377,-0.07080078,-0.9973755,0.078063965,-1.296875,0.609375,0.25
378,-0.087402344,-0.9834595,0.06585693,-1.34375,-0.546875,0.578125
379,-0.07104492,-0.99053955,0.07293701,-0.984375,0.5625,0.734375
380,-0.075927734,-0.99542236,0.06072998,-1.390625,0.515625,0.75
381,-0.080566406,-0.9902954,0.09564209,-0.25,0.9375,0.796875
382,-0.07421875,-0.99468994,0.06390381,-2.09375,-0.328125,0.171875
383,-0.08544922,-0.99713135,0.090270996,-0.90625,-0.140625,0.671875
384,-0.080566406,-0.99884033,0.078552246,0.875,1.6875,0.796875
385,-0.06347656,-0.99420166,0.05633545,-0.328125,0.984375,0.90625
386,-0.0625,-0.9968872,0.07879639,-0.0625,0.296875,0.46875
387,-0.08959961,-0.98883057,0.0770874,-0.75,-0.34375,0.328125
388,-0.07324219,-0.98809814,0.070007324,-0.46875,-0.109375,0.265625
389,-0.06323242,-1.0042114,0.07611084,-0.71875,0.03125,0.515625
390,-0.07348633,-0.9932251,0.07977295,-0.609375,-1.25,0.3125
391,-0.07373047,-0.9873657,0.07928467,-0.078125,-0.109375,0.984375
392,-0.075927734,-0.98760986,0.07733154,-0.109375,0.5,0.640625
393,-0.07006836,-0.991272,0.07952881,0.21875,1.375,0.859375
394,-0.08203125,-0.99884033,0.07659912,0.28125,-0.75,0.234375
395,-0.07299805,-0.98883057,0.06365967,2.71875,0.65625,0.59375
396,-0.059326172,-0.99468994,0.08807373,1.5,1.71875,1.171875
397,-0.08129883,-0.991272,0.066345215,-0.359375,0.6875,0.484375
398,-0.07055664,-0.9871216,0.07196045,0.171875,1.015625,-0.84375
399,-0.06518555,-0.9956665,0.0914917,2.21875,0.203125,-0.328125
400,-0.09448242,-1.0027466,0.039001465,7.265625,3.96875,-1.03125
401,-0.1003418,-0.9939575,0.051208496,6.984375,8.890625,2.1875
402,-0.04711914,-1.0003052,0.046081543,2.4375,-0.296875,-0.921875
403,-0.06298828,-0.98321533,0.0211792,1.828125,-3.921875,0.09375
404,-0.103515625,-0.97052,0.027038574,2.3125,-2.234375,-0.546875
405,-0.072021484,-0.9890747,0.02508545,1.328125,-1.453125,-0.078125
406,-0.061767578,-0.9819946,0.019470215,-1.703125,-1.015625,1.453125
407,-0.08886719,-0.9849243,0.0289917,-2.78125,-0.84375,0.984375
408,-0.0715332,-0.9949341,0.045837402,-1.84375,0.265625,1.0625
409,-0.0703125,-1.0007935,0.029724121,-1.328125,-0.796875,0.984375
410,-0.07543945,-0.9885864,0.036071777,-0.578125,-0.4375,1.140625
411,-0.0625,-0.9956665,0.039245605,-2.453125,-0.421875,1.0625
412,-0.08618164,-0.9961548,0.058288574,-1.8125,-1.265625,0.21875
413,-0.06274414,-0.9890747,0.03314209,-0.265625,0.109375,0.140625
414,-0.076416016,-1.0025024,0.04901123,-1.34375,-0.4375,0.40625
415,-0.07543945,-0.99053955,0.04071045,-0.921875,-0.515625,-0.0625
416,-0.06640625,-0.9961548,0.046081543,-1.03125,-0.34375,0.6875
417,-0.06567383,-0.9902954,0.048034668,-1.046875,-0.8125,0.125
418,-0.080078125,-0.99346924,0.054870605,-1.09375,-1.484375,-0.09375
419,-0.072509766,-0.9854126,0.03753662,-1.984375,-0.4375,-0.015625
420,-0.0769043,-0.99102783,0.050720215,-1.125,-0.03125,0.4375
421,-0.0793457,-0.9951782,0.06048584,-1.171875,-0.46875,0.3125
422,-0.075927734,-0.99420166,0.051452637,-0.890625,0.46875,0.171875
423,-0.07299805,-0.98883057,0.04144287,-1.859375,0.03125,0.171875
424,-0.07348633,-0.9883423,0.06097412,-1.140625,-0.15625,-0.140625
425,-0.083496094,-0.99346924,0.050720215,-2.0625,-0.8125,0.09375
426,-0.09375,-0.99053955,0.055358887,-1.703125,0.046875,-0.15625
427,-0.08105469,-0.99591064,0.062683105,0.046875,0.65625,0.28125
428,-0.07910156,-0.99005127,0.04925537,-1.046875,-0.109375,0.171875
429,-0.08178711,-0.98687744,0.055847168,-0.859375,0.6875,0.359375
430,-0.0769043,-0.9932251,0.066589355,-0.640625,1.0,0.1875
431,-0.07421875,-0.9890747,0.058532715,-1.59375,-1.078125,0.0
432,-0.07885742,-0.9859009,0.06756592,-0.359375,-0.28125,-0.296875
433,-0.08496094,-1.00177,0.05731201,-1.4375,-0.828125,0.140625
434,-0.07910156,-0.98565674,0.062438965,-0.703125,-0.046875,0.03125
435,-0.07714844,-0.99468994,0.061706543,-0.65625,-0.53125,0.75
436,-0.09033203,-0.99102783,0.059020996,-0.953125,0.15625,0.671875
437,-0.076416016,-0.9949341,0.058044434,-1.546875,0.171875,0.671875
438,-0.06933594,-0.989563,0.06781006,-0.234375,0.265625,0.4375
439,-0.09033203,-1.0037231,0.06341553,-1.546875,-0.25,0.390625
440,-0.09033203,-0.9807739,0.058776855,-1.359375,0.828125,-0.1875
441,-0.06762695,-1.0022583,0.074157715,-0.359375,2.390625,1.1875
442,-0.07397461,-0.9963989,0.06903076,-1.109375,-0.984375,-0.09375
443,-0.08642578,-0.99102783,0.0692749,-1.03125,-0.796875,0.171875
444,-0.0793457,-0.99664307,0.08880615,-0.84375,-1.09375,-0.046875
445,-0.084472656,-0.9890747,0.074157715,-1.40625,0.0625,0.625
446,-0.08544922,-0.9849243,0.07733154,-0.5625,-0.25,0.40625
447,-0.079589844,-0.9883423,0.06829834,-0.34375,0.65625,0.59375
448,-0.08300781,-0.9915161,0.074157715,-0.125,-0.234375,0.625
449,-0.07739258,-0.9920044,0.07928467,0.03125,0.578125,0.625
450,-0.09375,-1.0003052,0.08270264,-0.5625,0.734375,0.828125
451,-0.07519531,-0.99346924,0.06756592,-1.09375,0.515625,0.390625
452,-0.08544922,-0.98394775,0.09197998,0.65625,0.640625,0.453125
453,-0.07885742,-1.0005493,0.070495605,-0.921875,1.21875,1.53125
454,-0.07543945,-0.98638916,0.08660889,-0.28125,0.390625,0.328125
455,-0.07495117,-1.0081177,0.07244873,0.484375,-0.75,0.984375
456,-0.07421875,-0.9854126,0.06561279,-0.734375,-1.734375,0.3125
457,-0.08251953,-0.9920044,0.07244873,-1.171875,-1.21875,0.765625
458,-0.06713867,-0.98321533,0.07122803,-1.109375,-0.03125,0.890625
459,-0.07324219,-0.9981079,0.09100342,-0.34375,-0.765625,0.890625
460,-0.087402344,-0.9920044,0.07293701,-0.21875,0.203125,0.375
461,-0.07519531,-0.99420166,0.08270264,-0.359375,-0.09375,0.984375
462,-0.080322266,-0.9968872,0.06781006,-0.28125,0.25,1.171875
463,-0.07543945,-0.9849243,0.06951904,0.34375,1.453125,0.46875
464,-0.076171875,-1.0081177,0.08270264,0.3125,0.375,0.6875
465,-0.07104492,-0.9871216,0.06878662,0.015625,0.203125,0.859375
466,-0.076171875,-0.991272,0.06048584,-0.53125,-0.25,0.65625
467,-0.07885742,-1.0010376,0.09222412,-0.0625,1.21875,0.6875
468,-0.07299805,-0.98321533,0.062438965,-1.546875,0.578125,0.6875
469,-0.07348633,-0.98883057,0.07904053,-0.625,1.875,0.5
470,-0.057128906,-0.991272,0.078063965,1.53125,-0.046875,1.265625
471,-0.091552734,-0.9924927,0.062438965,-0.125,1.40625,0.96875
472,-0.068115234,-0.9998169,0.08074951,0.75,2.03125,1.125
473,-0.06738281,-0.9927368,0.07366943,-0.265625,-0.46875,0.125
474,-0.060058594,-0.9907837,0.062438965,-0.265625,0.28125,-0.015625
475,-0.08203125,-0.98516846,0.06756592,-0.078125,0.296875,0.4375
476,-0.06201172,-0.9937134,0.078552246,0.078125,0.359375,0.09375
477,-0.068847656,-0.989563,0.06439209,-0.125,0.859375,0.609375
478,-0.075683594,-0.9998169,0.07513428,-0.3125,-0.53125,0.734375
479,-0.07543945,-0.9824829,0.066345215,-0.515625,0.625,-0.140625
480,-0.07373047,-0.99420166,0.07220459,-0.71875,1.015625,0.9375
481,-0.0847168,-0.9968872,0.070739746,-2.328125,-0.828125,-0.265625
482,-0.07397461,-0.99884033,0.08880615,-0.625,2.84375,-0.21875
483,-0.06665039,-0.9883423,0.06781006,-3.953125,2.796875,-0.21875
484,-0.087646484,-0.9927368,0.093688965,-3.796875,1.09375,-2.96875
485,-0.06274414,-1.0078735,0.10491943,-0.328125,7.90625,-1.453125
486,-0.071777344,-0.9898071,0.04095459,1.21875,9.265625,2.484375
487,-0.07519531,-0.9976196,0.07757568,5.421875,4.90625,0.515625
488,-0.07324219,-0.99786377,0.066345215,2.375,-0.8125,-0.28125
489,-0.114746094,-0.9824829,0.04486084,2.4375,-4.484375,-0.125
490,-0.08300781,-0.9890747,0.059020996,0.28125,-4.859375,-1.96875
491,-0.068359375,-0.9890747,0.05267334,-1.15625,-3.0625,-0.578125
492,-0.103759766,-0.9800415,0.03753662,1.46875,-0.765625,0.609375
493,-0.068847656,-0.9729614,0.062194824,-0.546875,1.09375,1.71875
494,-0.08251953,-0.9951782,0.062683105,-1.5,1.03125,1.921875
495,-0.08496094,-0.9898071,0.070007324,-1.796875,-0.125,0.765625
496,-0.068359375,-0.9866333,0.03753662,-2.546875,-2.171875,0.1875
497,-0.06591797,-0.9956665,0.078063965,-1.625,-2.171875,0.515625
498,-0.07299805,-0.97857666,0.066833496,-3.1875,-3.390625,-0.796875
499,-0.095214844,-0.99468994,0.07098389,-2.75,-1.25,-0.46875
500,-0.05102539,-0.99591064,0.07196045,-0.625,-0.328125,-0.40625
501,-0.08276367,-0.98638916,0.059753418,-2.265625,-2.328125,0.25
502,-0.0847168,-0.9883423,0.086120605,0.34375,-1.40625,0.09375
503,-0.07836914,-0.98931885,0.074401855,-1.109375,-1.375,0.828125
504,-0.091552734,-0.99005127,0.077819824,-0.71875,-1.9375,0.046875
505,-0.08325195,-0.9866333,0.07537842,-0.546875,-2.0625,-0.390625
506,-0.08642578,-0.9927368,0.077819824,-0.4375,-1.5,0.75
507,-0.0925293,-0.9866333,0.07489014,-0.3125,-1.421875,0.328125
508,-0.07910156,-0.99542236,0.07977295,-0.1875,-1.5,0.5625
509,-0.084472656,-0.99591064,0.08807373,-0.59375,-0.796875,1.125
510,-0.088378906,-0.98394775,0.07659912,-0.625,-0.828125,0.28125
511,-0.0847168,-0.99957275,0.08709717,0.125,-0.609375,0.53125
512,-0.08081055,-0.97613525,0.07366943,-2.09375,-0.6875,-0.3125
513,-0.09790039,-0.98321533,0.08001709,-1.59375,-0.4375,-0.609375
514,-0.08129883,-0.9998169,0.109069824,0.375,0.34375,0.109375
515,-0.08496094,-0.9951782,0.08392334,-1.390625,-0.78125,-0.375
516,-0.0949707,-0.9890747,0.085632324,-1.5,-0.078125,-0.234375
517,-0.087890625,-0.9890747,0.07977295,-1.53125,0.421875,-0.09375
518,-0.08618164,-0.99542236,0.08685303,-0.953125,0.125,-0.359375
519,-0.0871582,-0.9883423,0.08050537,-2.5,-1.4375,-0.015625
520,-0.095214844,-0.99713135,0.10101318,-2.265625,-0.5,-0.25
521,-0.09448242,-0.97735596,0.07879639,-1.828125,-0.703125,0.171875
522,-0.09667969,-0.99053955,0.09515381,-1.125,0.359375,0.5625
523,-0.09814453,-0.99786377,0.10809326,-0.9375,1.515625,0.5
524,-0.07885742,-0.97979736,0.08782959,-0.90625,1.828125,0.4375
525,-0.08203125,-0.99786377,0.09466553,0.421875,0.484375,1.609375
526,-0.08862305,-0.9841919,0.08026123,-0.96875,-1.21875,0.453125
527,-0.08544922,-0.991272,0.10223389,-0.125,0.484375,-0.234375
528,-0.104003906,-0.986145,0.09954834,-0.65625,1.125,0.078125
529,-0.10107422,-0.9885864,0.08856201,0.21875,1.03125,-0.15625
530,-0.088378906,-0.991272,0.10272217,-0.25,0.9375,0.171875
531,-0.09423828,-0.9871216,0.08782959,-0.828125,0.265625,-0.34375
532,-0.10058594,-0.9824829,0.09661865,-0.1875,-0.078125,-0.34375
533,-0.095703125,-0.9920044,0.09490967,-0.3125,1.1875,0.546875
534,-0.099609375,-0.98443604,0.09173584,0.15625,0.390625,0.5625
535,-0.091796875,-0.98809814,0.097839355,0.015625,1.390625,0.671875
536,-0.107910156,-0.9915161,0.09124756,-0.578125,0.484375,0.171875
537,-0.08666992,-0.9841919,0.077819824,0.0625,1.171875,0.546875
538,-0.091552734,-0.97662354,0.093933105,0.015625,1.921875,0.484375
539,-0.09448242,-0.9993286,0.08709717,-0.015625,0.78125,0.625
540,-0.106933594,-0.989563,0.08758545,-0.4375,-0.03125,-0.015625
541,-0.099609375,-0.9824829,0.08831787,-0.125,1.375,0.484375
542,-0.09399414,-0.99591064,0.10076904,0.09375,0.796875,0.546875
543,-0.11035156,-0.99420166,0.0770874,0.71875,1.671875,0.234375
544,-0.075927734,-0.98516846,0.09466553,0.0,0.125,0.375
545,-0.10058594,-0.9915161,0.093444824,-0.09375,-1.5,-0.046875
546,-0.1003418,-0.9885864,0.08001709,0.140625,-0.0625,0.375
547,-0.08520508,-0.98028564,0.08807373,0.1875,1.96875,1.84375
548,-0.09033203,-0.9956665,0.08270264,0.015625,1.125,1.578125
549,-0.083984375,-0.9898071,0.08514404,-0.6875,1.0625,1.015625
550,-0.08935547,-0.9968872,0.08856201,-0.234375,0.0,1.4375
551,-0.084228516,-0.99542236,0.08123779,-0.234375,0.078125,1.4375
552,-0.08984375,-0.9885864,0.09515381,-0.125,1.484375,0.921875
553,-0.08203125,-0.9981079,0.07952881,-0.71875,-0.453125,0.671875
554,-0.1003418,-0.98687744,0.08831787,-1.5625,-0.296875,0.8125
555,-0.0793457,-0.9998169,0.10101318,0.171875,-0.421875,0.296875
556,-0.08691406,-0.98809814,0.07928467,-1.890625,-1.671875,1.03125
557,-0.08276367,-0.9824829,0.09613037,-0.8125,0.8125,0.875
558,-0.07495117,-0.9951782,0.082458496,-1.421875,-0.640625,1.359375
559,-0.07763672,-0.97735596,0.09124756,-0.703125,-1.203125,0.890625
560,-0.07324219,-0.9883423,0.10101318,-0.25,-0.96875,1.4375
561,-0.091796875,-0.989563,0.10223389,-0.78125,-1.9375,0.125
562,-0.08544922,-0.9871216,0.09442139,0.6875,-0.890625,-0.640625
563,-0.0871582,-0.99102783,0.109069824,1.453125,-1.203125,-0.640625
564,-0.10644531,-1.0042114,0.112976074,2.4375,2.71875,-1.234375
565,-0.075683594,-1.0012817,0.08441162,5.875,5.171875,-1.578125
566,-0.114990234,-0.9883423,0.047058105,6.484375,3.390625,-0.25
567,-0.07055664,-0.9898071,0.07342529,7.765625,-0.84375,-0.171875
568,-0.1496582,-0.9973755,0.066833496,4.9375,-3.828125,0.9375
569,-0.09277344,-0.98809814,0.043395996,4.046875,2.390625,2.921875
570,-0.043701172,-0.97369385,0.02557373,1.734375,2.359375,3.640625
571,-0.080322266,-0.989563,0.03656006,0.421875,-2.8125,1.875
572,-0.07055664,-0.9990845,0.047058105,-0.875,-0.96875,1.796875
573,-0.092041016,-0.99005127,0.053894043,-1.15625,-1.15625,0.75
574,-0.095214844,-1.0003052,0.062683105,0.03125,-2.96875,-0.171875
575,-0.08642578,-0.986145,0.04510498,-0.078125,0.84375,-0.25
576,-0.07788086,-0.9961548,0.0446167,0.609375,0.140625,0.625
577,-0.08544922,-0.99420166,0.039978027,-0.078125,-0.859375,-0.5
578,-0.08300781,-0.9873657,0.04144287,-0.484375,0.90625,-0.203125
579,-0.091796875,-0.9829712,0.03656006,-1.109375,-1.171875,-0.296875
580,-0.08618164,-1.0076294,0.047546387,-0.953125,0.75,0.90625
581,-0.09082031,-0.975647,0.04046631,-2.0,0.484375,0.0
582,-0.07861328,-0.9963989,0.046813965,-2.25,2.15625,0.9375
583,-0.07543945,-0.99176025,0.062683105,-1.5,1.5625,0.203125
584,-0.099609375,-1.0012817,0.028015137,-1.21875,0.546875,-0.3125
585,-0.06982422,-0.973938,0.062438965,-2.390625,1.578125,0.375
586,-0.09033203,-1.0105591,0.06365967,-1.8125,0.0625,0.015625
587,-0.09106445,-0.98394775,0.04534912,-1.5,1.484375,-0.359375
588,-0.06689453,-1.0005493,0.06072998,0.0,0.671875,0.046875
589,-0.1003418,-0.9883423,0.06097412,0.0625,-0.421875,0.609375
590,-0.0949707,-0.9873657,0.05291748,0.0,0.53125,0.375
591,-0.08129883,-0.9841919,0.059753418,-0.046875,1.25,0.359375
592,-0.08203125,-0.9873657,0.051208496,-0.4375,1.046875,0.515625
593,-0.080078125,-0.9944458,0.057556152,0.59375,-0.3125,-0.09375
594,-0.080322266,-0.9817505,0.047058105,-1.578125,0.328125,0.125
595,-0.08691406,-0.9915161,0.06732178,-0.3125,0.9375,0.28125
596,-0.08203125,-0.99298096,0.04827881,-1.03125,0.125,0.8125
597,-0.09790039,-0.99176025,0.058288574,-1.34375,-0.75,0.46875
598,-0.08178711,-0.9973755,0.06463623,-0.546875,-0.625,0.40625
599,-0.08862305,-0.9795532,0.058044434,-1.015625,0.28125,0.96875
600,-0.08862305,-0.99664307,0.05218506,-0.734375,0.28125,0.46875
601,-0.06542969,-0.99664307,0.06756592,-1.078125,0.296875,0.921875
602,-0.0871582,-0.98223877,0.06561279,-1.0625,-0.640625,0.71875
603,-0.07446289,-0.9907837,0.06439209,-2.1875,0.15625,0.90625
604,-0.0925293,-1.0022583,0.07318115,-1.109375,-1.140625,-0.125
605,-0.08300781,-0.9873657,0.057800293,-1.75,-0.265625,-0.015625
606,-0.07763672,-0.98809814,0.07537842,-0.859375,0.53125,0.6875
607,-0.07885742,-0.98272705,0.054138184,-2.875,-1.4375,0.0
608,-0.083496094,-0.9871216,0.07635498,-2.671875,0.109375,-0.046875
609,-0.07324219,-0.9963989,0.07537842,-1.328125,0.46875,0.90625
610,-0.09838867,-0.9927368,0.07196045,-1.28125,-1.34375,-0.28125
611,-0.08959961,-0.99957275,0.085876465,-1.25,-1.8125,-0.484375
612,-0.091308594,-0.9898071,0.086120605,-1.078125,-1.421875,-0.09375
613,-0.09863281,-0.99713135,0.08050537,-0.765625,-1.390625,0.0
614,-0.08642578,-0.9915161,0.070739746,-0.796875,0.375,0.859375
615,-0.09790039,-0.9898071,0.06951904,-1.65625,-0.265625,2.03125
616,-0.0847168,-0.99786377,0.08392334,-0.765625,-0.515625,1.4375
617,-0.07128906,-0.9898071,0.06976318,-2.625,0.296875,1.734375
618,-0.07373047,-0.99664307,0.07684326,-3.03125,-0.265625,0.828125
619,-0.08959961,-0.9932251,0.10076904,-1.828125,-0.09375,-0.65625
620,-0.076416016,-0.99884033,0.09222412,-0.9375,0.234375,0.375
621,-0.107910156,-1.0039673,0.10028076,-0.890625,-1.015625,-0.453125
622,-0.07543945,-0.991272,0.081970215,0.3125,2.046875,0.40625
623,-0.072021484,-0.9873657,0.09222412,-2.21875,0.84375,1.25
624,-0.08691406,-0.9968872,0.07562256,-2.890625,-0.4375,0.09375
625,-0.08227539,-0.98931885,0.090270996,-3.734375,-1.6875,-0.3125
626,-0.0925293,-0.9727173,0.093688965,-0.953125,0.5625,0.328125
627,-0.060546875,-1.0205688,0.117614746,0.8125,-0.21875,0.921875
628,-0.08520508,-0.991272,0.11004639,1.71875,-3.046875,0.59375
629,-0.10131836,-1.0046997,0.1329956,5.265625,1.71875,-0.1875
630,-0.05102539,-1.0166626,0.042663574,4.609375,7.8125,0.53125
631,-0.07421875,-0.9573364,0.058776855,3.796875,-0.84375,-1.171875
632,-0.12109375,-0.99835205,0.08905029,2.59375,-2.421875,-0.8125
633,-0.09423828,-1.0061646,0.09906006,6.59375,1.078125,-0.78125
634,-0.103271484,-0.97662354,0.061950684,3.328125,-0.515625,1.5625
635,-0.09277344,-0.97735596,0.028015137,2.0,2.484375,0.09375
636,-0.036132812,-0.9570923,0.031433105,0.125,-1.484375,2.28125
637,-0.09106445,-1.0022583,0.057556152,0.484375,-2.703125,0.03125
638,-0.09082031,-1.0012817,0.07513428,1.84375,-2.234375,2.046875
639,-0.08666992,-0.9859009,0.051208496,-0.5,-3.609375,-0.734375
640,-0.095703125,-1.0012817,0.05316162,-0.421875,-1.53125,0.578125
641,-0.076660156,-0.98565674,0.047546387,0.140625,-2.265625,-0.453125
642,-0.08276367,-1.0025024,0.058288574,-0.203125,-1.703125,0.828125
643,-0.09399414,-0.9890747,0.047546387,0.40625,-0.9375,0.78125
644,-0.084472656,-0.9849243,0.06463623,0.125,-1.125,0.625
645,-0.09326172,-0.99053955,0.066345215,-0.796875,-1.78125,-0.1875
646,-0.080078125,-1.0029907,0.054626465,-0.140625,-0.1875,1.0625
647,-0.09277344,-0.9807739,0.038513184,-1.59375,-0.40625,-0.09375
648,-0.091308594,-0.9854126,0.05316162,-1.109375,0.203125,0.03125
649,-0.07910156,-0.9937134,0.062683105,-0.859375,0.53125,0.375
650,-0.09692383,-0.9841919,0.046813965,-1.671875,-0.859375,-0.375
651,-0.08203125,-0.9949341,0.05609131,-1.0625,1.6875,0.3125
652,-0.08618164,-0.99786377,0.055114746,-1.28125,0.484375,0.203125
653,-0.09423828,-0.9846802,0.04486084,-1.875,1.828125,0.359375
654,-0.080078125,-1.0105591,0.05706787,-0.421875,1.1875,0.203125
655,-0.076171875,-0.98883057,0.059020996,-0.640625,0.328125,0.15625
656,-0.09667969,-0.99713135,0.048034668,-0.953125,-0.796875,-0.265625
657,-0.08959961,-0.9898071,0.047546387,-1.25,0.625,0.375
658,-0.09423828,-1.0020142,0.07659912,-0.3125,1.0625,0.96875
659,-0.076660156,-0.99786377,0.061950684,-1.953125,-0.796875,1.0625
660,-0.09423828,-0.97906494,0.06365967,-1.140625,-0.6875,0.40625
661,-0.0793457,-0.9927368,0.058044434,-0.140625,1.375,1.125
662,-0.08959961,-0.9915161,0.06048584,-0.1875,0.375,1.5
663,-0.08618164,-0.98931885,0.062927246,0.015625,-0.59375,0.640625
664,-0.0847168,-1.0015259,0.06854248,-0.484375,0.71875,1.0625
665,-0.087646484,-0.99713135,0.07098389,-0.390625,-0.796875,-0.453125
666,-0.08691406,-0.9920044,0.061950684,-0.171875,0.375,0.75
667,-0.0715332,-0.98809814,0.057556152,0.171875,-0.0625,0.328125
668,-0.091796875,-0.9944458,0.07952881,-0.46875,0.609375,1.078125
669,-0.08544922,-0.9939575,0.059265137,0.09375,-0.328125,0.75
670,-0.07006836,-0.99542236,0.054870605,-0.609375,0.765625,1.5625
671,-0.08618164,-0.98687744,0.07293701,0.15625,-0.53125,0.4375
672,-0.07470703,-1.0025024,0.07489014,-0.46875,-0.40625,1.484375
673,-0.103271484,-0.9920044,0.06341553,-0.09375,-0.78125,0.6875
674,-0.0703125,-0.99102783,0.062927246,0.734375,1.765625,1.109375
675,-0.084472656,-0.9976196,0.07366943,-2.125,-1.234375,0.65625
676,-0.080566406,-0.9902954,0.05682373,-0.875,0.015625,-0.484375
677,-0.07788086,-0.98760986,0.06732178,-0.953125,1.5,0.84375
678,-0.08569336,-1.0029907,0.06121826,-0.65625,1.140625,0.6875
679,-0.06518555,-0.9824829,0.062927246,-0.03125,0.296875,0.046875
680,-0.080566406,-0.9993286,0.06976318,-0.859375,-0.34375,0.46875
681,-0.08691406,-0.99346924,0.06951904,-1.0,-0.9375,-0.03125
682,-0.08666992,-0.99053955,0.06463623,-1.15625,0.578125,0.234375
683,-0.08666992,-1.00177,0.07269287,-1.140625,0.28125,0.546875
684,-0.076171875,-0.98565674,0.06829834,-1.25,0.375,0.40625
685,-0.075927734,-1.0020142,0.06781006,-0.859375,0.234375,0.828125
686,-0.091796875,-0.986145,0.06976318,-1.15625,0.125,-0.28125
687,-0.06982422,-0.9837036,0.0602417,-0.59375,1.234375,0.8125
688,-0.07495117,-1.0029907,0.07952881,-1.96875,-0.15625,1.421875
689,-0.07885742,-0.9951782,0.078308105,-1.734375,-0.453125,-0.59375
690,-0.06274414,-0.99884033,0.07635498,-1.46875,-0.375,-0.34375
691,-0.07348633,-0.99298096,0.074645996,-0.921875,-1.25,-0.90625
692,-0.08862305,-0.9985962,0.10784912,-0.140625,1.171875,-2.140625
693,-0.06958008,-1.0215454,0.070495605,0.890625,5.328125,-1.296875
694,-0.10668945,-0.9776001,0.047790527,2.984375,5.578125,0.515625
695,-0.07910156,-1.015686,0.07952881,2.953125,7.265625,-0.875
696,-0.07055664,-0.9768677,0.035095215,2.59375,0.484375,0.8125
697,-0.11376953,-0.97125244,0.021911621,3.265625,-2.625,-1.0
698,-0.09082031,-0.9734497,0.05682373,3.1875,-2.765625,-1.8125
699,-0.083740234,-0.9968872,0.030944824,-1.625,-2.765625,-0.0625
700,-0.1105957,-0.9956665,0.05218506,-1.6875,-3.0625,0.46875
701,-0.08520508,-0.991272,0.04852295,-1.890625,-2.03125,0.703125
702,-0.09423828,-1.0071411,0.061706543,-0.3125,-3.453125,-0.625
703,-0.09887695,-0.9937134,0.06390381,-0.90625,-3.28125,-0.96875
704,-0.118652344,-0.9956665,0.055847168,-0.9375,-0.8125,0.78125
705,-0.08325195,-0.98883057,0.055847168,-0.984375,-0.234375,0.9375
706,-0.09643555,-0.99835205,0.059509277,-0.625,-1.40625,1.1875
707,-0.09375,-0.9805298,0.054626465,-0.921875,-1.921875,0.890625
708,-0.104003906,-1.0054321,0.05316162,-1.015625,-1.390625,0.578125
709,-0.09008789,-0.9898071,0.0692749,-1.34375,-0.6875,0.125
710,-0.09057617,-0.991272,0.0446167,-1.28125,-0.34375,0.9375
711,-0.10620117,-0.99468994,0.06317139,-0.3125,-0.34375,0.375
712,-0.09106445,-1.0049438,0.062927246,-0.359375,-0.296875,0.8125
713,-0.099609375,-0.9859009,0.06365967,-0.5,-1.234375,0.359375
714,-0.08959961,-0.9793091,0.058288574,-0.421875,1.71875,1.0
715,-0.095458984,-0.9920044,0.06976318,-0.953125,0.234375,1.0
716,-0.1015625,-0.9944458,0.06097412,-0.046875,-0.0625,-0.375
717,-0.076416016,-0.9849243,0.050720215,-0.78125,-0.21875,0.28125
718,-0.10644531,-0.9944458,0.059265137,-0.046875,-0.125,0.390625
719,-0.08691406,-0.99224854,0.06756592,-0.203125,1.453125,0.296875
720,-0.078125,-0.9871216,0.050964355,-0.5,1.125,0.765625
721,-0.103271484,-0.99664307,0.07269287,-1.21875,-0.5625,0.21875
722,-0.10058594,-0.98760986,0.050476074,-1.28125,1.40625,-0.328125
723,-0.092285156,-0.9949341,0.048034668,-0.28125,2.015625,0.828125
724,-0.092041016,-0.9780884,0.06072998,0.578125,-0.953125,-0.609375
725,-0.10668945,-1.0081177,0.081726074,-0.140625,0.15625,0.9375
726,-0.091552734,-0.9800415,0.05633545,-0.640625,0.8125,0.078125
727,-0.08666992,-0.99298096,0.06121826,-0.046875,1.953125,1.09375
728,-0.08154297,-0.9902954,0.06390381,-0.546875,-0.796875,0.46875
729,-0.08984375,-0.9890747,0.06317139,-1.671875,-1.078125,0.09375
730,-0.10498047,-0.99713135,0.074401855,-1.125,-0.984375,0.953125
731,-0.09838867,-0.9890747,0.057800293,-1.9375,-0.53125,0.984375
732,-0.084472656,-0.9956665,0.07220459,-2.109375,-1.0,1.015625
733,-0.08691406,-0.99664307,0.07122803,-1.5625,-0.734375,0.921875
734,-0.095458984,-0.98394775,0.07733154,-0.859375,-0.84375,0.1875
735,-0.104003906,-0.9898071,0.06951904,-1.328125,0.421875,1.078125
736,-0.1003418,-0.9998169,0.07122803,-0.890625,0.953125,0.734375
737,-0.087402344,-0.98516846,0.07562256,-1.25,-0.046875,0.578125
738,-0.08276367,-0.9937134,0.08441162,-0.734375,-0.078125,0.5
739,-0.09350586,-0.97979736,0.06414795,-2.078125,-0.3125,-0.015625
740,-0.111328125,-0.9902954,0.086120605,-1.515625,1.59375,0.671875
741,-0.08569336,-0.99786377,0.08026123,-0.484375,1.0,0.46875
742,-0.08642578,-0.98321533,0.070007324,-0.75,-0.59375,0.109375
743,-0.078125,-0.99346924,0.08099365,0.28125,0.953125,0.609375
744,-0.0949707,-0.98565674,0.07513428,-1.078125,-0.46875,-0.140625
745,-0.07519531,-0.98883057,0.082458496,-1.9375,-1.109375,-0.328125
746,-0.09667969,-0.9990845,0.093688965,-0.734375,-1.921875,-0.59375
747,-0.0925293,-0.9854126,0.07635498,-0.609375,-0.171875,-0.09375
748,-0.09814453,-0.99420166,0.07659912,0.6875,-0.09375,0.8125
749,-0.092285156,-0.9885864,0.07269287,0.765625,0.515625,1.328125
750,-0.092285156,-0.9949341,0.07537842,-0.953125,0.234375,1.3125
751,-0.05908203,-0.98101807,0.0836792,-2.078125,1.25,1.75
752,-0.08569336,-1.0027466,0.08905029,-0.40625,-3.140625,0.46875
753,-0.114990234,-1.0020142,0.09100342,-0.1875,-1.078125,1.171875
754,-0.08544922,-0.9805298,0.0758667,2.140625,-0.203125,2.71875
755,-0.08959961,-0.9927368,0.090026855,1.1875,-0.765625,3.09375
756,-0.0793457,-0.9890747,0.077819824,2.078125,1.53125,3.171875
757,-0.06616211,-0.99591064,0.07122803,1.34375,-0.9375,2.5625
758,-0.07373047,-0.98565674,0.07147217,0.796875,-1.6875,0.90625
759,-0.092285156,-0.99542236,0.06414795,0.828125,-0.171875,2.0625
