sample_no,accel_x,accel_y,accel_z,gyro_x,gyro_y,gyro_z
0,-0.6118164,0.012634277,0.8656616,-1.28125,-1.296875,-0.140625
1,-0.6130371,0.039733887,0.8793335,-1.53125,-0.734375,-0.359375
2,-0.6237793,0.02166748,0.88275146,-0.328125,-0.421875,0.359375
3,-0.61206055,0.020935059,0.8678589,-0.640625,-0.328125,0.53125
4,-0.626709,0.023376465,0.8746948,-0.640625,-0.125,0.375
5,-0.6179199,0.03265381,0.87323,-0.796875,0.125,0.59375
6,-0.6140137,0.027282715,0.8644409,-0.1875,-0.4375,0.28125
7,-0.61621094,0.01776123,0.86590576,-0.953125,-0.46875,0.125
8,-0.61621094,0.014831543,0.8788452,-1.15625,-1.328125,-0.28125
9,-0.623291,0.024597168,0.8673706,-2.296875,-0.703125,-0.421875
10,-0.61621094,0.035095215,0.87054443,-1.328125,0.953125,-0.28125
11,-0.62353516,0.024597168,0.8773804,-0.375,0.78125,0.578125
12,-0.63183594,0.022644043,0.87493896,-0.703125,-0.25,0.484375
13,-0.6164551,0.03704834,0.8710327,-1.375,0.046875,0.0
14,-0.61621094,0.034362793,0.86761475,-0.125,0.359375,0.390625
15,-0.62060547,0.023864746,0.8678589,0.203125,-0.796875,0.703125
16,-0.61279297,0.031677246,0.8695679,-0.234375,-0.703125,0.5
17,-0.6254883,0.032165527,0.8788452,-1.09375,-0.875,0.09375
18,-0.62158203,0.019226074,0.8751831,-0.984375,0.359375,0.21875
19,-0.62060547,0.03363037,0.88079834,-1.5,1.40625,0.546875
20,-0.6188965,0.031677246,0.8666382,-1.203125,1.296875,0.859375
21,-0.61499023,0.029968262,0.86102295,-0.875,0.515625,0.328125
22,-0.623291,0.036315918,0.871521,-0.390625,-0.46875,0.28125
23,-0.62158203,0.03314209,0.8734741,-0.640625,0.046875,0.53125
24,-0.61499023,0.03656006,0.8668823,-1.21875,-0.328125,0.34375
25,-0.6147461,0.039733887,0.88275146,-0.921875,0.5,0.1875
26,-0.62109375,0.023620605,0.86102295,-2.734375,-0.03125,0.359375
27,-0.61499023,0.038513184,0.8690796,-2.40625,-0.359375,-0.40625
28,-0.61987305,0.047058105,0.87615967,-2.28125,-0.34375,-0.1875
29,-0.6262207,0.05609131,0.8668823,-1.640625,-1.1875,0.1875
30,-0.6262207,0.035339355,0.8673706,-1.3125,-0.96875,-0.203125
31,-0.6154785,0.035827637,0.8668823,-2.234375,-0.921875,-0.8125
32,-0.6230469,0.054382324,0.87713623,-3.234375,-0.796875,-0.78125
33,-0.6230469,0.06903076,0.871521,-1.796875,0.328125,-0.203125
34,-0.6242676,0.051452637,0.88201904,0.96875,0.875,1.109375
35,-0.61865234,0.04071045,0.90667725,3.265625,3.125,0.953125
36,-0.607666,0.035583496,0.88031006,6.046875,3.046875,0.421875
37,-0.6398926,0.04510498,0.88616943,5.46875,2.953125,0.359375
38,-0.6220703,0.023132324,0.8656616,4.171875,3.265625,0.328125
39,-0.60424805,0.034851074,0.86761475,2.296875,2.65625,0.5625
40,-0.6035156,0.0211792,0.87054443,1.328125,2.203125,1.171875
41,-0.60546875,0.025817871,0.86712646,0.25,1.21875,0.875
42,-0.59765625,0.032165527,0.87713623,0.078125,0.625,0.109375
43,-0.58691406,0.03363037,0.8551636,-1.296875,-1.21875,0.359375
44,-0.6101074,0.03314209,0.8722534,-1.1875,-0.828125,0.890625
45,-0.609375,0.028015137,0.8890991,-0.34375,1.65625,2.234375
46,-0.6062012,0.018493652,0.89520264,1.171875,-0.515625,2.3125
47,-0.6069336,0.02508545,0.88153076,-0.015625,-0.75,1.4375
48,-0.5864258,0.03753662,0.8751831,0.75,-1.578125,0.609375
49,-0.607666,0.010437012,0.887146,1.125,-1.859375,1.21875
50,-0.6135254,-0.0037231445,0.8786011,0.578125,-1.8125,0.765625
51,-0.61572266,0.010437012,0.8825073,-0.03125,-1.875,0.640625
52,-0.6176758,0.02557373,0.8764038,-1.125,-1.15625,1.140625
53,-0.6218262,0.014343262,0.88153076,-0.375,-0.40625,0.953125
54,-0.6171875,0.0036010742,0.8756714,-0.15625,-1.03125,0.59375
55,-0.6074219,0.018981934,0.8707886,-0.40625,-0.703125,0.125
56,-0.6159668,-0.00030517578,0.883728,0.21875,0.15625,0.1875
57,-0.611084,0.008239746,0.8798218,-0.15625,-0.203125,0.640625
58,-0.6130371,0.013122559,0.8812866,-0.015625,-0.25,0.765625
59,-0.61499023,0.0028686523,0.86883545,-0.34375,0.078125,0.546875
60,-0.61376953,0.020935059,0.87127686,-0.46875,0.09375,0.4375
61,-0.6274414,0.0014038086,0.88031006,1.109375,0.234375,0.9375
62,-0.62158203,0.00091552734,0.87615967,0.21875,0.109375,1.125
63,-0.61450195,0.019470215,0.8707886,-0.4375,0.546875,1.1875
64,-0.6088867,0.010437012,0.87176514,-0.765625,0.296875,0.640625
65,-0.60180664,0.01776123,0.8656616,-1.21875,0.03125,0.09375
66,-0.6188965,0.00091552734,0.87908936,-0.578125,-0.109375,0.078125
67,-0.6196289,0.0060424805,0.86639404,-1.28125,0.28125,0.265625
68,-0.61938477,0.010925293,0.8793335,-0.96875,0.203125,0.25
69,-0.6179199,0.0072631836,0.8744507,-0.65625,0.390625,0.5625
70,-0.61499023,0.010192871,0.8710327,-0.890625,0.1875,0.609375
71,-0.61035156,0.015319824,0.8798218,-0.90625,0.25,0.125
72,-0.62524414,0.014099121,0.87835693,-1.484375,-0.203125,-0.015625
73,-0.6105957,0.0065307617,0.87542725,-0.75,-0.09375,0.09375
74,-0.61328125,0.023864746,0.87298584,-1.203125,0.421875,0.28125
75,-0.62109375,0.016296387,0.8825073,-0.265625,0.4375,0.21875
76,-0.6130371,0.014099121,0.8812866,-0.421875,0.421875,0.53125
77,-0.6140137,0.022888184,0.8788452,-0.953125,0.0625,0.46875
78,-0.6164551,0.022155762,0.8768921,-0.59375,-0.34375,0.484375
79,-0.61035156,0.012634277,0.8781128,-0.875,0.03125,0.28125
80,-0.6135254,0.015563965,0.8798218,-0.796875,0.09375,0.109375
81,-0.61743164,0.020202637,0.871521,-1.609375,0.53125,0.28125
82,-0.6191406,0.02166748,0.88323975,-0.78125,-0.25,0.40625
83,-0.6044922,0.024353027,0.8695679,-1.421875,0.046875,0.1875
84,-0.61865234,0.015563965,0.89520264,-1.046875,0.15625,0.21875
85,-0.62231445,0.022155762,0.87371826,-1.734375,-0.375,-0.15625
86,-0.61035156,0.031921387,0.869812,-1.390625,0.484375,-0.453125
87,-0.60913086,0.02142334,0.88397217,-0.53125,0.453125,0.59375
88,-0.61450195,0.01776123,0.8781128,-0.734375,0.453125,0.875
89,-0.61083984,0.027038574,0.8805542,-0.828125,0.171875,0.1875
90,-0.609375,0.019714355,0.8756714,-0.984375,0.265625,0.28125
91,-0.61157227,0.025817871,0.8768921,-0.9375,0.03125,0.390625
92,-0.6027832,0.028747559,0.8793335,-0.734375,0.59375,0.40625
93,-0.61499023,0.01751709,0.8829956,-0.96875,0.765625,0.265625
94,-0.61035156,0.016540527,0.88568115,-0.84375,0.546875,0.59375
95,-0.6047363,0.039733887,0.87542725,-0.859375,-0.15625,0.4375
96,-0.6098633,0.022888184,0.90789795,0.4375,-0.25,0.109375
97,-0.6044922,0.0021362305,0.91204834,-2.640625,3.625,-1.453125
98,-0.5895996,0.061706543,0.85272217,-2.78125,2.328125,-3.234375
99,-0.60424805,0.039245605,0.9142456,3.078125,1.609375,-0.25
100,-0.6218262,0.010681152,0.87908936,2.234375,1.828125,0.984375
101,-0.5878906,0.027770996,0.88079834,0.90625,1.109375,-0.203125
102,-0.60839844,0.039978027,0.8759155,0.078125,-0.5,0.03125
103,-0.5944824,0.0524292,0.887146,-0.0625,-0.546875,0.234375
104,-0.58496094,0.043395996,0.857605,-1.25,-1.03125,0.28125
105,-0.61157227,0.020690918,0.8876343,-0.53125,0.4375,0.46875
106,-0.60302734,0.01776123,0.9020386,0.15625,0.171875,1.875
107,-0.6022949,0.026794434,0.89471436,0.421875,-1.234375,2.40625
108,-0.5998535,0.035827637,0.8847046,-0.234375,-1.9375,1.109375
109,-0.58935547,0.035095215,0.885437,-0.296875,-2.328125,0.484375
110,-0.5957031,0.026550293,0.88201904,-0.203125,-1.640625,0.296875
111,-0.61157227,0.019226074,0.88616943,0.109375,-1.140625,0.71875
112,-0.61206055,0.00970459,0.88616943,0.234375,-1.1875,0.921875
113,-0.6086426,0.022399902,0.8812866,-0.140625,-0.34375,0.734375
114,-0.607666,0.029968262,0.885437,-0.078125,-0.28125,0.984375
115,-0.61499023,0.024597168,0.87298584,0.171875,-0.25,0.921875
116,-0.6130371,0.024108887,0.8776245,0.09375,-0.375,0.46875
117,-0.6154785,0.01727295,0.8925171,0.21875,-0.125,0.59375
118,-0.6098633,0.018981934,0.88739014,-0.3125,-0.171875,0.546875
119,-0.61376953,0.023864746,0.8746948,-0.234375,-0.234375,0.5
120,-0.6086426,0.013366699,0.8734741,-0.140625,0.015625,0.5625
121,-0.61206055,0.018493652,0.86883545,-1.09375,-0.390625,0.34375
122,-0.6176758,0.020935059,0.8825073,-0.625,0.265625,0.390625
123,-0.61450195,0.0028686523,0.8851929,-0.859375,0.734375,0.34375
124,-0.611084,0.018981934,0.87542725,-0.90625,0.484375,0.671875
125,-0.61035156,0.031677246,0.8707886,-0.71875,0.375,0.734375
126,-0.6159668,0.022644043,0.8793335,0.421875,-0.03125,0.484375
127,-0.60791016,0.015319824,0.8788452,0.015625,-0.234375,0.453125
128,-0.6135254,0.014099121,0.8851929,-0.171875,-0.140625,0.34375
129,-0.609375,0.024108887,0.8805542,-0.390625,0.1875,0.53125
130,-0.6171875,0.018005371,0.8829956,0.015625,0.078125,0.828125
131,-0.60424805,0.014587402,0.87908936,-0.203125,0.765625,0.484375
132,-0.61083984,0.016784668,0.885437,-0.515625,0.0,0.515625
133,-0.6164551,0.019470215,0.87957764,-0.015625,-0.046875,0.515625
134,-0.60717773,0.013366699,0.8764038,-0.125,-0.0625,0.546875
135,-0.6022949,0.01727295,0.87786865,-0.546875,0.078125,0.296875
136,-0.609375,0.026794434,0.88446045,-0.71875,0.34375,0.578125
137,-0.6159668,0.012390137,0.89178467,0.0,-0.21875,0.609375
138,-0.6040039,0.007751465,0.8751831,-0.9375,0.546875,0.546875
139,-0.6098633,0.023864746,0.8876343,-1.296875,0.453125,0.140625
140,-0.6113281,0.02923584,0.87542725,-1.328125,0.15625,0.15625
141,-0.6142578,0.019470215,0.8781128,-0.671875,0.296875,-0.015625
142,-0.6088867,0.010925293,0.8851929,-0.0625,0.1875,0.421875
143,-0.61206055,0.03363037,0.87542725,-0.859375,0.109375,0.71875
144,-0.61035156,0.020690918,0.8834839,-0.078125,0.21875,0.578125
145,-0.6088867,0.023376465,0.8876343,-0.734375,0.21875,0.65625
146,-0.60791016,0.020690918,0.8834839,-0.875,-0.46875,0.40625
147,-0.6057129,0.016784668,0.869812,-0.921875,-0.09375,-0.109375
148,-0.6010742,0.030212402,0.87054443,-0.796875,0.203125,0.015625
149,-0.6135254,0.015563965,0.8825073,-0.109375,0.375,0.640625
150,-0.6057129,0.027282715,0.88079834,-0.53125,0.140625,0.765625
151,-0.61621094,0.024841309,0.8851929,-0.0625,0.03125,0.359375
152,-0.60961914,0.015563965,0.8788452,-0.5625,0.25,0.4375
153,-0.6105957,0.020202637,0.87323,-0.703125,0.09375,0.28125
154,-0.61376953,0.019714355,0.88616943,-0.5625,-0.109375,0.359375
155,-0.609375,0.022155762,0.88153076,-0.453125,0.046875,0.65625
156,-0.6152344,0.022155762,0.888855,-0.296875,-1.0625,0.046875
157,-0.6105957,0.026794434,0.8744507,-1.234375,-0.125,0.046875
158,-0.6152344,0.030944824,0.87323,-0.96875,0.859375,0.21875
159,-0.60375977,0.01727295,0.8710327,-1.046875,0.078125,0.578125
160,-0.6125488,0.020935059,0.8788452,-1.046875,-0.265625,0.03125
161,-0.6166992,0.018249512,0.8825073,-1.296875,0.25,-0.171875
162,-0.6142578,0.028503418,0.8847046,-1.890625,0.359375,0.15625
163,-0.6035156,0.038513184,0.88031006,-2.234375,0.328125,-0.03125
164,-0.6040039,0.032165527,0.88031006,-0.8125,0.765625,0.0625
165,-0.60058594,0.0211792,0.89349365,0.0,1.109375,0.3125
166,-0.5908203,0.024597168,0.90252686,-0.953125,8.671875,-1.40625
167,-0.58251953,0.04510498,0.90960693,2.328125,2.875,-1.34375
168,-0.62768555,0.01776123,0.89276123,3.359375,0.171875,0.46875
169,-0.60595703,0.024108887,0.87786865,2.171875,2.03125,-0.203125
170,-0.5788574,0.0289917,0.88397217,1.234375,0.984375,0.125
171,-0.5900879,0.03265381,0.8707886,-1.25,-0.03125,0.5625
172,-0.59033203,0.018981934,0.8908081,-0.921875,0.703125,0.046875
173,-0.5854492,0.03656006,0.8805542,-0.78125,-0.71875,0.359375
174,-0.5859375,0.035339355,0.888855,-0.09375,-0.703125,1.171875
175,-0.5991211,0.012390137,0.92303467,0.484375,0.03125,2.0
176,-0.5932617,0.023620605,0.89520264,0.4375,-3.34375,1.984375
177,-0.59521484,0.02923584,0.8883667,-0.4375,-4.0,1.015625
178,-0.59716797,0.019714355,0.8915405,0.15625,-3.09375,0.5
179,-0.6081543,0.020690918,0.8812866,-0.5625,-2.828125,0.40625
180,-0.6062012,0.014587402,0.8707886,-0.359375,-1.328125,0.109375
181,-0.6064453,0.01776123,0.8864136,-0.171875,-1.140625,0.390625
182,-0.6218262,0.010437012,0.88934326,0.171875,-0.671875,1.125
183,-0.61206055,0.03265381,0.8776245,-0.25,-0.578125,0.796875
184,-0.6118164,0.023864746,0.87664795,-0.15625,-0.90625,0.46875
185,-0.61279297,0.0072631836,0.8756714,0.125,-0.71875,0.46875
186,-0.6130371,0.018981934,0.88031006,-0.515625,-0.125,0.4375
187,-0.61572266,0.0138549805,0.8890991,-0.421875,-0.34375,0.4375
188,-0.6159668,0.012634277,0.8798218,-0.28125,-0.03125,0.5625
189,-0.6125488,0.015563965,0.8768921,-0.390625,0.265625,0.765625
190,-0.6081543,0.018249512,0.8746948,-0.34375,0.046875,0.609375
191,-0.6086426,0.016052246,0.88446045,-0.09375,-0.28125,0.4375
192,-0.6142578,0.010192871,0.87615967,-0.09375,-0.203125,0.484375
193,-0.6152344,0.012878418,0.8739624,-0.4375,-0.171875,0.453125
194,-0.61450195,0.016784668,0.87957764,-0.375,0.28125,0.609375
195,-0.60913086,0.015319824,0.871521,-0.625,0.453125,0.578125
196,-0.6230469,0.009216309,0.8817749,-0.640625,0.109375,0.609375
197,-0.6105957,0.020202637,0.88201904,-0.890625,0.65625,0.015625
198,-0.6203613,0.0048217773,0.8954468,-0.34375,1.0625,0.203125
199,-0.61157227,0.024353027,0.8810425,-0.921875,-0.203125,0.875
200,-0.61376953,0.024841309,0.8756714,-0.546875,0.15625,0.546875
201,-0.6208496,0.009216309,0.8800659,-0.8125,0.46875,0.71875
202,-0.60424805,0.0065307617,0.87005615,-1.171875,-0.125,0.171875
203,-0.60791016,0.018737793,0.8812866,-0.5625,0.34375,0.09375
204,-0.61157227,0.01361084,0.88153076,-0.234375,0.265625,0.609375
205,-0.6147461,0.010681152,0.8793335,-0.390625,-0.046875,0.421875
206,-0.60595703,0.025817871,0.8788452,-0.375,0.109375,0.28125
207,-0.6171875,0.016784668,0.8834839,-0.296875,0.265625,0.625
208,-0.6057129,0.020446777,0.8759155,-0.703125,0.328125,0.578125
209,-0.6015625,0.022399902,0.87713623,-0.40625,0.203125,0.296875
210,-0.6135254,0.010437012,0.88275146,-0.125,-0.109375,0.53125
211,-0.6123047,0.010681152,0.8746948,-0.4375,0.25,0.5
212,-0.6113281,0.020935059,0.88616943,-0.015625,0.0,0.40625
213,-0.6105957,0.0119018555,0.8842163,-0.5,0.234375,0.8125
214,-0.6086426,0.023620605,0.89642334,-0.140625,-0.0625,0.453125
215,-0.60913086,0.017028809,0.87786865,-0.6875,-0.171875,0.53125
216,-0.6142578,0.012634277,0.8800659,-0.921875,0.09375,-0.046875
217,-0.61206055,0.0072631836,0.8878784,-0.125,0.171875,0.34375
218,-0.60913086,0.0211792,0.8746948,-1.203125,0.484375,0.640625
219,-0.61499023,0.028503418,0.88153076,-1.09375,0.328125,0.328125
220,-0.6123047,0.015808105,0.88739014,-1.25,0.5625,0.40625
221,-0.60375977,0.015808105,0.88031006,-0.609375,0.28125,0.28125
222,-0.59936523,0.016540527,0.8776245,-1.40625,0.6875,0.078125
223,-0.60302734,0.026306152,0.8829956,-2.28125,-1.296875,-0.03125
224,-0.6052246,0.020935059,0.8817749,-2.78125,-0.96875,-0.859375
225,-0.61572266,0.03729248,0.89056396,-1.4375,-0.59375,-0.796875
226,-0.61694336,0.02508545,0.8864136,-0.6875,0.609375,0.375
227,-0.61499023,0.023864746,0.87908936,-0.265625,1.375,0.796875
228,-0.6047363,0.024108887,0.88812256,-0.140625,1.125,1.1875
229,-0.5986328,0.022644043,0.8817749,-0.859375,0.125,0.734375
230,-0.6088867,0.03729248,0.8788452,-0.484375,0.078125,0.171875
231,-0.6101074,0.03314209,0.8756714,-0.171875,0.28125,0.328125
232,-0.61035156,0.020202637,0.8817749,0.125,0.5625,0.5625
233,-0.6086426,0.026062012,0.8805542,-0.203125,0.421875,0.890625
234,-0.6098633,0.023376465,0.8920288,-0.078125,0.328125,0.859375
235,-0.60913086,0.020202637,0.88079834,-0.5625,-0.359375,0.578125
236,-0.6044922,0.027526855,0.88690186,-1.953125,-0.046875,-0.125
237,-0.60302734,0.03729248,0.87298584,-1.890625,-0.171875,-0.34375
238,-0.6040039,0.028015137,0.8759155,-0.953125,0.625,-0.1875
239,-0.60668945,0.018737793,0.89276123,0.21875,0.46875,0.609375
240,-0.61572266,0.024597168,0.9081421,-0.359375,1.640625,0.015625
241,-0.5908203,0.04168701,0.87493896,-0.25,2.9375,-1.625
242,-0.6015625,0.034851074,0.9137573,3.1875,2.0,-0.265625
243,-0.6208496,0.017028809,0.88153076,3.75,0.75,1.125
244,-0.5925293,0.0138549805,0.8781128,1.78125,-0.125,0.28125
245,-0.60009766,0.022644043,0.8786011,0.671875,-0.359375,-0.25
246,-0.59716797,0.027770996,0.87420654,0.015625,-0.859375,0.28125
247,-0.5991211,0.027038574,0.87786865,0.4375,-2.0,0.265625
248,-0.60546875,0.020690918,0.86883545,-0.625,-1.921875,0.46875
249,-0.6062012,0.015075684,0.8710327,-1.484375,0.453125,0.53125
250,-0.6035156,0.018981934,0.8920288,0.1875,0.171875,1.765625
251,-0.6123047,0.007507324,0.899353,1.0,-1.265625,2.609375
252,-0.61083984,0.0119018555,0.8895874,0.078125,-1.515625,1.328125
253,-0.5942383,0.016052246,0.87786865,-0.328125,-0.984375,0.203125
254,-0.6086426,0.020690918,0.8834839,0.203125,-1.359375,0.65625
255,-0.6152344,0.0004272461,0.88397217,0.3125,-0.71875,1.03125
256,-0.60424805,0.022155762,0.8890991,-0.390625,-0.421875,0.484375
257,-0.6208496,0.0072631836,0.87835693,0.03125,-1.28125,0.609375
258,-0.6125488,0.010681152,0.8773804,-0.109375,-0.359375,0.5
259,-0.609375,0.016540527,0.87542725,-0.40625,-0.234375,0.21875
260,-0.6159668,0.015075684,0.8773804,-0.375,-0.75,0.46875
261,-0.6254883,0.0067749023,0.87786865,-0.328125,-0.703125,0.609375
262,-0.61206055,0.011657715,0.88275146,-0.46875,-0.125,0.484375
263,-0.6088867,0.012634277,0.8788452,-0.34375,-0.515625,0.703125
264,-0.62060547,0.013122559,0.87323,-0.125,0.328125,0.671875
265,-0.6171875,0.0079956055,0.8810425,-0.21875,0.375,0.59375
266,-0.62060547,0.010437012,0.8764038,-0.515625,-0.125,0.34375
267,-0.61279297,0.015319824,0.87908936,-0.59375,0.3125,0.171875
268,-0.62158203,0.011657715,0.885437,-0.25,0.203125,0.578125
269,-0.6135254,0.008483887,0.8707886,-0.25,-0.078125,0.421875
270,-0.6203613,0.0072631836,0.87835693,-0.421875,0.296875,0.46875
271,-0.6184082,0.010925293,0.8773804,-0.5625,0.171875,0.515625
272,-0.61376953,0.0138549805,0.87176514,-0.40625,0.3125,0.671875
273,-0.61083984,0.0072631836,0.8751831,-0.40625,0.578125,0.578125
274,-0.62060547,0.011413574,0.8859253,-0.265625,-0.328125,0.78125
275,-0.6088867,0.005554199,0.8786011,-0.28125,-0.03125,0.53125
276,-0.6052246,0.019714355,0.87127686,-1.4375,0.53125,0.015625
277,-0.61621094,0.019470215,0.87786865,-0.984375,-0.046875,0.421875
278,-0.61694336,0.007019043,0.8734741,-0.59375,0.09375,0.28125
279,-0.6074219,0.008728027,0.8734741,-0.78125,0.203125,0.140625
280,-0.6125488,0.012390137,0.8744507,-0.984375,0.296875,0.265625
281,-0.6196289,0.01727295,0.8734741,-0.671875,0.0625,0.578125
282,-0.6105957,0.007751465,0.87542725,-0.421875,0.265625,0.484375
283,-0.6142578,0.015319824,0.8720093,-0.828125,-0.078125,0.4375
284,-0.6166992,0.0119018555,0.8788452,-0.375,0.0625,0.46875
285,-0.6123047,0.015075684,0.868103,-0.234375,0.234375,0.34375
286,-0.61499023,0.0138549805,0.8756714,-0.515625,0.078125,0.296875
287,-0.6188965,0.006286621,0.8800659,-0.65625,0.234375,0.484375
288,-0.6123047,0.018737793,0.8768921,-0.734375,0.171875,0.328125
289,-0.6166992,0.017028809,0.8847046,-0.46875,0.421875,0.421875
290,-0.6140137,0.009460449,0.8746948,-0.484375,0.25,0.5625
291,-0.61157227,0.01727295,0.88568115,-0.6875,-0.234375,0.015625
292,-0.6123047,0.0119018555,0.883728,-0.578125,-0.234375,0.1875
293,-0.61987305,0.008728027,0.88079834,-1.359375,0.109375,0.25
294,-0.60424805,0.015075684,0.8786011,-1.140625,-0.21875,-0.171875
295,-0.60961914,0.02923584,0.8764038,-1.171875,0.046875,0.140625
296,-0.61743164,0.011413574,0.8864136,-1.390625,0.515625,0.703125
297,-0.60717773,0.016784668,0.8649292,-2.40625,0.515625,-0.25
298,-0.6008301,0.018737793,0.8842163,-1.125,0.875,-0.015625
299,-0.60717773,0.029724121,0.8720093,-1.984375,0.421875,0.265625
300,-0.6057129,0.030212402,0.8800659,-0.765625,0.390625,-0.21875
301,-0.6152344,0.014587402,0.8800659,-0.59375,0.15625,0.3125
302,-0.6098633,0.026794434,0.8734741,-1.1875,0.171875,0.34375
303,-0.61083984,0.031677246,0.87664795,-0.765625,0.671875,0.28125
304,-0.6088867,0.035095215,0.87835693,-0.296875,0.203125,0.65625
305,-0.6040039,0.014099121,0.8915405,-0.359375,0.484375,0.703125
306,-0.6057129,0.02532959,0.8798218,-0.9375,0.125,0.140625
307,-0.6062012,0.030700684,0.8786011,-0.34375,0.21875,0.09375
308,-0.6088867,0.026794434,0.89276123,0.109375,0.28125,0.375
309,-0.59814453,0.016296387,0.9113159,-0.984375,4.5,-0.609375
310,-0.5854492,0.023132324,0.8930054,-0.171875,4.625,-1.359375
311,-0.60717773,0.027038574,0.90179443,1.015625,0.859375,-0.875
312,-0.6208496,0.031433105,0.88397217,0.921875,-0.015625,-0.671875
313,-0.6020508,0.03656006,0.8822632,1.53125,0.796875,-0.171875
314,-0.59228516,0.034606934,0.87786865,0.8125,-1.015625,0.71875
315,-0.6035156,0.03265381,0.8722534,1.234375,-1.546875,0.65625
316,-0.5986328,0.027282715,0.87005615,-0.078125,-1.5625,0.890625
317,-0.6062012,0.026306152,0.8751831,-0.71875,-0.921875,0.828125
318,-0.5925293,0.020446777,0.8756714,-0.21875,1.453125,1.484375
319,-0.6022949,0.022155762,0.89105225,0.625,-1.640625,2.40625
320,-0.6086426,0.015075684,0.88739014,0.328125,-1.53125,1.75
321,-0.5827637,0.0211792,0.885437,0.09375,-1.109375,0.453125
322,-0.5983887,0.010925293,0.8912964,0.34375,-1.359375,0.5
323,-0.61499023,0.01727295,0.8781128,-0.21875,-1.3125,0.984375
324,-0.6086426,0.010925293,0.8776245,0.140625,-0.875,0.703125
325,-0.6101074,0.010192871,0.888855,0.234375,-0.921875,0.96875
326,-0.60668945,0.0033569336,0.88031006,0.03125,-0.375,0.8125
327,-0.607666,0.025817871,0.8759155,-0.5625,-0.71875,0.296875
328,-0.6135254,0.010925293,0.8810425,0.0,-0.734375,0.390625
329,-0.61376953,-0.0025024414,0.8800659,-0.203125,-0.515625,0.421875
330,-0.61499023,0.01727295,0.8805542,-0.640625,-0.078125,0.578125
331,-0.6179199,0.010192871,0.8822632,-0.6875,-0.046875,0.625
332,-0.6159668,0.012878418,0.8746948,-1.265625,-0.203125,0.671875
333,-0.61376953,0.016296387,0.87176514,-0.875,-0.4375,0.328125
334,-0.61816406,0.011657715,0.87908936,-0.671875,-0.125,0.421875
335,-0.60913086,0.01727295,0.87005615,-0.65625,0.25,0.34375
336,-0.6159668,0.008728027,0.88031006,-0.015625,0.09375,0.375
337,-0.60913086,0.0045776367,0.8720093,-0.765625,0.1875,0.515625
338,-0.6152344,0.01776123,0.87957764,-0.65625,0.171875,0.359375
339,-0.6113281,0.023864746,0.8786011,-0.953125,0.15625,0.203125
340,-0.61279297,0.014099121,0.8751831,-1.015625,0.21875,0.046875
341,-0.60839844,0.0138549805,0.87420654,-0.6875,0.390625,0.453125
342,-0.6164551,0.01776123,0.8793335,-0.796875,0.125,0.75
343,-0.611084,0.026306152,0.8825073,-0.5,0.234375,0.46875
344,-0.61328125,0.006286621,0.8900757,0.140625,0.25,0.859375
345,-0.61157227,0.010437012,0.87713623,-0.71875,0.28125,0.484375
346,-0.6015625,0.018493652,0.871521,-0.96875,0.59375,0.171875
347,-0.6179199,0.019958496,0.88397217,-0.859375,-0.03125,0.46875
348,-0.6154785,0.01727295,0.8864136,-0.5,0.28125,0.375
349,-0.61694336,0.01727295,0.88031006,-0.3125,-0.015625,0.53125
350,-0.60791016,0.015808105,0.8685913,-1.171875,0.390625,0.296875
351,-0.61328125,0.023620605,0.8798218,-0.578125,0.140625,0.234375
352,-0.61083984,0.015319824,0.87957764,-0.421875,-0.125,0.484375
353,-0.6105957,0.012634277,0.8776245,-0.625,-0.09375,0.296875
354,-0.60546875,0.024841309,0.87371826,-0.515625,0.234375,0.375
355,-0.61328125,0.020202637,0.88446045,-0.0625,0.171875,0.578125
356,-0.61206055,0.012634277,0.87249756,-0.765625,0.171875,0.4375
357,-0.6105957,0.023376465,0.89593506,-0.296875,0.3125,0.21875
358,-0.6142578,0.023864746,0.8776245,-1.140625,-0.0625,0.1875
359,-0.6062012,0.024108887,0.8746948,-1.65625,0.34375,-0.296875
360,-0.6147461,0.012145996,0.88275146,-0.734375,0.1875,0.1875
361,-0.6047363,0.014831543,0.87786865,-1.1875,1.015625,0.578125
362,-0.6052246,0.0138549805,0.8764038,-1.296875,0.484375,0.25
363,-0.60961914,0.025817871,0.89056396,-1.53125,-0.09375,0.109375
364,-0.61743164,0.026062012,0.88616943,-1.171875,-0.578125,0.078125
365,-0.61157227,0.018249512,0.8805542,-1.078125,0.484375,-0.015625
366,-0.6035156,0.034362793,0.87664795,-1.265625,0.3125,-0.03125
367,-0.6147461,0.019714355,0.8883667,-0.0625,-0.03125,0.375
368,-0.6123047,0.0211792,0.8798218,-0.5,-0.046875,0.421875
369,-0.6081543,0.032409668,0.87786865,-0.9375,-0.140625,0.234375
370,-0.61450195,0.03265381,0.8851929,-0.4375,-0.140625,0.21875
371,-0.6015625,0.023376465,0.8727417,-0.3125,-0.421875,0.5
372,-0.60546875,0.032409668,0.8773804,-0.65625,-0.484375,0.09375
373,-0.6113281,0.02532959,0.8859253,0.234375,0.296875,0.34375
374,-0.6118164,0.028747559,0.8825073,-0.46875,0.21875,0.734375
375,-0.6040039,0.031677246,0.8793335,-0.625,-1.46875,0.015625
376,-0.62231445,0.02508545,0.8756714,-1.609375,-1.53125,-0.125
377,-0.6086426,0.043151855,0.8851929,-1.578125,-0.28125,-0.65625
378,-0.6125488,0.030700684,0.8829956,-1.890625,1.578125,0.03125
379,-0.6057129,0.038513184,0.86273193,-2.28125,2.078125,-0.09375
380,-0.61816406,0.042419434,0.8932495,-0.765625,-0.0625,-0.09375
381,-0.6154785,0.03265381,0.8866577,-0.859375,0.421875,0.265625
382,-0.6062012,0.0524292,0.8786011,-1.328125,1.203125,0.578125
383,-0.60424805,0.038269043,0.8978882,0.140625,3.015625,0.296875
384,-0.5678711,0.034118652,0.8822632,1.125,5.71875,-0.3125
385,-0.6047363,0.020690918,0.9142456,3.953125,1.5,0.71875
386,-0.626709,0.02142334,0.9015503,4.0625,0.109375,0.578125
387,-0.6074219,0.03363037,0.89764404,2.1875,1.3125,-0.15625
388,-0.58447266,0.042175293,0.8805542,1.3125,0.015625,0.28125
389,-0.5913086,0.027770996,0.8739624,0.859375,-0.1875,1.015625
390,-0.5998535,0.015808105,0.88031006,0.546875,-1.203125,0.890625
391,-0.58618164,0.015808105,0.8673706,-0.390625,-1.53125,0.5625
392,-0.5925293,0.020202637,0.8812866,-0.765625,-0.703125,0.8125
393,-0.5961914,0.0211792,0.89349365,-0.8125,0.21875,1.78125
394,-0.6057129,0.024108887,0.8925171,-0.484375,-1.75,1.578125
395,-0.6105957,0.017028809,0.8903198,-0.203125,-2.984375,0.84375
396,-0.5839844,0.016784668,0.871521,-0.59375,-1.203125,0.34375
397,-0.59814453,0.016784668,0.8847046,0.0625,-2.359375,0.84375
398,-0.6101074,0.012878418,0.885437,0.296875,-1.125,0.6875
399,-0.61328125,0.007507324,0.8859253,0.234375,-0.65625,0.46875
400,-0.6135254,0.0211792,0.8864136,0.3125,-0.671875,0.90625
401,-0.6098633,0.018249512,0.8734741,-0.078125,-0.140625,1.109375
402,-0.6088867,0.013366699,0.8810425,-0.25,-0.171875,0.34375
403,-0.6098633,0.018737793,0.87835693,-0.203125,-0.703125,0.5
404,-0.6171875,0.003112793,0.88690186,0.03125,-0.359375,0.53125
405,-0.61035156,0.0099487305,0.87420654,-0.359375,0.03125,0.40625
406,-0.6022949,0.016052246,0.8842163,-0.640625,-0.25,0.453125
407,-0.60424805,0.020690918,0.8773804,-0.515625,-0.21875,0.453125
408,-0.6125488,0.015563965,0.8776245,-0.265625,-0.3125,0.359375
409,-0.62353516,0.008239746,0.87420654,-0.265625,-0.046875,0.6875
410,-0.62109375,0.010681152,0.8776245,-0.28125,0.5,0.46875
411,-0.60717773,0.01776123,0.8759155,-0.59375,0.328125,0.375
412,-0.609375,0.017028809,0.8805542,-0.53125,0.21875,0.5625
413,-0.61621094,0.01776123,0.8825073,-0.1875,-0.296875,0.578125
414,-0.6062012,0.0033569336,0.8685913,-0.65625,0.34375,0.640625
415,-0.6166992,0.0079956055,0.87713623,-0.53125,0.21875,0.484375
416,-0.6105957,0.011657715,0.87371826,-1.046875,0.171875,0.328125
417,-0.61328125,0.015808105,0.8722534,-0.9375,0.203125,0.171875
418,-0.61376953,0.0138549805,0.88812256,-0.015625,-0.15625,0.46875
419,-0.6125488,0.0048217773,0.87835693,-1.0,0.09375,0.65625
420,-0.607666,0.024108887,0.87835693,-0.828125,0.390625,0.140625
421,-0.6130371,0.01727295,0.88275146,-0.265625,0.046875,0.671875
422,-0.611084,0.013366699,0.87908936,-0.34375,0.28125,0.578125
423,-0.60180664,0.014343262,0.871521,-0.796875,0.25,0.15625
424,-0.6166992,0.015563965,0.8842163,-0.9375,-0.03125,0.1875
425,-0.6064453,0.018005371,0.8822632,-0.859375,0.25,0.25
426,-0.6088867,0.009460449,0.8734741,-0.71875,-0.078125,0.484375
427,-0.6130371,0.018249512,0.8768921,-0.53125,0.015625,0.328125
428,-0.6201172,0.011169434,0.88323975,-0.640625,0.203125,0.359375
429,-0.6118164,0.012634277,0.88397217,-0.5,-0.09375,0.40625
430,-0.6142578,0.010437012,0.868103,-0.828125,0.0625,0.40625
431,-0.6147461,0.018249512,0.88031006,-0.6875,0.328125,0.453125
432,-0.60498047,0.028259277,0.8759155,-0.71875,-0.140625,0.34375
433,-0.6191406,0.009216309,0.8817749,-0.40625,-0.25,0.5625
434,-0.6074219,0.022644043,0.88201904,-0.6875,-0.046875,0.125
435,-0.6098633,0.026306152,0.8727417,-1.453125,-0.421875,-0.046875
436,-0.6164551,0.02532959,0.8773804,-1.453125,0.0625,0.09375
437,-0.61083984,0.015563965,0.87908936,0.515625,-0.65625,0.265625
438,-0.6130371,0.0067749023,0.8851929,0.1875,-0.296875,0.828125
439,-0.61328125,0.024108887,0.8773804,-0.890625,0.265625,0.34375
440,-0.611084,0.028747559,0.87835693,-0.953125,0.171875,0.4375
441,-0.6176758,0.019714355,0.87908936,-0.1875,-1.03125,0.265625
442,-0.61450195,0.008728027,0.8764038,-0.3125,-0.375,0.171875
443,-0.61621094,0.02508545,0.8703003,-0.96875,0.21875,0.0625
444,-0.6208496,0.03289795,0.8727417,-0.53125,-0.015625,0.234375
445,-0.6176758,0.020690918,0.8822632,-0.046875,-0.75,0.328125
446,-0.6225586,0.012390137,0.87835693,-0.0625,-0.984375,0.453125
447,-0.6218262,0.020446777,0.87249756,-0.828125,-0.375,0.078125
448,-0.60791016,0.025817871,0.86834717,-1.078125,0.25,0.203125
449,-0.61328125,0.028015137,0.8707886,-0.828125,-0.234375,0.375
450,-0.6257324,0.011413574,0.88031006,-0.421875,-0.4375,0.296875
451,-0.61865234,0.025817871,0.8829956,-1.328125,-0.4375,-0.25
452,-0.61865234,0.039978027,0.86712646,-1.265625,0.234375,0.078125
453,-0.6164551,0.024353027,0.8756714,-0.421875,-0.65625,0.546875
454,-0.61865234,0.020446777,0.8720093,-0.375,-1.34375,0.21875
455,-0.6201172,0.017028809,0.89276123,-0.140625,-0.5625,-0.1875
456,-0.6220703,0.031188965,0.8619995,-1.78125,-0.515625,-0.171875
457,-0.61743164,0.039489746,0.869812,-1.375,-1.046875,-0.5
458,-0.62353516,0.018981934,0.8727417,-0.484375,-0.59375,0.046875
459,-0.6254883,0.020690918,0.87127686,-0.984375,-0.484375,0.5
460,-0.63378906,0.034606934,0.8644409,-0.90625,-0.3125,-0.046875
461,-0.6281738,0.043395996,0.871521,-0.421875,0.015625,0.296875
462,-0.62524414,0.030456543,0.87054443,0.171875,0.015625,0.765625
463,-0.62939453,0.027038574,0.8624878,0.0625,-0.046875,0.5
464,-0.6296387,0.031677246,0.87005615,-0.1875,-0.640625,0.375
465,-0.6352539,0.027770996,0.87323,-0.53125,-0.328125,0.28125
466,-0.625,0.0368042,0.87005615,-0.78125,-0.359375,0.34375
467,-0.6274414,0.035339355,0.86053467,-0.09375,-1.8125,0.40625
468,-0.63305664,0.021911621,0.8673706,-0.21875,-1.375,0.234375
469,-0.6303711,0.026306152,0.86053467,-1.140625,-0.609375,0.40625
470,-0.6286621,0.039489746,0.87054443,-0.78125,-0.0625,0.234375
471,-0.63671875,0.034606934,0.87005615,-0.359375,-0.71875,0.53125
472,-0.63012695,0.02923584,0.8632202,-1.453125,-1.078125,0.484375
473,-0.6298828,0.02557373,0.8637085,-1.828125,-0.21875,-0.1875
474,-0.62890625,0.04510498,0.86468506,-1.671875,1.625,0.171875
475,-0.6274414,0.0368042,0.8654175,-0.171875,2.265625,0.921875
476,-0.63256836,0.03289795,0.90838623,3.546875,2.078125,0.859375
477,-0.6064453,0.018737793,0.85321045,3.8125,3.90625,1.40625
478,-0.6430664,0.013122559,0.88812256,3.21875,4.171875,0.6875
479,-0.62890625,0.018493652,0.8768921,1.59375,1.59375,-0.03125
480,-0.6257324,0.019958496,0.8602905,-0.75,1.484375,-0.234375
481,-0.6286621,0.029724121,0.857605,1.71875,0.234375,0.1875
482,-0.61035156,0.024841309,0.86761475,0.703125,-3.203125,1.078125
483,-0.61816406,0.01727295,0.86151123,0.328125,-1.953125,0.3125
484,-0.60375977,0.018981934,0.85809326,-1.328125,-0.671875,0.078125
485,-0.6335449,0.02532959,0.86224365,-2.28125,0.875,0.625
486,-0.62060547,0.02166748,0.89764404,-1.078125,2.234375,1.359375
487,-0.62158203,0.011657715,0.88397217,-0.3125,1.40625,2.125
488,-0.6123047,0.02166748,0.87298584,0.109375,-0.1875,1.328125
489,-0.6064453,0.018249512,0.8756714,-0.03125,-0.75,0.859375
490,-0.6142578,0.011657715,0.8781128,0.359375,-0.71875,0.78125
491,-0.61694336,0.005554199,0.8678589,-0.296875,-0.15625,0.78125
492,-0.6213379,0.016540527,0.87908936,-0.6875,0.109375,0.609375
493,-0.61865234,0.0079956055,0.89105225,0.046875,0.171875,1.09375
494,-0.6164551,0.01361084,0.86151123,-1.359375,0.5,0.875
495,-0.6196289,0.018005371,0.8695679,-0.609375,-0.4375,0.140625
496,-0.611084,0.019470215,0.87127686,-0.890625,-0.078125,-0.09375
497,-0.6203613,0.014587402,0.8773804,-0.09375,0.28125,0.234375
498,-0.61572266,0.008483887,0.87786865,-0.109375,0.125,0.65625
499,-0.6196289,0.013122559,0.87493896,-0.6875,0.265625,0.53125
500,-0.6147461,0.018737793,0.87493896,-0.296875,0.140625,0.6875
501,-0.6159668,0.018493652,0.87420654,-0.4375,0.265625,0.375
502,-0.6191406,0.013122559,0.87493896,-0.375,0.109375,0.515625
503,-0.61694336,0.01751709,0.8739624,-0.59375,0.140625,0.28125
504,-0.6201172,0.010681152,0.8805542,-0.1875,-0.0625,0.359375
505,-0.61938477,0.012145996,0.8786011,-0.796875,0.28125,0.484375
506,-0.60839844,0.026794434,0.87249756,-0.8125,0.21875,0.375
507,-0.6218262,0.01751709,0.86834717,-0.640625,0.265625,0.75
508,-0.6176758,0.015563965,0.87713623,-0.046875,0.265625,0.625
509,-0.6154785,0.0060424805,0.87493896,-0.609375,0.203125,0.421875
510,-0.6166992,0.014343262,0.87615967,-0.78125,0.265625,0.3125
511,-0.6201172,0.018005371,0.8744507,-0.34375,0.09375,0.40625
512,-0.626709,0.00579834,0.8756714,-0.296875,0.328125,0.5
513,-0.6064453,0.012145996,0.8629761,-1.375,0.734375,0.203125
514,-0.6159668,0.02142334,0.8759155,-1.21875,0.234375,0.328125
515,-0.61572266,0.019714355,0.87493896,-0.953125,0.078125,0.234375
516,-0.61694336,0.010925293,0.88323975,-0.359375,0.140625,0.125
517,-0.6064453,0.0072631836,0.88153076,-1.015625,0.171875,0.46875
518,-0.61499023,0.02947998,0.8722534,-1.03125,0.15625,0.15625
519,-0.6098633,0.018981934,0.88031006,-0.953125,0.65625,0.453125
520,-0.611084,0.018249512,0.88861084,-0.609375,0.234375,0.484375
521,-0.6179199,0.007751465,0.8847046,-0.828125,0.25,0.375
522,-0.60791016,0.020446777,0.8764038,-1.0,0.546875,0.09375
523,-0.61206055,0.025817871,0.87835693,-1.375,0.390625,0.125
524,-0.6188965,0.025817871,0.88934326,-0.65625,0.421875,0.5
525,-0.61279297,0.0138549805,0.8817749,-0.96875,0.0625,0.4375
526,-0.6147461,0.02557373,0.8710327,-1.53125,0.03125,-0.09375
527,-0.6074219,0.028259277,0.8759155,-1.234375,0.53125,-0.09375
528,-0.60791016,0.027770996,0.87420654,-0.5625,-0.015625,0.34375
529,-0.6171875,0.015808105,0.88275146,-0.359375,0.375,0.59375
530,-0.607666,0.023376465,0.88397217,-1.09375,0.25,0.21875
531,-0.6152344,0.034118652,0.8817749,-0.328125,0.0625,0.265625
532,-0.6125488,0.019470215,0.87615967,-0.1875,-0.203125,0.609375
533,-0.6130371,0.021911621,0.88568115,-0.59375,-0.34375,0.21875
534,-0.61157227,0.034362793,0.87127686,-1.90625,-0.578125,-0.21875
535,-0.6154785,0.03338623,0.88153076,-1.296875,-0.515625,-0.328125
536,-0.61206055,0.02557373,0.87542725,-1.625,-0.140625,-0.046875
537,-0.6123047,0.039489746,0.8685913,-2.109375,-0.296875,-0.0625
538,-0.6159668,0.04510498,0.88739014,-0.96875,-0.140625,0.265625
539,-0.6171875,0.03363037,0.8847046,-0.609375,0.3125,0.328125
540,-0.61450195,0.031921387,0.8759155,-1.0,0.1875,0.1875
541,-0.60961914,0.0446167,0.86932373,-0.40625,1.015625,0.234375
542,-0.6088867,0.048034668,0.88568115,1.375,0.390625,0.84375
543,-0.6135254,0.01727295,0.9242554,2.75,3.203125,0.125
544,-0.60009766,0.015808105,0.8817749,1.75,2.59375,-0.484375
545,-0.6225586,0.03753662,0.89837646,1.703125,2.953125,-0.59375
546,-0.6140137,0.024597168,0.8629761,1.1875,1.875,0.1875
547,-0.5957031,0.027282715,0.87420654,0.765625,0.734375,-0.015625
548,-0.60009766,0.028259277,0.8773804,0.25,-1.0,0.078125
549,-0.60058594,0.034606934,0.8817749,0.046875,-0.765625,0.171875
550,-0.5986328,0.031677246,0.86834717,-0.359375,-1.109375,0.421875
551,-0.5998535,0.029968262,0.8668823,-1.0625,-1.1875,0.890625
552,-0.59887695,0.021911621,0.88275146,-0.3125,0.859375,1.5625
553,-0.6154785,0.009216309,0.90448,0.6875,-0.484375,3.046875
554,-0.61694336,0.02557373,0.8829956,-0.5,-2.59375,1.5625
555,-0.6044922,0.030700684,0.8776245,-0.40625,-1.578125,-0.21875
556,-0.59887695,0.023132324,0.8788452,0.3125,-1.28125,0.359375
557,-0.61621094,0.017028809,0.88153076,-0.046875,-0.96875,1.1875
558,-0.61157227,0.014587402,0.8768921,-0.171875,-0.984375,0.6875
559,-0.6171875,0.0138549805,0.8859253,-0.328125,-0.71875,0.609375
560,-0.6140137,0.019470215,0.88201904,-0.78125,-0.109375,0.796875
561,-0.6125488,0.020935059,0.87298584,-0.484375,-0.203125,0.421875
562,-0.6140137,0.0211792,0.8751831,-0.328125,-0.421875,0.140625
563,-0.61938477,0.008728027,0.88323975,0.296875,-0.34375,0.59375
564,-0.61816406,0.008972168,0.8817749,-0.171875,-0.21875,0.671875
565,-0.6035156,0.024841309,0.8756714,-0.3125,0.1875,0.671875
566,-0.6176758,0.016052246,0.8788452,0.09375,-0.03125,0.765625
567,-0.6118164,0.012634277,0.869812,0.140625,-0.203125,0.546875
568,-0.6159668,0.020690918,0.8722534,-0.546875,0.109375,0.375
569,-0.6303711,0.0065307617,0.8793335,0.125,-0.1875,0.609375
570,-0.61450195,0.008972168,0.8703003,-0.484375,0.21875,0.671875
571,-0.6166992,0.012390137,0.8781128,-0.3125,0.09375,0.3125
572,-0.6118164,0.0211792,0.8751831,-1.5625,0.328125,0.171875
573,-0.6171875,0.008483887,0.8786011,-1.53125,0.421875,-0.078125
574,-0.6101074,0.010925293,0.8788452,-1.0,0.046875,0.15625
575,-0.6118164,0.023620605,0.8722534,-1.0,0.484375,0.5625
576,-0.61938477,0.02557373,0.8727417,0.03125,0.078125,0.5625
577,-0.61083984,0.012634277,0.8864136,0.4375,-0.25,0.828125
578,-0.6105957,0.012878418,0.8793335,-0.015625,-0.109375,0.515625
579,-0.61450195,0.022155762,0.8786011,-0.234375,0.34375,0.515625
580,-0.6125488,0.0038452148,0.88079834,-0.359375,-0.03125,0.59375
581,-0.6135254,0.011657715,0.8822632,-0.515625,0.53125,0.21875
582,-0.60546875,0.024597168,0.8788452,-0.796875,0.25,0.453125
583,-0.6245117,0.022399902,0.8817749,0.1875,-0.0625,0.65625
584,-0.61157227,0.0067749023,0.8727417,-0.234375,0.109375,0.5
585,-0.6064453,0.019714355,0.86883545,-0.765625,0.234375,0.140625
586,-0.6203613,0.0289917,0.88616943,-0.40625,0.203125,0.546875
587,-0.6188965,0.014343262,0.87713623,-0.75,0.125,0.515625
588,-0.6105957,0.016540527,0.8720093,-0.890625,-0.171875,0.109375
589,-0.61083984,0.019226074,0.8707886,-1.546875,0.390625,0.359375
590,-0.623291,0.015808105,0.88812256,-0.71875,0.203125,0.375
591,-0.6123047,0.012878418,0.8720093,-1.328125,-0.40625,0.046875
592,-0.6140137,0.026306152,0.87323,-1.015625,0.625,-0.375
593,-0.6101074,0.026306152,0.8825073,-0.84375,0.484375,0.59375
594,-0.6188965,0.029724121,0.8739624,-1.0,-0.328125,0.546875
595,-0.6152344,0.014587402,0.87835693,-1.0,-0.171875,0.109375
596,-0.60253906,0.02532959,0.8793335,-1.640625,0.78125,-0.078125
597,-0.6142578,0.029724121,0.8812866,-1.3125,0.625,0.375
598,-0.6074219,0.024597168,0.8678589,-0.546875,0.171875,0.390625
599,-0.61279297,0.025817871,0.8739624,-0.5,0.125,0.515625
600,-0.6098633,0.023620605,0.88568115,-0.484375,0.46875,0.53125
601,-0.61083984,0.0368042,0.88031006,-0.609375,-0.09375,0.578125
602,-0.6147461,0.029968262,0.8744507,-0.5,-0.28125,0.390625
603,-0.60961914,0.023864746,0.86883545,-0.859375,-0.078125,0.3125
604,-0.6069336,0.028259277,0.87786865,-0.96875,0.328125,0.3125
605,-0.60668945,0.03387451,0.87298584,-0.296875,0.28125,0.40625
606,-0.6164551,0.01727295,0.883728,0.203125,0.296875,0.6875
607,-0.6164551,0.034606934,0.88201904,-0.8125,0.3125,0.46875
608,-0.609375,0.049743652,0.8764038,-0.5625,-0.21875,0.171875
609,-0.6208496,0.024108887,0.8800659,1.03125,-1.328125,0.328125
610,-0.61621094,0.0004272461,0.8883667,-0.03125,-0.765625,-0.125
611,-0.6191406,0.018249512,0.86761475,-2.671875,-0.046875,-0.421875
612,-0.6088867,0.034118652,0.8703003,-1.9375,1.421875,-0.5
613,-0.6125488,0.038024902,0.88153076,-1.234375,1.046875,0.578125
614,-0.61279297,0.028015137,0.8707886,-1.171875,0.484375,0.65625
615,-0.6062012,0.03289795,0.8810425,-1.4375,0.734375,-0.046875
616,-0.60180664,0.03656006,0.8781128,-1.140625,0.3125,0.171875
617,-0.6032715,0.03265381,0.8744507,0.0625,0.234375,0.453125
618,-0.6088867,0.024841309,0.89715576,0.59375,0.71875,0.5625
619,-0.60498047,0.015563965,0.89398193,2.015625,3.71875,-0.28125
620,-0.5983887,0.04095459,0.9064331,3.3125,3.234375,-0.078125
621,-0.6123047,0.02532959,0.88934326,2.265625,1.15625,1.15625
622,-0.60180664,0.035095215,0.89178467,1.3125,1.71875,-0.203125
623,-0.5925293,0.039733887,0.86639404,-0.125,0.609375,0.0
624,-0.5917969,0.035095215,0.8776245,0.0625,-0.453125,0.15625
625,-0.58740234,0.02947998,0.87176514,-0.078125,-1.265625,0.359375
626,-0.60424805,0.020935059,0.86346436,-1.390625,-1.328125,0.6875
627,-0.6052246,0.013122559,0.89056396,0.453125,-0.4375,1.515625
628,-0.60253906,0.010681152,0.8932495,0.609375,-1.28125,2.34375
629,-0.5961914,0.030212402,0.8710327,-0.953125,-0.953125,1.0625
630,-0.60058594,0.02947998,0.8851929,0.0,-1.53125,-0.046875
631,-0.60595703,0.01361084,0.89056396,0.40625,-1.34375,0.5
632,-0.61083984,0.0048217773,0.89227295,-0.046875,-1.09375,0.53125
633,-0.6027832,0.019470215,0.8890991,-0.546875,-1.0,0.53125
634,-0.61376953,0.022888184,0.89056396,-0.265625,-0.90625,0.59375
635,-0.6074219,0.01751709,0.88153076,0.171875,-0.40625,0.546875
636,-0.607666,0.01776123,0.88275146,0.171875,-0.6875,0.390625
637,-0.6171875,0.011657715,0.87176514,-0.265625,-0.3125,0.484375
638,-0.6125488,0.015319824,0.87713623,-0.203125,-0.296875,0.53125
639,-0.6152344,0.011413574,0.8890991,-0.453125,-0.21875,0.484375
640,-0.60375977,0.013366699,0.88031006,-0.390625,-0.296875,0.609375
641,-0.61206055,0.018005371,0.8825073,-0.203125,-0.109375,0.625
642,-0.61328125,0.010681152,0.8695679,-0.0625,-0.171875,0.46875
643,-0.61206055,0.014343262,0.87908936,-0.328125,-0.046875,0.453125
644,-0.6118164,0.009216309,0.8739624,-0.203125,0.28125,0.546875
645,-0.6125488,0.016784668,0.87542725,-0.625,0.21875,0.734375
646,-0.6135254,0.009460449,0.87835693,-0.15625,-0.15625,0.640625
647,-0.61499023,0.019958496,0.883728,-0.9375,0.234375,0.578125
648,-0.61083984,0.014587402,0.8720093,-1.34375,-0.0625,0.359375
649,-0.6147461,0.012390137,0.87664795,-1.234375,-0.328125,-0.15625
650,-0.6152344,0.016296387,0.8781128,-0.546875,-0.0625,0.28125
651,-0.6135254,0.0119018555,0.8800659,-0.671875,0.171875,0.625
652,-0.62524414,0.023132324,0.8798218,-0.71875,-0.265625,0.5
653,-0.6101074,0.019470215,0.8776245,-0.546875,-0.109375,0.28125
654,-0.609375,0.014831543,0.87615967,-1.0,-0.3125,0.375
655,-0.61865234,0.019714355,0.8793335,-0.734375,0.171875,0.359375
656,-0.6203613,0.012145996,0.8781128,-0.640625,-0.09375,0.453125
657,-0.6125488,0.01727295,0.87298584,-0.5,0.203125,0.078125
658,-0.6098633,0.018005371,0.8707886,-0.71875,0.578125,0.46875
659,-0.6171875,0.01361084,0.8851929,0.015625,0.171875,0.734375
660,-0.61083984,0.010681152,0.8746948,-0.0625,-0.140625,0.5625
661,-0.6057129,0.016784668,0.8805542,-0.65625,0.34375,0.28125
662,-0.6152344,0.020202637,0.88201904,-0.578125,0.265625,0.375
663,-0.62060547,0.012145996,0.87615967,-0.375,-0.125,0.609375
664,-0.6118164,0.012878418,0.8756714,-0.5,0.234375,0.453125
665,-0.6064453,0.018981934,0.8710327,-1.375,0.421875,0.1875
666,-0.6184082,0.0138549805,0.8864136,-0.359375,0.25,0.375
667,-0.6152344,0.02508545,0.868103,-1.109375,0.234375,0.171875
668,-0.60595703,0.018249512,0.8773804,-0.796875,0.21875,-0.078125
669,-0.6179199,0.020446777,0.885437,-0.65625,0.390625,0.484375
670,-0.6208496,0.027282715,0.8722534,-1.03125,-0.078125,0.65625
671,-0.6081543,0.019958496,0.8746948,-0.734375,-0.375,-0.09375
672,-0.6086426,0.016784668,0.885437,-0.34375,0.15625,0.25
673,-0.60717773,0.021911621,0.8759155,-0.46875,0.921875,0.78125
674,-0.6101074,0.024841309,0.87908936,-0.484375,0.296875,0.484375
675,-0.6125488,0.014831543,0.8773804,-0.703125,-0.078125,0.28125
676,-0.60961914,0.027282715,0.8781128,-0.921875,0.3125,0.171875
677,-0.6113281,0.027282715,0.87664795,-1.03125,0.109375,0.609375
678,-0.6159668,0.023620605,0.8812866,-0.6875,-0.09375,0.421875
679,-0.61157227,0.020690918,0.8768921,-1.09375,0.0,0.171875
680,-0.60595703,0.026306152,0.8817749,-0.984375,0.296875,0.15625
681,-0.60961914,0.03363037,0.87615967,-0.96875,0.53125,0.375
682,-0.61279297,0.017028809,0.88275146,-0.5625,0.546875,0.5
683,-0.61157227,0.022644043,0.8746948,-0.859375,0.4375,0.359375
684,-0.61450195,0.028747559,0.88153076,-0.953125,0.4375,0.203125
685,-0.6098633,0.02557373,0.88079834,-1.03125,0.421875,0.65625
686,-0.6171875,0.02947998,0.89959717,-0.734375,0.734375,0.5625
687,-0.61694336,0.03289795,0.89349365,-2.359375,-0.03125,-0.46875
688,-0.5983887,0.022155762,0.87835693,-1.90625,6.15625,-2.34375
689,-0.5830078,0.04144287,0.91204834,1.078125,4.671875,-1.515625
690,-0.62353516,0.028747559,0.89056396,2.453125,0.109375,0.6875
691,-0.61279297,0.027526855,0.87713623,0.9375,0.9375,-0.109375
692,-0.5888672,0.04144287,0.8812866,-0.203125,-0.046875,-0.21875
693,-0.5932617,0.039245605,0.8759155,0.375,-1.234375,0.609375
694,-0.59375,0.0289917,0.8619995,0.015625,-1.390625,0.578125
695,-0.59277344,0.031921387,0.85980225,-1.609375,-1.53125,0.140625
696,-0.60131836,0.023376465,0.8847046,0.578125,-0.828125,1.109375
697,-0.6118164,0.01727295,0.90448,1.25,-1.40625,2.671875
698,-0.6022949,0.029968262,0.8851929,0.359375,-1.828125,1.953125
699,-0.5944824,0.031433105,0.8764038,-0.171875,-1.640625,0.453125
700,-0.6003418,0.030212402,0.8822632,0.34375,-1.421875,0.53125
701,-0.6176758,0.00579834,0.88983154,0.78125,-1.171875,1.375
702,-0.61157227,0.0065307617,0.8829956,0.078125,-0.65625,0.71875
703,-0.6208496,0.019226074,0.8822632,-0.21875,-0.75,0.5625
704,-0.6047363,0.032409668,0.8781128,-0.09375,-0.171875,0.6875
705,-0.6081543,0.022644043,0.8720093,0.390625,-0.59375,0.734375
706,-0.61157227,0.0040893555,0.8759155,0.109375,-0.328125,0.375
707,-0.6074219,0.010925293,0.8798218,-0.453125,-0.15625,-0.03125
708,-0.61694336,0.020202637,0.88934326,-0.296875,0.03125,0.78125
709,-0.61694336,0.014587402,0.8739624,0.0,-0.171875,0.890625
710,-0.6135254,0.0065307617,0.8756714,-0.203125,-0.359375,0.390625
711,-0.6118164,0.01751709,0.8751831,-0.484375,-0.5,0.421875
712,-0.6171875,0.011169434,0.87713623,-0.328125,-0.03125,0.796875
713,-0.6142578,0.0065307617,0.8756714,-0.53125,0.09375,0.625
714,-0.6140137,0.016296387,0.87420654,-0.578125,0.09375,0.28125
715,-0.61206055,0.016296387,0.8864136,-0.484375,0.078125,0.390625
716,-0.62646484,0.019714355,0.87786865,0.03125,-0.203125,0.4375
717,-0.6135254,0.008972168,0.87835693,-0.171875,-0.03125,0.4375
718,-0.6098633,0.007751465,0.87298584,-0.46875,0.078125,0.640625
719,-0.61157227,0.01361084,0.8756714,-0.203125,-0.046875,0.46875
720,-0.6159668,0.012145996,0.88397217,-0.65625,0.171875,0.5625
721,-0.6203613,0.015563965,0.8751831,-0.5,0.109375,0.375
722,-0.6147461,0.008728027,0.8720093,-0.515625,0.09375,0.484375
723,-0.61499023,0.009216309,0.8805542,-0.28125,0.1875,0.4375
724,-0.61083984,0.01727295,0.86346436,-1.09375,0.0625,0.1875
725,-0.6208496,0.019958496,0.8822632,-0.25,0.125,0.28125
726,-0.6179199,0.0048217773,0.883728,-0.390625,0.109375,0.75
727,-0.61376953,0.020935059,0.87249756,-0.828125,0.25,0.46875
728,-0.6176758,0.020935059,0.8759155,-0.59375,0.234375,0.4375
729,-0.6152344,0.014587402,0.8842163,0.140625,-0.109375,0.625
730,-0.61499023,0.00579834,0.87176514,-0.03125,0.140625,0.515625
731,-0.6152344,0.021911621,0.8722534,-0.9375,0.3125,0.171875
732,-0.62109375,0.016540527,0.87054443,-0.6875,0.03125,0.234375
733,-0.6074219,0.016540527,0.8810425,-0.640625,0.3125,0.359375
734,-0.6101074,0.019958496,0.8817749,-0.03125,-0.375,0.65625
735,-0.6201172,0.0018920898,0.87298584,-0.546875,-0.125,0.453125
736,-0.6069336,0.015075684,0.8746948,-0.734375,0.515625,0.109375
737,-0.6135254,0.0211792,0.8829956,-0.546875,0.296875,0.671875
738,-0.61938477,0.016540527,0.8805542,-0.484375,0.0,0.703125
739,-0.61572266,0.015319824,0.87908936,-0.5625,0.046875,0.359375
740,-0.6064453,0.011657715,0.8739624,-1.28125,0.234375,0.171875
741,-0.6123047,0.030212402,0.8756714,-0.921875,0.515625,0.484375
742,-0.6184082,0.008972168,0.87835693,0.046875,0.3125,0.875
743,-0.61572266,0.0065307617,0.887146,-0.046875,0.078125,0.4375
744,-0.6081543,0.01751709,0.87323,-1.484375,0.125,-0.03125
745,-0.6088867,0.025817871,0.87957764,-0.96875,0.109375,-0.140625
746,-0.6123047,0.012390137,0.87664795,-0.5,0.171875,0.609375
747,-0.6057129,0.023132324,0.8707886,-1.515625,0.609375,0.40625
748,-0.6171875,0.026794434,0.88739014,-1.109375,0.859375,0.3125
749,-0.6113281,0.018737793,0.8847046,-0.296875,0.484375,0.765625
750,-0.6088867,0.0119018555,0.8842163,-0.515625,-0.1875,0.4375
751,-0.61572266,0.022888184,0.8798218,-0.765625,-0.03125,0.0625
752,-0.60913086,0.023864746,0.88031006,-0.9375,-0.15625,0.03125
753,-0.6176758,0.015563965,0.8866577,-0.5625,0.015625,0.5625
754,-0.6062012,0.028259277,0.87664795,-0.984375,0.09375,0.5
755,-0.6179199,0.034118652,0.88323975,-0.765625,0.078125,0.21875
756,-0.61035156,0.02508545,0.8722534,-0.625,0.125,0.375
757,-0.609375,0.018493652,0.87127686,-0.5625,0.421875,0.28125
758,-0.6125488,0.028503418,0.8746948,-0.390625,0.328125,0.515625
759,-0.61450195,0.031921387,0.8895874,0.015625,0.140625,0.796875
