sample_no,accel_x,accel_y,accel_z,gyro_x,gyro_y,gyro_z
0,0.056884766,-0.987854,0.13543701,-1.296875,0.28125,0.71875
1,0.064697266,-0.9788208,0.13616943,-1.984375,1.859375,0.6875
2,0.060302734,-0.987854,0.14422607,-0.015625,1.8125,0.984375
3,0.07104492,-0.9890747,0.14300537,-0.34375,0.390625,0.34375
4,0.07104492,-0.9898071,0.1461792,-0.9375,0.625,0.078125
5,0.068603516,-0.99346924,0.14715576,1.0,1.734375,0.109375
6,0.061523438,-1.0015259,0.15667725,2.859375,2.34375,0.6875
7,0.037353516,-0.9871216,0.14935303,2.03125,1.0625,1.296875
8,0.064941406,-0.9534302,0.12249756,-0.78125,1.53125,0.546875
9,0.095947266,-0.98638916,0.09686279,-2.484375,-0.65625,-1.078125
10,0.0847168,-1.0132446,0.10223389,-0.109375,2.859375,0.046875
11,0.055419922,-0.9990845,0.13031006,3.921875,3.53125,0.078125
12,0.046875,-0.95684814,0.16033936,1.53125,-0.171875,-0.65625
13,0.057128906,-0.9714966,0.14349365,-0.0625,-2.625,0.296875
14,0.07324219,-1.0132446,0.12908936,-2.703125,-1.609375,0.28125
15,0.07836914,-1.0037231,0.1251831,-2.921875,1.65625,-0.296875
16,0.064208984,-0.9961548,0.11566162,-2.75,1.6875,-0.734375
17,0.053710938,-0.9932251,0.1251831,-4.84375,1.09375,-1.375
18,0.052490234,-0.99053955,0.13665771,-7.21875,5.109375,-2.453125
19,0.06201172,-0.9780884,0.16741943,-1.171875,8.265625,-0.453125
20,0.06640625,-0.99591064,0.18084717,-1.015625,3.640625,-0.03125
21,0.05126953,-0.9692993,0.16253662,-5.0,1.171875,-1.359375
22,0.036621094,-0.96954346,0.16888428,-2.5,1.234375,-2.1875
23,0.044677734,-0.99591064,0.16644287,-1.453125,1.515625,0.390625
24,0.055419922,-0.98565674,0.16595459,-1.296875,0.546875,0.765625
25,0.05053711,-0.9890747,0.16546631,-1.96875,2.703125,-1.4375
26,0.052978516,-0.9776001,0.17254639,-0.671875,2.78125,-0.546875
27,0.06347656,-0.98565674,0.18133545,-1.015625,1.15625,0.4375
28,0.057617188,-0.9776001,0.1749878,-1.359375,0.65625,-0.375
29,0.035888672,-0.9924927,0.18450928,-1.375,1.171875,-0.578125
30,0.048828125,-0.9854126,0.1864624,-0.671875,1.828125,0.78125
31,0.048339844,-0.9812622,0.18426514,0.1875,1.3125,0.671875
32,0.03881836,-0.9890747,0.19915771,0.03125,-0.359375,1.28125
33,0.025878906,-0.99420166,0.18450928,-1.359375,-2.40625,1.1875
34,0.057617188,-0.991272,0.17010498,-2.65625,1.734375,-0.625
35,0.07348633,-0.9951782,0.18328857,-2.3125,3.328125,-1.578125
36,0.053955078,-0.9944458,0.18206787,-4.46875,2.65625,-1.6875
37,0.057861328,-0.95562744,0.17572021,-3.234375,0.984375,-2.0
38,0.044921875,-0.9714966,0.1942749,-0.390625,-0.140625,-0.703125
39,0.044433594,-0.9854126,0.20672607,-0.96875,1.421875,0.03125
40,0.048339844,-0.99224854,0.19696045,-1.3125,2.046875,-0.53125
41,0.040039062,-0.975647,0.20819092,-0.1875,2.671875,0.3125
42,0.04321289,-0.9746704,0.20794678,0.765625,1.65625,0.8125
43,0.03540039,-0.97857666,0.20355225,-0.703125,1.03125,0.421875
44,0.035888672,-0.98150635,0.18817139,-0.875,0.953125,-0.03125
45,0.052734375,-0.9846802,0.18743896,-0.375,3.0625,-0.78125
46,0.044921875,-0.9795532,0.20379639,0.390625,1.921875,-0.40625
47,0.029785156,-0.9824829,0.19573975,-0.46875,1.9375,-0.453125
48,0.04321289,-0.98931885,0.20184326,-0.4375,1.78125,-0.625
49,0.035888672,-0.9890747,0.20648193,1.625,2.3125,0.234375
50,0.04345703,-0.9902954,0.20159912,2.515625,4.921875,0.1875
51,0.041015625,-0.9771118,0.20721436,0.8125,4.0,-1.8125
52,0.03491211,-0.9776001,0.19989014,2.578125,2.6875,-1.25
53,0.037841797,-0.97491455,0.19329834,1.3125,1.375,-0.78125
54,0.02734375,-0.96759033,0.19500732,-0.828125,0.375,-0.140625
55,0.033935547,-0.99102783,0.18988037,-0.34375,0.515625,0.109375
56,0.051757812,-0.98638916,0.18719482,0.328125,1.125,0.28125
57,0.041992188,-0.97979736,0.18939209,-0.34375,0.890625,0.453125
58,0.033203125,-0.9578247,0.16546631,2.65625,1.9375,0.359375
59,0.055419922,-0.96954346,0.2008667,5.984375,-0.828125,2.515625
60,0.012939453,-1.0154419,0.21282959,3.75,-0.90625,3.375
61,0.012207031,-1.0164185,0.17889404,2.125,1.5625,0.859375
62,0.046142578,-0.973938,0.16448975,-0.71875,1.71875,1.890625
63,0.08959961,-0.9619751,0.14715576,-1.953125,2.21875,-0.75
64,0.072509766,-0.99176025,0.16619873,0.234375,1.359375,-2.5
65,0.02368164,-1.0029907,0.17767334,0.53125,-0.65625,-0.421875
66,0.03515625,-1.0112915,0.17108154,-0.09375,2.25,0.421875
67,0.06518555,-0.98101807,0.15838623,-0.96875,5.359375,-0.53125
68,0.061523438,-0.989563,0.16326904,1.390625,5.203125,-2.4375
69,0.042236328,-0.98516846,0.18670654,-0.421875,3.140625,-2.078125
70,0.010009766,-0.95880127,0.20184326,-0.6875,-1.046875,-0.46875
71,0.0,-0.97979736,0.18304443,-2.140625,-1.6875,0.6875
72,0.040283203,-0.9866333,0.1786499,-1.609375,0.484375,-0.4375
73,0.040527344,-0.9907837,0.17010498,-0.59375,0.5,0.078125
74,0.018554688,-0.9883423,0.18548584,0.390625,0.09375,0.15625
75,0.015625,-0.9834595,0.1906128,-0.984375,-1.1875,1.34375
76,0.048095703,-0.9727173,0.17816162,-1.359375,1.515625,1.125
77,0.10180664,-0.94073486,0.23236084,-2.796875,-12.078125,2.375
78,-0.04638672,-0.98809814,0.16571045,-13.328125,-24.703125,8.140625
79,-0.008300781,-1.0134888,0.2489624,-1.515625,-7.421875,1.625
80,0.17797852,-0.97491455,0.19158936,8.671875,4.25,2.0
81,0.041748047,-1.0354614,0.15570068,3.875,3.578125,0.359375
82,0.036865234,-0.96539307,0.19232178,3.4375,4.21875,2.078125
83,0.03515625,-0.96173096,0.20965576,4.78125,1.546875,1.34375
84,0.05102539,-0.9812622,0.17303467,-2.09375,1.265625,-0.109375
85,0.05883789,-0.9793091,0.16766357,-0.15625,0.9375,1.125
86,0.080566406,-0.99591064,0.19158936,0.8125,2.796875,0.0
87,0.03125,-0.99713135,0.18231201,-0.078125,2.359375,-0.765625
88,0.034423828,-0.98028564,0.17547607,0.0625,0.984375,1.09375
89,0.06958008,-0.9841919,0.17645264,-0.09375,5.375,0.15625
90,0.07519531,-0.99176025,0.18304443,1.96875,6.015625,-0.625
91,0.024902344,-0.9758911,0.19525146,0.53125,0.875,-0.296875
92,0.020751953,-0.9898071,0.19012451,-0.46875,0.46875,0.6875
93,0.07397461,-0.97857666,0.17010498,-0.703125,5.421875,-0.984375
94,0.079589844,-0.9795532,0.16937256,-1.3125,2.265625,-0.578125
95,0.041015625,-0.98150635,0.1852417,-1.203125,0.34375,-1.4375
96,0.03491211,-0.9854126,0.18719482,0.171875,2.484375,-0.15625
97,0.04736328,-0.9885864,0.18597412,0.0625,3.6875,0.46875
98,0.04321289,-0.98321533,0.18206787,0.28125,2.65625,0.375
99,0.032714844,-0.9841919,0.17767334,0.078125,1.703125,0.28125
100,0.036132812,-0.9902954,0.17938232,-0.28125,1.984375,-0.0625
101,0.0637207,-0.9776001,0.16937256,-1.28125,1.796875,0.234375
102,0.048583984,-1.0012817,0.16766357,1.609375,4.484375,-2.34375
103,0.036376953,-0.99468994,0.18060303,2.46875,4.640625,-0.6875
104,0.03564453,-0.9902954,0.18475342,1.5,4.1875,0.03125
105,0.050048828,-0.97540283,0.17572021,0.484375,2.75,0.203125
106,0.05126953,-0.9714966,0.18255615,1.640625,1.71875,-0.125
107,0.042236328,-0.9890747,0.1786499,1.46875,1.8125,-0.3125
108,0.050048828,-0.98516846,0.17279053,-0.328125,0.484375,-0.015625
109,0.038085938,-0.9788208,0.16937256,-1.3125,-0.9375,0.25
110,0.045654297,-0.9846802,0.16009521,-0.609375,2.28125,-0.09375
111,0.050048828,-0.9837036,0.17010498,0.0625,1.4375,0.375
112,0.03881836,-0.98883057,0.18109131,0.5625,1.46875,0.265625
113,0.042236328,-0.9834595,0.17449951,-0.453125,0.171875,0.4375
114,0.048339844,-0.98443604,0.15960693,-1.390625,1.984375,-0.3125
115,0.040283203,-0.9890747,0.16473389,-0.046875,1.859375,-0.921875
116,0.03564453,-0.97906494,0.18817139,1.28125,1.1875,0.78125
117,0.033691406,-0.9885864,0.17962646,0.171875,1.625,0.484375
118,0.04663086,-0.98394775,0.16937256,0.484375,1.578125,0.21875
119,0.04736328,-0.98150635,0.17547607,1.578125,1.59375,0.65625
120,0.05419922,-0.9793091,0.16888428,-0.359375,0.765625,0.46875
121,0.046142578,-0.9937134,0.17132568,-1.28125,0.578125,-0.09375
122,0.036621094,-0.9741821,0.17279053,-1.96875,-1.28125,0.546875
123,0.044921875,-0.99102783,0.16546631,-0.21875,0.8125,0.421875
124,0.046875,-0.9981079,0.16790771,0.484375,2.171875,0.625
125,0.040527344,-0.9846802,0.17181396,0.0,0.71875,0.28125
126,0.034423828,-0.98272705,0.17572021,0.265625,1.453125,-0.1875
127,0.05029297,-0.986145,0.17449951,-0.421875,1.28125,-0.125
128,0.052978516,-0.9939575,0.16253662,0.09375,1.828125,-0.03125
129,0.051513672,-0.987854,0.16351318,0.28125,1.53125,0.234375
130,0.04345703,-0.98760986,0.16326904,0.984375,2.03125,-0.59375
131,0.043945312,-0.9854126,0.17132568,0.4375,1.578125,-0.28125
132,0.041259766,-0.98687744,0.17694092,1.40625,1.953125,0.390625
133,0.03515625,-1.0003052,0.16644287,1.515625,2.390625,-0.125
134,0.050048828,-0.9854126,0.16400146,1.796875,2.265625,-0.015625
135,0.03149414,-0.9817505,0.16571045,0.921875,0.90625,0.328125
136,0.032714844,-0.9883423,0.15325928,-0.15625,1.765625,-0.21875
137,0.049804688,-0.9819946,0.15618896,0.8125,1.359375,-0.40625
138,0.048583984,-0.9817505,0.15081787,3.15625,-0.03125,0.234375
139,0.043945312,-0.97247314,0.15985107,2.421875,-0.96875,0.171875
140,0.029052734,-1.0012817,0.16741943,0.984375,0.8125,0.75
141,0.044677734,-0.98443604,0.13983154,-0.34375,1.21875,1.0
142,0.033447266,-0.987854,0.14007568,0.8125,-1.515625,0.78125
143,0.03930664,-0.9915161,0.15472412,0.703125,0.734375,0.984375
144,0.052001953,-0.99468994,0.15618896,-0.421875,1.0625,0.140625
145,0.040283203,-0.9795532,0.14691162,-1.453125,0.359375,-0.1875
146,0.032470703,-0.9924927,0.15203857,-0.4375,0.0,0.578125
147,0.060302734,-0.99346924,0.15545654,-0.78125,1.046875,0.296875
148,0.053222656,-0.9854126,0.16546631,-0.921875,0.671875,0.015625
149,0.020263672,-0.9932251,0.16546631,0.578125,-0.40625,0.421875
150,0.030761719,-0.9890747,0.15374756,0.28125,-0.390625,1.390625
151,0.056152344,-0.99005127,0.1486206,-2.6875,0.984375,1.609375
152,0.060302734,-0.98760986,0.14227295,-1.953125,1.15625,-0.515625
153,0.048339844,-0.99346924,0.15228271,-1.609375,1.0625,-1.421875
154,0.04711914,-0.98809814,0.15985107,-2.765625,1.21875,-0.59375
155,0.049072266,-0.9819946,0.16229248,-1.890625,3.09375,-0.578125
156,0.041503906,-0.9768677,0.16693115,-0.515625,2.015625,0.15625
157,0.03564453,-0.99468994,0.1696167,0.125,1.3125,0.703125
158,0.049316406,-0.98638916,0.16815186,-0.78125,1.796875,-0.25
159,0.040039062,-0.9871216,0.17449951,-0.859375,0.59375,-0.609375
160,0.03564453,-0.9998169,0.17156982,-0.421875,1.609375,-0.40625
161,0.040039062,-0.9849243,0.1642456,-1.171875,0.9375,-0.09375
162,0.045410156,-0.98150635,0.16229248,-0.96875,0.9375,-0.171875
163,0.05053711,-0.97662354,0.1749878,-1.34375,0.84375,-0.46875
164,0.032226562,-0.98638916,0.17327881,-0.1875,0.4375,0.265625
165,0.05029297,-0.9873657,0.1774292,-0.671875,1.078125,0.390625
166,0.044433594,-0.9854126,0.1762085,-0.359375,0.78125,0.21875
167,0.028320312,-0.9795532,0.18133545,-0.578125,-0.96875,0.203125
168,0.022949219,-0.98150635,0.19573975,-0.3125,-2.75,-0.296875
169,0.03491211,-0.97906494,0.19891357,-0.546875,-1.484375,1.234375
170,0.03955078,-0.9985962,0.18963623,-1.03125,0.359375,0.828125
171,0.04736328,-0.9873657,0.18035889,-5.53125,-2.078125,0.546875
172,0.044433594,-0.94415283,0.21185303,-9.96875,-11.03125,3.21875
173,0.010009766,-0.9585571,0.230896,-10.15625,-20.671875,4.84375
174,0.017578125,-1.005188,0.20965576,-4.265625,-10.640625,3.96875
175,0.07299805,-1.0493774,0.18353271,0.84375,2.71875,0.546875
176,0.12402344,-0.9849243,0.19110107,0.8125,10.171875,-1.203125
177,0.03515625,-0.97320557,0.24017334,10.0625,6.0,-1.28125
178,-0.030273438,-0.9500122,0.23040771,6.8125,-2.59375,2.875
179,0.041992188,-0.96759033,0.18353271,2.578125,-2.4375,2.484375
180,0.087890625,-0.9985962,0.18426514,1.90625,1.71875,0.796875
181,0.057373047,-1.0098267,0.19329834,2.59375,2.328125,0.46875
182,0.035888672,-0.97784424,0.18670654,1.046875,1.640625,0.359375
183,0.046875,-0.9717407,0.17669678,-0.109375,1.09375,0.84375
184,0.061767578,-0.9890747,0.17645264,-0.953125,0.3125,0.78125
185,0.0546875,-0.9763794,0.19525146,-0.5,-0.3125,0.28125
186,0.055664062,-1.010315,0.18963623,0.671875,1.75,0.125
187,0.059570312,-0.98565674,0.18865967,-2.390625,2.84375,-0.25
188,0.05859375,-0.9697876,0.19085693,-1.59375,1.234375,0.484375
189,0.05102539,-0.9976196,0.1918335,0.03125,1.0625,-0.09375
190,0.048339844,-0.98760986,0.19036865,-0.21875,1.015625,0.203125
191,0.047607422,-0.9837036,0.19940186,0.078125,1.671875,0.515625
192,0.05126953,-0.9829712,0.18548584,-0.765625,1.921875,0.125
193,0.052978516,-0.98687744,0.18890381,-0.03125,2.234375,-0.171875
194,0.056884766,-0.9812622,0.1930542,0.4375,2.140625,0.28125
195,0.060302734,-0.96954346,0.17181396,2.890625,3.375,0.125
196,0.075683594,-0.9883423,0.18670654,4.25,3.40625,0.5
197,0.051757812,-0.9741821,0.20062256,1.984375,0.421875,0.671875
198,0.022705078,-0.99542236,0.19232178,0.359375,-1.0,-0.296875
199,0.056640625,-0.98028564,0.17034912,-0.453125,1.546875,0.390625
200,0.08496094,-0.9678345,0.16815186,-2.140625,3.671875,-0.9375
201,0.047851562,-0.9692993,0.18548584,-1.796875,1.484375,-1.203125
202,0.020263672,-1.006897,0.20721436,1.46875,1.59375,0.625
203,0.04272461,-0.98443604,0.19451904,1.0625,2.0625,2.015625
204,0.059326172,-0.9768677,0.1749878,-0.546875,3.09375,1.40625
205,0.072021484,-0.97784424,0.17254639,-1.265625,2.109375,-0.265625
206,0.052001953,-0.9963989,0.18426514,-0.875,0.796875,-0.21875
207,0.04321289,-0.99468994,0.18109131,-0.65625,-0.625,0.234375
208,0.057128906,-0.99298096,0.17449951,0.546875,0.953125,0.421875
209,0.07397461,-0.9727173,0.17816162,-0.203125,3.09375,-0.140625
210,0.060791016,-0.98809814,0.19207764,-1.046875,1.875,-0.015625
211,0.04272461,-0.9854126,0.19403076,-0.78125,0.921875,0.234375
212,0.0546875,-0.986145,0.18548584,-0.828125,1.90625,-0.03125
213,0.056152344,-0.98443604,0.17523193,-0.40625,2.25,-0.40625
214,0.04248047,-0.98321533,0.18426514,-0.453125,1.96875,-0.359375
215,0.03466797,-0.99346924,0.16912842,-1.453125,5.96875,-1.046875
216,0.080322266,-1.000061,0.17767334,2.25,12.9375,-3.3125
217,0.07788086,-0.97320557,0.19647217,2.765625,7.609375,-1.25
218,0.016113281,-0.9614868,0.19134521,0.71875,1.90625,-0.6875
219,0.027832031,-0.97540283,0.19207764,1.03125,2.28125,-0.5625
220,0.0715332,-0.98443604,0.19012451,1.359375,1.453125,-0.09375
221,0.06298828,-0.9846802,0.17547607,-1.015625,-2.75,1.3125
222,0.026123047,-0.99176025,0.16986084,-0.453125,-1.96875,-0.546875
223,0.057861328,-0.99176025,0.16815186,2.34375,1.4375,-0.125
224,0.06738281,-0.97979736,0.1762085,4.375,-0.640625,0.515625
225,0.03881836,-0.9727173,0.16400146,1.21875,-0.890625,1.171875
226,0.047851562,-0.99102783,0.1696167,-1.296875,-0.15625,-0.9375
227,0.049804688,-0.9968872,0.18060303,0.25,2.1875,0.546875
228,0.05029297,-0.98565674,0.16937256,-0.28125,2.15625,0.359375
229,0.032470703,-0.9837036,0.1696167,-1.984375,0.671875,-0.140625
230,0.043945312,-0.98028564,0.1671753,-0.640625,1.515625,-0.09375
231,0.057128906,-1.0027466,0.1696167,0.515625,1.671875,0.21875
232,0.043945312,-0.9949341,0.15740967,0.90625,3.984375,-0.78125
233,0.053466797,-0.97784424,0.1630249,3.390625,6.75,-1.640625
234,0.046142578,-0.97491455,0.17791748,3.75,3.578125,-0.390625
235,0.022460938,-0.99053955,0.15985107,1.9375,-0.078125,0.390625
236,0.053955078,-0.98516846,0.15545654,0.265625,1.03125,0.359375
237,0.0625,-0.9841919,0.16668701,-0.640625,0.0625,-0.359375
238,0.045166016,-0.9890747,0.14959717,-0.609375,0.359375,-0.546875
239,0.036865234,-0.991272,0.15325928,2.609375,0.5625,-0.109375
240,0.043945312,-1.0027466,0.16204834,2.8125,-0.125,0.34375
241,0.05053711,-0.9763794,0.15496826,-0.703125,-0.015625,0.765625
242,0.040039062,-0.98321533,0.1449585,0.921875,1.265625,-0.890625
243,0.04345703,-0.98150635,0.15716553,-2.0625,1.28125,-0.390625
244,0.032958984,-0.99884033,0.16571045,-0.640625,1.984375,0.359375
245,0.017822266,-1.0037231,0.15985107,1.421875,2.15625,1.734375
246,0.05126953,-0.9771118,0.14422607,-1.046875,2.640625,0.96875
247,0.057617188,-0.9780884,0.14300537,-0.59375,0.96875,-0.546875
248,0.044433594,-1.0090942,0.1486206,2.625,0.921875,-0.75
249,0.033203125,-0.9907837,0.14959717,-0.171875,0.6875,-0.03125
250,0.04663086,-0.97979736,0.14691162,-0.328125,0.703125,0.0625
251,0.059326172,-0.9871216,0.14886475,-0.328125,1.46875,-0.0625
252,0.052734375,-0.9981079,0.1539917,-0.359375,2.3125,-0.421875
253,0.025634766,-0.99420166,0.16009521,0.640625,1.21875,-0.015625
254,0.02734375,-0.986145,0.15838623,0.453125,0.609375,1.53125
255,0.04638672,-0.9898071,0.14959717,-0.421875,2.328125,0.1875
256,0.040283203,-0.9873657,0.15130615,-0.046875,1.578125,-0.453125
257,0.025634766,-0.9949341,0.14666748,1.734375,-0.46875,0.28125
258,0.043945312,-0.987854,0.14422607,-0.390625,0.9375,0.53125
259,0.053466797,-0.98516846,0.1383667,0.15625,1.765625,0.28125
260,0.040527344,-0.9985962,0.15252686,1.25,1.546875,0.28125
261,0.047607422,-0.9817505,0.16131592,-0.453125,0.984375,0.390625
262,0.037841797,-0.9920044,0.15472412,-1.671875,0.484375,0.671875
263,0.05419922,-0.9976196,0.14959717,-1.328125,1.609375,-0.375
264,0.048339844,-0.9902954,0.14715576,-1.1875,1.734375,-0.484375
265,0.033203125,-0.9776001,0.15179443,-1.453125,0.78125,0.28125
266,0.034179688,-0.99468994,0.1605835,-2.140625,-0.34375,0.4375
267,0.03564453,-0.991272,0.1618042,-2.046875,1.46875,0.921875
268,0.060058594,-0.99664307,0.15692139,-1.5,1.671875,0.84375
269,0.051757812,-0.9956665,0.16546631,-2.546875,1.8125,0.46875
270,0.035888672,-0.9800415,0.17596436,-1.875,-0.234375,1.28125
271,0.030761719,-0.9873657,0.18035889,-5.0625,-2.1875,1.1875
272,0.049316406,-0.96417236,0.20794678,-13.015625,-10.796875,1.0625
273,0.029785156,-0.93951416,0.23065186,-16.984375,-20.46875,4.171875
274,0.024902344,-1.0188599,0.20184326,-6.859375,-4.5625,0.734375
275,0.1159668,-1.0093384,0.17645264,-1.5625,9.234375,-0.578125
276,0.07055664,-0.9795532,0.21942139,7.234375,5.296875,0.171875
277,0.026855469,-0.9507446,0.23797607,4.609375,-4.71875,1.40625
278,0.028076172,-0.96588135,0.22528076,3.96875,-1.109375,0.515625
279,0.09301758,-0.973938,0.18939209,4.34375,4.109375,0.9375
280,0.08325195,-0.9949341,0.20428467,8.71875,2.8125,2.53125
281,0.04272461,-0.95440674,0.18719482,-1.109375,-9.03125,3.59375
282,0.006591797,-1.0112915,0.18011475,3.015625,-2.453125,-1.25
283,0.08569336,-0.975647,0.15692139,-2.59375,3.875,2.015625
284,0.0769043,-0.99346924,0.17132568,3.109375,3.53125,0.28125
285,0.041015625,-0.96661377,0.19744873,0.3125,1.15625,-0.1875
286,0.036865234,-0.9734497,0.19989014,-0.03125,-1.28125,0.5
287,0.061279297,-0.9963989,0.18695068,-2.140625,-0.15625,0.421875
288,0.064697266,-1.005188,0.19036865,-0.296875,1.484375,0.75
289,0.056884766,-0.98101807,0.18011475,0.46875,2.53125,0.21875
290,0.053466797,-0.98443604,0.18255615,-1.5625,2.125,-0.359375
291,0.059570312,-0.9829712,0.18890381,-0.09375,0.765625,0.03125
292,0.052001953,-0.9939575,0.19622803,0.4375,0.03125,0.75
293,0.06225586,-0.9885864,0.1786499,-1.890625,2.65625,0.203125
294,0.06567383,-0.9800415,0.18817139,-2.15625,3.640625,-0.265625
295,0.047607422,-0.98565674,0.20892334,-0.546875,1.765625,-0.609375
296,0.040283203,-0.9834595,0.19525146,-0.515625,1.578125,0.15625
297,0.06542969,-0.96051025,0.16888428,3.375,5.625,-0.59375
298,0.07128906,-0.98687744,0.19818115,6.890625,4.578125,0.71875
299,0.045410156,-0.9920044,0.20843506,1.96875,-0.9375,1.609375
300,0.041992188,-0.9805298,0.19134521,-0.765625,-1.59375,0.28125
301,0.07495117,-0.98443604,0.17401123,-3.515625,3.015625,-0.46875
302,0.072509766,-0.9873657,0.18621826,-1.9375,2.8125,-0.453125
303,0.041748047,-0.9907837,0.19793701,-0.046875,1.15625,-0.1875
304,0.048583984,-0.9800415,0.19476318,-1.6875,0.734375,0.515625
305,0.060302734,-0.97662354,0.17816162,-2.5,2.4375,-0.078125
306,0.072753906,-0.97540283,0.18597412,-0.46875,2.609375,-0.046875
307,0.04663086,-0.9849243,0.2086792,0.796875,0.1875,-0.109375
308,0.03857422,-0.9871216,0.1954956,-1.15625,-0.125,0.09375
309,0.060302734,-0.9829712,0.17230225,-2.1875,4.25,0.125
310,0.096191406,-1.0108032,0.1798706,2.109375,10.109375,-3.5625
311,0.056884766,-0.97442627,0.19671631,0.78125,5.6875,-1.21875
312,0.0146484375,-0.9829712,0.20281982,2.5625,4.078125,-2.078125
313,0.03540039,-0.9585571,0.20770264,1.40625,2.328125,0.71875
314,0.053955078,-0.98443604,0.19769287,-1.671875,-0.296875,0.0625
315,0.055664062,-0.9812622,0.18939209,-3.234375,0.15625,-0.171875
316,0.060302734,-0.9968872,0.18719482,-0.125,1.8125,0.109375
317,0.05029297,-0.975647,0.18597412,-1.796875,1.15625,0.296875
318,0.039794922,-0.9558716,0.19036865,-1.703125,-2.0,0.328125
319,0.03930664,-0.9841919,0.20184326,1.6875,0.453125,0.5625
320,0.05126953,-0.9949341,0.20697021,0.9375,0.984375,0.765625
321,0.04736328,-0.9824829,0.21624756,-0.59375,-1.0,0.8125
322,0.021728516,-0.9805298,0.215271,-0.5,-2.140625,1.953125
323,0.04345703,-0.9990845,0.17962646,-0.5,0.84375,1.125
324,0.08300781,-0.96539307,0.17156982,-2.421875,1.203125,-0.21875
325,0.08569336,-0.96661377,0.1930542,-0.84375,0.140625,-0.921875
326,0.064453125,-0.9805298,0.184021,0.4375,-0.046875,-0.984375
327,0.07006836,-1.000061,0.2074585,-0.703125,0.703125,-0.171875
328,0.05517578,-0.98516846,0.20892334,-0.546875,1.375,0.84375
329,0.03466797,-0.958313,0.17376709,-0.90625,0.875,0.28125
330,0.03149414,-0.9800415,0.20770264,-1.890625,0.53125,-0.90625
331,0.03100586,-1.005188,0.19525146,1.5625,4.5625,0.234375
332,0.049804688,-0.98687744,0.18060303,0.828125,6.765625,-0.640625
333,0.05053711,-0.97906494,0.20062256,-0.328125,5.71875,-3.03125
334,0.045410156,-0.9800415,0.20770264,1.890625,3.28125,-0.59375
335,0.037841797,-0.9824829,0.17694092,0.703125,2.15625,-0.0625
336,0.060546875,-0.98150635,0.17962646,0.375,4.703125,-1.015625
337,0.056884766,-0.97735596,0.1930542,2.734375,4.75,-1.578125
338,0.04638672,-0.975647,0.2074585,2.375,3.0625,-0.796875
339,0.020996094,-0.9768677,0.21746826,4.703125,-1.46875,1.46875
340,0.052490234,-0.987854,0.17425537,-0.171875,-2.046875,2.59375
341,0.061523438,-0.9795532,0.15716553,-2.96875,-0.359375,-0.46875
342,0.05493164,-0.98565674,0.18060303,2.109375,1.59375,-0.625
343,0.038330078,-0.9883423,0.19769287,1.921875,-0.546875,0.75
344,0.029541016,-0.975647,0.20257568,-0.21875,-1.390625,1.0
345,0.044677734,-0.97076416,0.215271,-0.59375,-6.8125,2.34375
346,0.022460938,-0.97540283,0.14349365,-8.0,-13.578125,4.453125
347,0.07006836,-1.0308228,0.1642456,-2.515625,4.03125,-1.265625
348,0.08496094,-0.9956665,0.20574951,1.328125,6.546875,-1.328125
349,0.011474609,-0.98565674,0.1786499,0.03125,1.078125,-1.078125
350,0.029052734,-0.9541626,0.20281982,0.265625,-0.3125,0.71875
351,0.05834961,-0.99176025,0.2177124,0.046875,-1.28125,1.078125
352,0.049316406,-0.9902954,0.16864014,-2.125,0.609375,-0.0625
353,0.05053711,-0.97320557,0.17767334,-0.015625,3.203125,-0.34375
354,0.037353516,-0.9985962,0.20599365,-0.375,4.21875,-1.15625
355,0.03930664,-0.9834595,0.19476318,-2.546875,3.171875,-1.125
356,0.037841797,-0.9685669,0.18988037,-0.625,1.515625,-0.21875
357,0.041992188,-0.98272705,0.20013428,0.34375,1.171875,0.359375
358,0.04248047,-0.9937134,0.19744873,1.265625,2.671875,1.046875
359,0.049316406,-0.97369385,0.18865967,0.984375,1.828125,-0.84375
360,0.05493164,-0.9656372,0.19769287,3.6875,-0.578125,-0.84375
361,0.04321289,-0.98272705,0.18621826,6.921875,0.890625,1.375
362,0.04711914,-0.9780884,0.16326904,8.390625,1.0625,2.1875
363,0.05419922,-0.9939575,0.15423584,9.84375,1.8125,1.578125
364,0.036132812,-1.0046997,0.16400146,7.046875,0.453125,4.59375
365,0.038330078,-0.9849243,0.15814209,-0.25,-0.375,1.65625
366,0.06298828,-1.0020142,0.14910889,-1.796875,1.0625,-0.703125
367,0.06274414,-0.9990845,0.14788818,-0.796875,1.390625,-0.09375
368,0.056396484,-0.97979736,0.14276123,0.25,0.359375,-0.09375
369,0.043701172,-1.0056763,0.14984131,-0.484375,-0.046875,-0.515625
370,0.05517578,-0.9758911,0.14276123,-2.15625,0.09375,0.1875
371,0.06225586,-0.9800415,0.1383667,1.625,1.453125,0.1875
372,0.052978516,-0.9885864,0.14520264,3.03125,1.1875,0.53125
373,0.040039062,-1.0020142,0.16693115,0.921875,-0.53125,0.65625
374,0.042236328,-0.99102783,0.14202881,-1.96875,0.125,0.875
375,0.06323242,-0.9846802,0.13153076,-1.3125,0.90625,0.09375
376,0.05029297,-0.98760986,0.15057373,-0.078125,1.328125,-0.78125
377,0.04711914,-0.9898071,0.15814209,0.578125,1.109375,-0.0625
378,0.04248047,-0.9949341,0.14642334,0.734375,0.265625,0.890625
379,0.06665039,-0.99053955,0.14910889,-0.4375,1.65625,0.703125
380,0.05883789,-0.97735596,0.13812256,-1.328125,1.234375,-0.234375
381,0.043701172,-0.9898071,0.14715576,-0.8125,1.421875,0.296875
382,0.044433594,-0.99591064,0.15887451,1.515625,0.640625,0.9375
383,0.040039062,-0.9973755,0.15716553,0.375,0.046875,0.953125
384,0.06958008,-0.98760986,0.13421631,-0.25,1.6875,1.078125
385,0.06542969,-0.9800415,0.1359253,-1.703125,2.515625,-0.40625
386,0.06298828,-0.9944458,0.14276123,-1.03125,1.625,-1.453125
387,0.059570312,-0.9968872,0.14788818,0.0,2.265625,-0.859375
388,0.07006836,-0.98638916,0.15179443,2.515625,4.015625,-0.890625
389,0.042236328,-0.9927368,0.15740967,3.65625,2.0,0.25
390,0.03125,-0.9768677,0.15814209,-0.734375,-0.296875,1.25
391,0.06518555,-0.9871216,0.14593506,-1.3125,1.828125,0.484375
392,0.05810547,-0.9993286,0.14544678,0.140625,2.53125,-0.875
393,0.044433594,-0.98883057,0.1437378,-0.90625,0.765625,-0.359375
394,0.053710938,-0.9829712,0.13763428,-0.71875,0.96875,0.296875
395,0.055419922,-0.98272705,0.12567139,-0.1875,1.65625,0.203125
396,0.063964844,-0.9854126,0.13397217,2.28125,3.828125,-0.328125
397,0.05102539,-0.9920044,0.13885498,3.625,4.046875,0.015625
398,0.04248047,-0.9939575,0.15032959,2.4375,2.359375,-0.03125
399,0.040771484,-0.9871216,0.15081787,-0.03125,-0.671875,0.5625
400,0.05126953,-0.98931885,0.14520264,-3.28125,-0.234375,0.921875
401,0.061523438,-1.00177,0.12957764,-1.75,3.09375,-1.0
402,0.059570312,-0.986145,0.137146,0.78125,1.53125,-0.390625
403,0.041748047,-0.9944458,0.15252686,0.875,1.421875,1.296875
404,0.057128906,-0.9866333,0.13616943,-1.96875,1.46875,-0.0625
405,0.06591797,-0.9846802,0.1281128,-0.46875,2.265625,0.015625
406,0.05126953,-0.991272,0.13250732,0.5625,2.015625,0.578125
407,0.05053711,-0.9949341,0.1329956,-2.328125,0.8125,-0.578125
408,0.046142578,-0.9920044,0.14276123,-2.015625,2.640625,-0.921875
409,0.05053711,-0.9883423,0.14935303,-0.140625,4.046875,-0.21875
410,0.053710938,-0.9824829,0.15008545,-1.234375,3.921875,-0.953125
411,0.049072266,-0.9776001,0.168396,-3.453125,0.546875,-0.5
412,0.04663086,-0.98394775,0.14642334,-3.234375,1.046875,-0.234375
413,0.041992188,-1.0007935,0.14129639,0.0,1.65625,-0.75
414,0.057617188,-0.9690552,0.16473389,0.671875,-2.109375,0.015625
415,0.019042969,-0.9734497,0.16448975,-2.125,-6.28125,1.515625
416,0.044189453,-1.0005493,0.17230225,1.296875,2.140625,1.921875
417,0.072753906,-0.99884033,0.15594482,4.546875,3.53125,1.984375
418,0.061035156,-0.9800415,0.14129639,1.640625,-0.375,0.765625
419,0.026123047,-0.97662354,0.14276123,-0.625,-2.28125,0.625
420,0.04345703,-1.0007935,0.16473389,-3.8125,-2.03125,-0.234375
421,0.06274414,-0.9993286,0.16253662,-2.28125,1.421875,1.0
422,0.079833984,-1.0076294,0.13983154,-1.09375,3.984375,0.671875
423,0.057128906,-0.9998169,0.12640381,-3.296875,5.953125,-1.640625
424,0.045654297,-0.98321533,0.14935303,-0.234375,10.0,-4.078125
425,0.031982422,-0.97906494,0.16400146,5.578125,6.703125,-1.328125
426,0.042236328,-0.989563,0.15667725,1.15625,5.6875,-0.75
427,0.0637207,-0.9651489,0.14886475,-0.390625,3.4375,-2.484375
428,0.048095703,-0.9690552,0.1605835,0.109375,-0.328125,-0.046875
429,0.0056152344,-0.99420166,0.14886475,-0.734375,-1.890625,1.0
430,0.03881836,-1.0044556,0.15838623,-0.046875,-0.53125,-0.625
431,0.04638672,-0.9795532,0.1593628,1.53125,-1.0,0.453125
432,0.044189453,-0.98321533,0.14935303,3.609375,0.875,0.0625
433,0.040771484,-0.9729614,0.14031982,3.96875,-0.171875,0.359375
434,0.03540039,-0.9932251,0.13787842,4.046875,-1.671875,1.375
435,0.04248047,-0.9956665,0.1408081,0.984375,-0.828125,1.5
436,0.04638672,-1.0025024,0.13763428,-0.1875,-0.46875,1.171875
437,0.03173828,-0.9841919,0.1161499,-0.734375,-0.03125,0.1875
438,0.044433594,-0.9902954,0.13275146,0.46875,0.34375,0.34375
439,0.03930664,-0.9859009,0.13787842,0.828125,1.125,0.625
440,0.047851562,-0.99102783,0.1317749,0.5,0.234375,-0.28125
441,0.046875,-0.9795532,0.12322998,3.375,0.28125,0.875
442,0.05126953,-0.9729614,0.11834717,8.71875,0.734375,2.03125
443,0.05078125,-1.0127563,0.113708496,6.953125,0.640625,3.515625
444,0.037109375,-1.0012817,0.117126465,-0.578125,-1.078125,2.890625
445,0.045898438,-1.0010376,0.11468506,-1.484375,-0.03125,0.046875
446,0.05810547,-1.0073853,0.10809326,1.21875,1.90625,0.125
447,0.051513672,-0.991272,0.1071167,-2.15625,0.765625,0.375
448,0.045898438,-0.9924927,0.11175537,-0.953125,0.8125,-0.015625
449,0.03955078,-0.9846802,0.13519287,-1.578125,-0.03125,-0.0625
450,0.049072266,-0.99102783,0.11956787,-1.734375,1.015625,1.0
451,0.06323242,-0.9883423,0.09881592,-0.796875,1.640625,0.859375
452,0.059814453,-0.9968872,0.113220215,-0.546875,0.9375,-0.359375
453,0.056884766,-0.99468994,0.1161499,-1.34375,1.265625,0.109375
454,0.045410156,-0.98638916,0.12054443,-1.859375,-0.015625,-0.078125
455,0.04663086,-0.98883057,0.11907959,-0.46875,0.03125,0.140625
456,0.060302734,-0.9985962,0.117614746,0.03125,1.921875,0.390625
457,0.048828125,-0.9885864,0.11834717,-0.25,0.875,0.125
458,0.04711914,-0.989563,0.12591553,-0.34375,0.765625,-0.015625
459,0.059570312,-0.99005127,0.1239624,-0.0625,2.109375,0.359375
460,0.04638672,-0.9890747,0.12542725,-0.859375,0.9375,0.125
461,0.048583984,-1.0005493,0.117126465,-0.40625,1.140625,0.109375
462,0.05517578,-0.98687744,0.11785889,0.1875,1.4375,0.46875
463,0.06616211,-0.9783325,0.12445068,0.28125,2.75,0.546875
464,0.05126953,-0.9854126,0.1329956,0.5625,1.796875,-0.59375
465,0.030029297,-1.0037231,0.13690186,1.265625,0.453125,0.390625
466,0.043945312,-0.9866333,0.12420654,0.4375,0.671875,2.0625
467,0.07299805,-0.9846802,0.11834717,1.28125,3.296875,0.78125
468,0.05883789,-0.9898071,0.11102295,1.140625,1.921875,-0.46875
469,0.051513672,-0.97979736,0.11883545,-1.5,-0.796875,-0.375
470,0.055908203,-0.9963989,0.1227417,-0.328125,1.109375,0.484375
471,0.056396484,-1.0037231,0.11199951,1.3125,2.40625,0.53125
472,0.051513672,-0.991272,0.11077881,0.109375,1.5,0.140625
473,0.05444336,-0.9841919,0.1251831,0.625,1.375,0.171875
474,0.059326172,-0.9939575,0.12738037,-0.09375,1.1875,0.09375
475,0.05053711,-0.99176025,0.12322998,-1.140625,0.96875,-0.15625
476,0.05029297,-0.98028564,0.12176514,0.453125,1.734375,0.078125
477,0.06274414,-0.9939575,0.11834717,0.890625,2.203125,0.09375
478,0.059326172,-0.9898071,0.1149292,-1.53125,0.984375,0.453125
479,0.056884766,-0.9956665,0.116882324,0.171875,0.734375,0.21875
480,0.05126953,-0.9973755,0.12200928,0.734375,0.453125,0.296875
481,0.060302734,-0.9866333,0.11248779,-1.109375,0.0,0.015625
482,0.04321289,-0.9902954,0.11224365,-2.34375,-0.5,0.15625
483,0.044677734,-0.9973755,0.13787842,-5.828125,-1.453125,0.078125
484,0.039794922,-0.9885864,0.17449951,-10.46875,-2.984375,1.578125
485,0.024658203,-0.9763794,0.14324951,-14.265625,-4.59375,1.921875
486,0.11816406,-0.9907837,0.16864014,0.453125,-0.5625,0.3125
487,0.07373047,-1.0178833,0.14398193,7.5,0.8125,-1.953125
488,0.021728516,-0.9795532,0.13275146,-3.5,-3.375,0.671875
489,0.041259766,-0.9614868,0.18353271,-4.28125,-1.078125,0.796875
490,0.064941406,-0.9758911,0.19476318,1.5,0.59375,-0.21875
491,0.06713867,-1.0039673,0.15057373,-0.09375,-0.046875,2.0625
492,0.068359375,-0.9668579,0.13323975,-2.375,2.046875,0.953125
493,0.028808594,-0.9981079,0.16619873,0.875,0.796875,0.71875
494,0.06347656,-0.97320557,0.15545654,-1.078125,3.515625,0.484375
495,0.07373047,-0.98516846,0.15789795,0.265625,2.453125,-0.546875
496,0.07055664,-1.0032349,0.14886475,0.859375,5.359375,-1.359375
497,0.052490234,-0.9866333,0.15447998,0.53125,6.609375,-3.046875
498,0.043701172,-0.98516846,0.16815186,2.65625,6.640625,-1.3125
499,0.037353516,-0.9846802,0.15960693,1.625,6.265625,-0.625
500,0.059814453,-0.9939575,0.15008545,0.328125,5.515625,-0.703125
501,0.048095703,-0.9871216,0.15740967,1.09375,4.75,-0.546875
502,0.034423828,-0.99176025,0.17254639,2.8125,1.21875,0.03125
503,0.04638672,-0.97369385,0.13397217,0.296875,1.546875,0.28125
504,0.056640625,-0.97784424,0.1461792,2.546875,1.84375,-1.0
505,0.060302734,-0.99835205,0.14959717,5.765625,1.703125,-0.09375
506,0.037109375,-0.98101807,0.14031982,0.84375,-0.921875,2.375
507,0.05078125,-0.9998169,0.13494873,-0.40625,0.40625,1.078125
508,0.07495117,-0.9841919,0.1251831,1.234375,3.078125,-1.140625
509,0.05419922,-0.97662354,0.12664795,4.3125,2.015625,0.078125
510,0.049316406,-0.98638916,0.13323975,8.328125,1.640625,1.046875
511,0.042236328,-1.0171509,0.11883545,3.09375,-1.125,3.0625
512,0.057861328,-0.9990845,0.11273193,-0.78125,0.3125,1.015625
513,0.060302734,-0.9800415,0.11932373,1.875,1.265625,-0.1875
514,0.060546875,-0.99420166,0.10418701,0.1875,1.25,-0.328125
515,0.059326172,-0.9927368,0.11199951,0.65625,1.828125,-0.046875
516,0.05444336,-1.000061,0.101257324,1.859375,0.46875,0.171875
517,0.05444336,-0.9927368,0.109802246,1.765625,0.03125,0.6875
518,0.060791016,-0.9939575,0.09979248,2.25,1.703125,0.765625
519,0.063964844,-0.99102783,0.094177246,3.484375,1.625,0.59375
520,0.060058594,-0.9944458,0.09124756,3.703125,0.796875,1.265625
521,0.061035156,-0.9805298,0.08026123,4.921875,1.671875,1.046875
522,0.064697266,-0.9937134,0.081970215,6.453125,0.875,1.984375
523,0.052734375,-1.0178833,0.07220459,3.5625,1.78125,2.359375
524,0.056884766,-1.0020142,0.07952881,1.515625,0.375,1.046875
525,0.068603516,-1.0025024,0.074645996,-1.046875,1.59375,0.8125
526,0.08227539,-0.991272,0.06072998,-1.125,2.796875,0.234375
527,0.063964844,-0.99835205,0.06976318,-1.765625,1.6875,-1.53125
528,0.05810547,-0.9968872,0.08074951,-1.75,-0.265625,-1.28125
529,0.060302734,-0.9993286,0.08026123,-2.359375,0.46875,0.765625
530,0.087646484,-0.97247314,0.0692749,-3.09375,-0.0625,-0.28125
531,0.049560547,-0.99786377,0.08929443,-2.671875,-2.0625,-2.09375
532,0.04736328,-1.006897,0.10101318,-0.40625,0.3125,0.234375
533,0.064453125,-0.9932251,0.0927124,-1.375,2.0,0.5625
534,0.048583984,-0.9837036,0.08856201,-1.015625,0.1875,-1.453125
535,0.045410156,-0.9993286,0.09613037,0.609375,-0.359375,0.53125
536,0.057128906,-0.991272,0.09637451,-0.46875,1.515625,1.796875
537,0.0703125,-0.9829712,0.08270264,-0.078125,1.765625,0.453125
538,0.06298828,-0.991272,0.10247803,0.5625,-0.140625,-0.359375
539,0.05859375,-1.0027466,0.0993042,1.390625,-0.140625,0.953125
540,0.05908203,-1.0027466,0.09857178,2.765625,1.828125,1.265625
541,0.060791016,-1.0044556,0.07318115,-0.828125,0.6875,1.71875
542,0.06298828,-1.0134888,0.070251465,-0.703125,2.46875,-1.078125
543,0.061279297,-0.96417236,0.097839355,2.84375,1.546875,-0.171875
544,0.087402344,-0.9680786,0.06854248,1.984375,3.6875,1.8125
545,0.09057617,-0.9717407,0.04144287,-2.28125,0.015625,-1.046875
546,0.049804688,-1.0003052,0.06536865,0.40625,-0.671875,-1.546875
547,0.052734375,-1.0269165,0.09173584,4.671875,2.25,1.96875
548,0.06323242,-0.98150635,0.066101074,1.734375,4.078125,2.40625
549,0.060058594,-0.9702759,0.07513428,0.40625,3.171875,0.765625
550,0.0637207,-0.9902954,0.08782959,-0.796875,0.578125,-0.5625
551,0.048339844,-1.0186157,0.093688965,-3.046875,0.1875,0.421875
552,0.076416016,-0.99468994,0.078063965,-0.40625,2.125,0.71875
553,0.064453125,-0.99542236,0.06072998,2.015625,2.578125,0.421875
554,0.06616211,-0.9807739,0.06414795,1.140625,2.1875,-0.046875
555,0.061279297,-0.99468994,0.07562256,4.421875,1.84375,1.28125
556,0.08642578,-0.99102783,0.070495605,3.109375,2.515625,3.296875
557,0.087646484,-0.99884033,0.05218506,0.390625,1.28125,1.625
558,0.068603516,-0.9949341,0.05609131,-0.78125,0.21875,0.34375
559,0.072265625,-1.0095825,0.066833496,1.6875,1.875,1.015625
560,0.08520508,-0.99835205,0.05999756,0.96875,2.734375,0.65625
561,0.06616211,-0.99053955,0.047790527,-1.15625,0.828125,-0.234375
562,0.07763672,-1.0007935,0.06317139,-0.828125,1.484375,-0.59375
563,0.075683594,-0.98760986,0.07366943,0.84375,2.28125,0.296875
564,0.07885742,-0.9854126,0.04901123,-0.046875,2.1875,0.65625
565,0.07836914,-0.987854,0.053894043,-1.046875,1.0625,-0.375
566,0.0715332,-0.9976196,0.061462402,-0.75,0.5625,0.078125
567,0.08203125,-1.0049438,0.05340576,-0.703125,1.6875,-0.21875
568,0.080566406,-0.97857666,0.06536865,-1.125,0.890625,-0.6875
569,0.06591797,-0.9800415,0.085876465,0.671875,0.203125,-0.546875
570,0.060058594,-1.005188,0.08343506,-0.015625,-1.65625,0.515625
571,0.0703125,-1.0154419,0.05731201,-0.796875,0.03125,0.75
572,0.08569336,-0.9939575,0.04949951,-0.53125,0.1875,-1.046875
573,0.0637207,-0.9746704,0.06512451,0.46875,-1.15625,-1.53125
574,0.076416016,-0.97198486,0.06854248,-1.390625,0.703125,-0.875
575,0.06518555,-0.98150635,0.06536865,-5.828125,-2.078125,-1.234375
576,0.013183594,-1.024231,0.094177246,-7.203125,-2.8125,1.875
577,0.0769043,-1.0286255,0.11566162,-5.609375,1.421875,2.609375
578,0.088134766,-0.9829712,0.1149292,-11.140625,-6.828125,-0.484375
579,0.034179688,-0.94366455,0.15203857,-26.359375,-13.8125,0.46875
580,0.055419922,-0.9714966,0.16107178,-15.59375,-0.28125,-2.59375
581,0.15771484,-1.0484009,0.17279053,-0.84375,-1.5625,-2.734375
582,0.047851562,-0.99884033,0.17718506,-5.71875,-13.296875,5.015625
583,-0.08618164,-0.9480591,0.057556152,-2.9375,-1.171875,3.171875
584,0.20751953,-0.92144775,0.1720581,5.4375,8.640625,4.140625
585,0.09472656,-1.0496216,0.19744873,13.84375,4.1875,-2.34375
586,0.052246094,-0.9817505,0.14251709,1.234375,-2.40625,1.296875
587,0.05029297,-0.9378052,0.15179443,5.296875,0.234375,1.53125
588,0.07324219,-1.0149536,0.13665771,0.03125,3.6875,-1.984375
589,0.072265625,-0.9993286,0.13739014,0.5625,-1.359375,0.703125
590,0.078125,-0.9651489,0.1564331,5.34375,1.234375,0.6875
591,0.06591797,-1.0054321,0.14056396,-0.796875,2.734375,-0.109375
592,0.05883789,-0.9795532,0.13348389,-2.71875,0.078125,1.421875
593,0.0871582,-0.9746704,0.11932373,1.78125,-0.296875,1.765625
594,0.0949707,-0.9885864,0.13397217,-0.34375,1.65625,-0.09375
595,0.060302734,-0.9951782,0.15081787,-0.375,0.5,-0.5625
596,0.061035156,-0.98809814,0.13690186,-0.28125,-0.65625,0.5625
597,0.08227539,-0.98394775,0.12982178,-1.734375,2.125,0.265625
598,0.087646484,-0.99005127,0.10443115,-2.84375,2.515625,-1.234375
599,0.07421875,-0.9915161,0.14764404,-4.515625,1.515625,-1.375
600,0.052001953,-0.98223877,0.1749878,-0.609375,-0.109375,1.375
601,0.052978516,-0.97613525,0.14788818,3.921875,5.453125,2.125
602,0.087890625,-0.9998169,0.15301514,4.375,4.90625,-0.390625
603,0.095947266,-0.9883423,0.16888428,0.203125,1.546875,0.15625
604,0.061035156,-0.9702759,0.15179443,-0.828125,-0.84375,0.703125
605,0.07836914,-0.98809814,0.13934326,2.0625,1.625,0.828125
606,0.091308594,-0.991272,0.1239624,1.515625,2.109375,-0.53125
607,0.06689453,-0.9800415,0.13641357,1.859375,0.171875,-0.21875
608,0.076660156,-0.989563,0.13787842,2.0625,1.890625,0.921875
609,0.072509766,-0.9927368,0.13250732,-1.640625,1.546875,0.796875
610,0.08520508,-0.98883057,0.13543701,-3.4375,0.328125,0.203125
611,0.075927734,-0.987854,0.124938965,-3.25,1.265625,-0.140625
612,0.08276367,-0.9937134,0.13983154,-0.921875,2.21875,0.5
613,0.064208984,-0.9837036,0.14300537,0.9375,2.3125,0.53125
614,0.049072266,-0.97857666,0.13885498,3.171875,2.15625,1.453125
615,0.099609375,-0.99298096,0.13470459,0.59375,1.421875,1.515625
616,0.09375,-0.9824829,0.13372803,-2.328125,0.875,0.390625
617,0.08276367,-0.98565674,0.13616943,-0.21875,-0.5,-1.5
618,0.057617188,-0.9944458,0.13983154,1.75,2.015625,0.359375
619,0.084472656,-0.987854,0.14300537,-1.0,2.109375,1.578125
620,0.08959961,-0.9890747,0.13665771,-2.984375,2.125,0.734375
621,0.11743164,-0.9949341,0.13568115,-1.890625,2.046875,0.34375
622,0.06665039,-0.9619751,0.13909912,2.421875,2.734375,0.765625
623,0.06518555,-0.9714966,0.14520264,2.953125,2.109375,1.078125
624,0.08544922,-0.9998169,0.1593628,1.359375,1.609375,0.609375
625,0.08251953,-1.006897,0.12615967,0.625,0.859375,0.265625
626,0.084228516,-0.98101807,0.13909912,-0.421875,1.96875,0.078125
627,0.087646484,-0.9795532,0.14984131,-1.140625,0.375,-0.84375
628,0.061523438,-0.9817505,0.13665771,-3.03125,0.09375,0.703125
629,0.10498047,-0.9768677,0.12322998,0.9375,1.90625,0.234375
630,0.10424805,-1.0022583,0.1293335,3.296875,2.96875,0.6875
631,0.0859375,-0.9795532,0.13006592,-0.3125,-0.796875,0.203125
632,0.08886719,-0.9714966,0.124938965,-0.65625,-0.578125,0.265625
633,0.09033203,-0.98516846,0.13568115,-0.625,0.96875,0.734375
634,0.09008789,-1.0007935,0.13226318,0.140625,0.90625,0.140625
635,0.07470703,-0.98760986,0.1251831,1.140625,0.765625,-0.09375
636,0.076416016,-0.9829712,0.13641357,2.578125,0.75,0.046875
637,0.07714844,-1.00177,0.1437378,1.640625,1.96875,1.515625
638,0.092285156,-0.9819946,0.12640381,-2.21875,1.546875,0.03125
639,0.088134766,-0.9834595,0.12371826,-2.375,0.75,-0.5625
640,0.07836914,-0.99884033,0.13885498,-0.265625,1.015625,-0.375
641,0.0871582,-0.98760986,0.13543701,-0.765625,1.8125,1.03125
642,0.107666016,-0.97125244,0.11859131,-2.234375,1.171875,-0.703125
643,0.091308594,-0.9824829,0.14227295,0.65625,2.15625,-1.234375
644,0.080322266,-1.0020142,0.15716553,3.109375,2.578125,0.5
645,0.071777344,-0.9924927,0.13494873,-0.53125,-0.078125,1.25
646,0.07885742,-0.97052,0.113708496,-2.109375,1.4375,0.328125
647,0.08251953,-0.9812622,0.14398193,-0.265625,1.65625,-0.578125
648,0.09057617,-1.003479,0.13885498,-0.90625,1.390625,-0.40625
649,0.071777344,-0.9873657,0.1317749,-2.5625,0.46875,-0.609375
650,0.08300781,-0.986145,0.13006592,-1.171875,1.453125,0.21875
651,0.09667969,-0.98883057,0.14202881,0.765625,3.328125,-0.609375
652,0.080078125,-0.98638916,0.14544678,0.21875,1.0,-0.875
653,0.0769043,-0.98101807,0.14520264,-0.453125,1.15625,0.234375
654,0.08569336,-0.9817505,0.13006592,0.75,3.78125,0.296875
655,0.095458984,-0.9883423,0.13641357,3.5625,5.0,-0.859375
656,0.07763672,-0.99053955,0.1329956,5.765625,2.8125,-1.265625
657,0.057373047,-0.97198486,0.12420654,3.15625,1.859375,-0.140625
658,0.09033203,-0.9956665,0.1227417,0.46875,1.71875,0.90625
659,0.08544922,-0.9985962,0.10614014,-0.6875,1.296875,0.34375
660,0.07495117,-0.9824829,0.121520996,0.484375,-0.328125,-0.15625
661,0.06225586,-0.9902954,0.12030029,0.609375,1.625,0.21875
662,0.08227539,-0.9866333,0.124938965,-0.796875,3.34375,0.296875
663,0.072509766,-0.98638916,0.11590576,-0.40625,1.53125,-0.25
664,0.07788086,-1.0005493,0.11102295,-0.265625,2.75,-0.25
665,0.0949707,-1.003479,0.113708496,-1.03125,6.40625,-0.875
666,0.084472656,-0.9981079,0.11053467,1.96875,5.328125,-2.359375
667,0.067871094,-0.98883057,0.12445068,4.171875,3.6875,-0.640625
668,0.06982422,-0.96295166,0.12200928,0.359375,1.9375,0.78125
669,0.067871094,-0.99005127,0.113464355,-1.3125,-1.796875,-0.515625
670,0.08251953,-0.98809814,0.1161499,-1.71875,1.0,-0.34375
671,0.06665039,-0.9985962,0.1161499,1.125,0.484375,-0.40625
672,0.05883789,-0.9783325,0.11151123,-1.625,-1.125,0.125
673,0.064941406,-0.97613525,0.12542725,-3.640625,-3.578125,0.3125
674,0.055664062,-0.9859009,0.14129639,-3.859375,-1.046875,-0.03125
675,0.08959961,-1.0088501,0.16375732,-3.71875,1.1875,0.21875
676,0.07714844,-1.0029907,0.18450928,-14.546875,-7.71875,1.453125
677,0.028076172,-0.97125244,0.1918335,-28.8125,-19.828125,1.609375
678,0.013427734,-0.9673462,0.2267456,-22.53125,-16.578125,0.71875
679,0.1003418,-0.96661377,0.13372803,-6.125,1.875,0.515625
680,0.22241211,-0.99957275,0.17718506,7.734375,10.40625,2.4375
681,0.048339844,-0.99005127,0.25042725,18.0625,0.75,-0.140625
682,-0.0024414062,-0.97613525,0.20526123,4.765625,-4.09375,2.140625
683,0.043945312,-0.92803955,0.16815186,-1.78125,-0.484375,3.328125
684,0.15429688,-1.0005493,0.1798706,4.4375,5.09375,1.484375
685,0.08666992,-1.0147095,0.19622803,6.828125,1.484375,0.578125
686,0.032226562,-0.9793091,0.17449951,2.40625,-0.8125,0.09375
687,0.072265625,-0.9627075,0.1618042,-0.375,2.546875,0.484375
688,0.0925293,-0.9768677,0.15057373,0.515625,3.125,0.984375
689,0.076660156,-0.9898071,0.16888428,3.265625,-0.625,-0.015625
690,0.07788086,-0.9873657,0.17303467,0.453125,0.9375,-0.40625
691,0.083740234,-0.99224854,0.17474365,0.984375,2.34375,0.046875
692,0.07714844,-0.98223877,0.17254639,-0.96875,0.8125,0.453125
693,0.08496094,-0.9800415,0.14447021,-1.828125,0.984375,-0.140625
694,0.09814453,-0.9817505,0.17034912,-0.546875,1.984375,-0.359375
695,0.0769043,-0.989563,0.17840576,-0.078125,0.28125,-0.75
696,0.06616211,-0.98150635,0.18011475,-0.21875,0.96875,-0.015625
697,0.08300781,-0.97369385,0.17327881,-0.71875,2.25,0.515625
698,0.07763672,-0.99957275,0.16107178,-1.6875,2.8125,-0.171875
699,0.06982422,-0.9998169,0.17034912,-2.53125,5.84375,-0.65625
700,0.0769043,-0.99053955,0.184021,3.515625,7.546875,-1.171875
701,0.06347656,-0.9829712,0.16693115,-0.53125,3.5,-1.140625
702,0.052246094,-0.97320557,0.17303467,-1.765625,1.515625,-1.234375
703,0.064697266,-0.98443604,0.17327881,2.53125,3.40625,-0.40625
704,0.10180664,-0.98809814,0.16400146,0.796875,3.640625,-0.046875
705,0.08935547,-0.98883057,0.15594482,-1.09375,0.78125,-0.796875
706,0.057861328,-0.9805298,0.17376709,-0.515625,2.71875,-1.53125
707,0.07128906,-0.9834595,0.1954956,2.546875,2.046875,-0.5
708,0.059326172,-0.97369385,0.15911865,-1.765625,0.5625,0.625
709,0.0625,-0.98687744,0.1539917,-0.890625,3.828125,-0.53125
710,0.08886719,-1.0032349,0.17425537,5.1875,6.921875,-2.078125
711,0.05126953,-0.9927368,0.18011475,1.8125,2.0,-0.234375
712,0.03955078,-0.973938,0.1671753,-2.8125,-2.53125,1.609375
713,0.06958008,-0.9907837,0.15032959,-1.703125,3.671875,-0.28125
714,0.10571289,-0.9963989,0.14447021,-1.421875,4.75,-2.15625
715,0.05078125,-1.0020142,0.18109131,-2.171875,2.9375,-1.390625
716,0.034179688,-0.98321533,0.18695068,-1.421875,2.234375,-0.890625
717,0.05126953,-0.96343994,0.1605835,0.015625,2.03125,-0.75
718,0.09472656,-0.97442627,0.16571045,0.46875,-1.421875,0.625
719,0.061279297,-0.98638916,0.17034912,-0.15625,-1.109375,-0.515625
720,0.055908203,-0.9751587,0.17694092,-1.40625,-1.21875,-0.15625
721,0.060791016,-0.9417114,0.113708496,8.359375,-0.890625,0.25
722,0.10131836,-1.0249634,0.14227295,16.0,-1.015625,-1.953125
723,0.026855469,-1.0164185,0.17669678,6.3125,-4.609375,-1.140625
724,0.017089844,-0.987854,0.14984131,-3.25,0.75,2.59375
725,0.033447266,-0.944397,0.10467529,1.765625,2.5625,2.28125
726,0.083984375,-1.0261841,0.1239624,3.78125,0.03125,-1.3125
727,0.05078125,-1.0090942,0.14031982,-0.171875,-0.5625,1.28125
728,0.032226562,-0.98883057,0.13031006,-0.828125,-0.328125,2.078125
729,0.0625,-0.9727173,0.105407715,-2.453125,2.71875,0.90625
730,0.08691406,-1.0078735,0.13763428,1.0,3.03125,-0.859375
731,0.045410156,-0.99542236,0.124694824,1.125,0.46875,0.515625
732,0.037597656,-0.99664307,0.1317749,-0.703125,0.15625,0.59375
733,0.08300781,-0.954895,0.13812256,-1.3125,0.28125,0.078125
734,0.083496094,-1.0088501,0.13031006,0.546875,0.15625,-0.78125
735,0.06225586,-1.0029907,0.117126465,-2.25,0.453125,-0.390625
736,0.053955078,-0.97003174,0.13494873,1.046875,1.65625,0.484375
737,0.049560547,-0.99298096,0.13983154,5.34375,2.328125,1.640625
738,0.060791016,-1.0071411,0.12738037,3.25,2.3125,2.46875
739,0.06347656,-0.991272,0.11834717,2.28125,1.828125,1.625
740,0.053466797,-0.9866333,0.10101318,-0.0625,0.515625,0.140625
741,0.072265625,-0.99005127,0.11126709,-2.53125,2.078125,0.234375
742,0.072021484,-0.97369385,0.11395264,-1.84375,1.6875,-0.921875
743,0.048339844,-1.0164185,0.1239624,3.8125,0.78125,-0.5
744,0.05834961,-0.97198486,0.10296631,5.4375,2.1875,4.015625
745,0.08496094,-0.9956665,0.08758545,0.609375,3.0,3.109375
746,0.09033203,-0.9866333,0.10614014,-1.3125,1.203125,0.40625
747,0.08105469,-0.99224854,0.1083374,3.875,1.296875,-0.328125
748,0.07080078,-0.9819946,0.11273193,4.78125,2.546875,2.296875
749,0.068847656,-1.013977,0.097839355,5.234375,3.984375,3.609375
750,0.06933594,-0.98516846,0.08441162,-0.515625,0.609375,0.84375
751,0.08935547,-0.989563,0.0927124,-1.578125,-2.3125,-1.734375
752,0.092285156,-0.9951782,0.097839355,1.515625,2.5,1.140625
753,0.05834961,-0.98809814,0.08343506,-0.171875,2.265625,0.984375
754,0.075683594,-0.9951782,0.09832764,-1.8125,-0.53125,-0.671875
755,0.080322266,-0.9961548,0.11004639,-3.796875,-0.546875,0.359375
756,0.08862305,-0.9834595,0.10101318,-0.765625,1.90625,0.921875
757,0.072753906,-0.98687744,0.07733154,1.125,1.890625,-0.296875
758,0.072021484,-0.99176025,0.09124756,-1.5625,-0.6875,-0.109375
759,0.080322266,-0.9846802,0.105163574,-2.453125,-0.296875,0.546875
