sample_no,accel_x,accel_y,accel_z,gyro_x,gyro_y,gyro_z
0,-0.13867188,-0.37164307,1.0160522,0.1875,-1.125,0.765625
1,-0.14672852,-0.37164307,1.0392456,0.734375,-1.359375,0.765625
2,-0.15307617,-0.36968994,1.0302124,-0.609375,-0.984375,1.28125
3,-0.15014648,-0.3718872,0.99554443,0.28125,-1.328125,0.890625
4,-0.14990234,-0.36846924,1.0062866,0.65625,-0.921875,0.921875
5,-0.16503906,-0.36260986,1.0165405,0.453125,0.4375,1.171875
6,-0.15673828,-0.37261963,1.0140991,0.328125,-1.03125,0.4375
7,-0.14868164,-0.37213135,1.0082397,0.09375,-1.453125,0.484375
8,-0.1574707,-0.3809204,1.0333862,1.71875,-1.65625,0.546875
9,-0.1616211,-0.36480713,1.0004272,-0.015625,-1.890625,0.6875
10,-0.15161133,-0.36798096,1.0233765,-0.03125,-1.46875,0.90625
11,-0.15209961,-0.37286377,1.015564,1.09375,-2.921875,0.609375
12,-0.15893555,-0.3718872,1.0072632,0.421875,-1.796875,0.6875
13,-0.16625977,-0.3711548,1.0148315,1.421875,-0.296875,0.453125
14,-0.17041016,-0.3711548,1.013855,1.65625,-0.890625,0.5625
15,-0.16357422,-0.38604736,1.027771,2.140625,0.671875,0.71875
16,-0.16333008,-0.3899536,1.0067749,1.03125,0.03125,0.9375
17,-0.16137695,-0.3809204,1.0079956,1.328125,0.03125,1.03125
18,-0.1616211,-0.38067627,1.0175171,0.9375,0.0,0.890625
19,-0.16503906,-0.37945557,1.0167847,1.1875,-0.21875,1.046875
20,-0.1652832,-0.3814087,1.0101929,0.5625,0.453125,0.765625
21,-0.16625977,-0.38433838,1.0162964,0.796875,0.34375,0.859375
22,-0.15942383,-0.378479,1.017273,0.9375,0.109375,0.640625
23,-0.16235352,-0.3892212,1.0150757,0.765625,0.15625,0.8125
24,-0.15722656,-0.38311768,1.0067749,0.75,0.484375,1.0625
25,-0.15356445,-0.39508057,1.0145874,1.0,0.4375,0.71875
26,-0.1652832,-0.38653564,1.0128784,0.390625,0.25,0.796875
27,-0.15649414,-0.39361572,1.0153198,0.0625,0.5625,0.828125
28,-0.15356445,-0.3904419,1.0180054,0.546875,0.671875,0.703125
29,-0.14404297,-0.3850708,1.0148315,0.984375,-0.578125,0.5625
30,-0.14819336,-0.38824463,1.0082397,1.25,-0.359375,0.40625
31,-0.1574707,-0.38458252,1.0023804,0.53125,-0.75,0.546875
32,-0.13647461,-0.38702393,1.0385132,3.78125,-0.484375,0.40625
33,-0.17553711,-0.40655518,0.98065186,0.453125,-1.40625,1.265625
34,-0.16357422,-0.39483643,1.0123901,0.21875,0.5,0.8125
35,-0.15112305,-0.38165283,1.0092163,1.359375,-0.953125,-0.28125
36,-0.15307617,-0.38653564,1.0048218,1.65625,-0.5,-0.015625
37,-0.16918945,-0.4055786,1.0175171,0.46875,0.4375,-0.265625
38,-0.16113281,-0.3899536,1.0009155,0.125,-0.171875,-0.546875
39,-0.16552734,-0.4072876,1.0099487,0.296875,1.234375,-0.1875
40,-0.15576172,-0.39141846,0.99334717,0.328125,1.1875,0.015625
41,-0.14355469,-0.39385986,1.0119019,1.171875,0.625,0.03125
42,-0.14794922,-0.39093018,1.0050659,0.640625,-0.78125,-0.125
43,-0.15942383,-0.39093018,1.0065308,0.421875,-0.875,0.625
44,-0.1796875,-0.39605713,1.0067749,0.46875,-0.25,0.84375
45,-0.15771484,-0.3760376,1.010437,1.046875,-1.25,1.40625
46,-0.1796875,-0.42559814,0.99871826,0.515625,-1.5,2.125
47,-0.16357422,-0.4024048,1.0018921,-0.28125,-1.25,1.015625
48,-0.18701172,-0.40875244,1.0128784,0.8125,1.109375,0.796875
49,-0.15698242,-0.40460205,1.0062866,0.734375,-0.484375,0.828125
50,-0.16186523,-0.39239502,0.99505615,0.5625,-0.96875,1.03125
51,-0.16503906,-0.39556885,1.010437,1.109375,0.578125,1.078125
52,-0.16064453,-0.39215088,1.017273,0.84375,0.203125,0.84375
53,-0.16821289,-0.39508057,1.0021362,0.546875,-1.109375,1.015625
54,-0.16772461,-0.40777588,1.0023804,0.796875,-0.375,0.5625
55,-0.16479492,-0.4031372,1.0038452,0.9375,1.03125,0.921875
56,-0.14770508,-0.4138794,1.0199585,2.328125,0.9375,0.734375
57,-0.16552734,-0.39605713,0.9994507,0.765625,-0.34375,1.0
58,-0.16333008,-0.3970337,1.0067749,-0.09375,0.90625,0.90625
59,-0.15698242,-0.4031372,1.0101929,0.765625,-0.046875,0.796875
60,-0.15844727,-0.40386963,1.0018921,0.890625,-0.34375,0.65625
61,-0.17041016,-0.39898682,0.99090576,0.375,0.390625,0.578125
62,-0.15356445,-0.40264893,1.0136108,0.5,0.890625,0.609375
63,-0.16455078,-0.39849854,0.9996948,0.59375,-0.734375,0.671875
64,-0.16064453,-0.4138794,1.001648,0.90625,-1.59375,0.6875
65,-0.1628418,-0.40167236,1.007019,1.546875,-0.59375,0.5625
66,-0.15698242,-0.37945557,1.008728,-1.640625,-4.375,1.265625
67,-0.1652832,-0.40533447,1.0009155,-3.078125,-9.609375,1.1875
68,-0.17285156,-0.4212036,1.0026245,-0.84375,-3.859375,0.53125
69,-0.18896484,-0.4031372,1.0004272,-0.390625,-1.828125,0.328125
70,-0.19067383,-0.4085083,0.99676514,-0.265625,-1.015625,0.5
71,-0.18969727,-0.40411377,1.0040894,0.578125,-0.421875,0.265625
72,-0.18579102,-0.4031372,0.99554443,0.625,0.03125,0.484375
73,-0.18701172,-0.39508057,1.0031128,0.140625,-0.109375,0.375
74,-0.18774414,-0.395813,1.0189819,0.65625,0.34375,0.4375
75,-0.19042969,-0.39190674,1.0028687,0.84375,0.265625,0.578125
76,-0.19042969,-0.38702393,1.010437,-0.078125,0.1875,0.734375
77,-0.18261719,-0.38726807,1.0038452,-0.234375,-0.859375,1.125
78,-0.17895508,-0.40216064,1.0045776,-0.6875,-1.859375,1.296875
79,-0.1796875,-0.39678955,0.99798584,-1.46875,-1.890625,1.578125
80,-0.1940918,-0.40948486,1.0021362,-0.5625,-1.953125,1.09375
81,-0.19238281,-0.3916626,1.0094604,0.140625,-1.359375,0.703125
82,-0.19116211,-0.38458252,1.0011597,0.40625,-1.28125,0.8125
83,-0.20141602,-0.38238525,0.99749756,-0.90625,-0.890625,0.703125
84,-0.18579102,-0.40533447,1.0223999,-1.59375,-2.671875,0.765625
85,-0.20507812,-0.40167236,1.013855,-0.125,-4.40625,0.953125
86,-0.2175293,-0.38043213,1.0055542,0.25,-3.0625,0.984375
87,-0.20922852,-0.38458252,1.0045776,-0.84375,-3.28125,0.546875
88,-0.22314453,-0.3814087,0.99090576,-0.4375,-3.015625,0.46875
89,-0.20800781,-0.378479,1.00531,1.4375,-2.21875,0.875
90,-0.20898438,-0.37872314,0.9804077,1.203125,-2.171875,0.375
91,-0.22338867,-0.3892212,0.9862671,2.421875,-0.953125,0.328125
92,-0.21923828,-0.37628174,0.9869995,2.203125,1.875,0.78125
93,-0.21289062,-0.4060669,1.0131226,1.5,2.78125,1.046875
94,-0.22192383,-0.39141846,0.99823,1.484375,0.265625,0.75
95,-0.21655273,-0.40509033,0.99823,1.015625,1.59375,0.59375
96,-0.20751953,-0.3904419,1.0018921,1.078125,1.390625,0.3125
97,-0.2084961,-0.40142822,0.9977417,1.84375,0.578125,-0.03125
98,-0.2084961,-0.40704346,1.0009155,1.875,1.375,0.609375
99,-0.20727539,-0.3892212,1.0067749,1.21875,2.140625,1.15625
100,-0.20654297,-0.38726807,1.0006714,1.515625,0.890625,0.875
101,-0.20898438,-0.40802002,0.99090576,1.015625,1.203125,0.8125
102,-0.20288086,-0.39727783,0.9940796,1.40625,2.265625,1.390625
103,-0.19946289,-0.40289307,0.9996948,0.546875,0.875,1.234375
104,-0.19921875,-0.40460205,0.9891968,1.40625,0.625,0.96875
105,-0.19384766,-0.40264893,0.98968506,1.4375,1.765625,1.25
106,-0.17749023,-0.39093018,1.0011597,1.21875,0.890625,1.109375
107,-0.17871094,-0.41827393,1.0077515,5.171875,0.125,0.3125
108,-0.18139648,-0.409729,0.98846436,4.84375,0.984375,0.40625
109,-0.19238281,-0.41729736,0.9940796,2.46875,2.546875,0.265625
110,-0.18383789,-0.42877197,0.99554443,2.328125,1.078125,0.078125
111,-0.17822266,-0.42364502,0.9916382,-0.125,1.984375,1.390625
112,-0.17041016,-0.41412354,0.9945679,-0.3125,0.234375,1.078125
113,-0.18432617,-0.4277954,0.99627686,0.28125,0.46875,1.0625
114,-0.19580078,-0.4331665,0.99993896,0.078125,0.78125,0.796875
115,-0.1862793,-0.427063,0.99139404,0.3125,0.078125,0.578125
116,-0.16918945,-0.42315674,0.9923706,0.859375,0.4375,0.0625
117,-0.18286133,-0.41534424,0.9838257,0.3125,0.953125,0.5625
118,-0.1730957,-0.4055786,0.98968506,1.5,1.1875,0.578125
119,-0.1928711,-0.4199829,0.9970093,1.28125,-0.828125,0.5625
120,-0.17041016,-0.42486572,0.99383545,1.71875,-2.359375,-0.21875
121,-0.17382812,-0.41680908,0.98431396,1.59375,-1.09375,-0.078125
122,-0.19482422,-0.44610596,0.99017334,2.015625,-2.453125,-0.25
123,-0.18603516,-0.44561768,0.9852905,0.015625,-1.125,0.25
124,-0.1977539,-0.43145752,0.98553467,0.40625,0.15625,0.65625
125,-0.19238281,-0.43902588,0.9857788,-0.25,0.046875,1.3125
126,-0.17211914,-0.4192505,1.0011597,0.671875,0.5,0.84375
127,-0.18798828,-0.4307251,0.99212646,0.703125,0.453125,0.90625
128,-0.19189453,-0.43414307,0.9906616,0.4375,0.03125,0.65625
129,-0.1953125,-0.4282837,0.9906616,0.015625,0.09375,0.796875
130,-0.18286133,-0.42095947,0.9816284,0.453125,0.171875,1.015625
131,-0.18969727,-0.4421997,0.9838257,0.96875,0.59375,0.65625
132,-0.18408203,-0.43829346,0.9977417,0.8125,1.03125,0.71875
133,-0.19042969,-0.4290161,0.9852905,0.90625,0.25,0.953125
134,-0.18237305,-0.42877197,0.97528076,0.0625,0.90625,0.796875
135,-0.1809082,-0.4500122,0.99261475,0.109375,-0.5,0.859375
136,-0.18237305,-0.43829346,0.98431396,0.234375,-0.59375,0.921875
137,-0.18115234,-0.427063,0.9828491,-0.09375,-0.046875,1.03125
138,-0.18041992,-0.4373169,1.0057983,-0.265625,-0.328125,1.0
139,-0.18969727,-0.43341064,0.9953003,-1.296875,-2.15625,0.4375
140,-0.19018555,-0.42730713,0.9899292,-1.65625,-2.734375,0.15625
141,-0.19213867,-0.42803955,0.9796753,-1.328125,-2.234375,-0.015625
142,-0.18359375,-0.43048096,0.99334717,-1.71875,-3.40625,0.171875
143,-0.19165039,-0.42095947,0.97650146,-2.375,-3.53125,0.890625
144,-0.20092773,-0.41314697,0.99017334,-1.6875,-4.046875,0.65625
145,-0.20751953,-0.41461182,0.99090576,-2.0,-4.59375,0.40625
146,-0.21386719,-0.41290283,1.0006714,-2.9375,-4.171875,0.375
147,-0.21899414,-0.4031372,0.99798584,-3.34375,-4.234375,0.71875
148,-0.2241211,-0.39971924,0.994812,-4.21875,-4.515625,0.875
149,-0.21923828,-0.39727783,1.0023804,-5.25,-5.734375,0.828125
150,-0.24291992,-0.38897705,0.99749756,-5.578125,-6.546875,0.5625
151,-0.2409668,-0.37921143,0.99383545,-4.40625,-5.390625,0.515625
152,-0.24731445,-0.37506104,1.0072632,-5.46875,-5.40625,0.796875
153,-0.26171875,-0.36846924,1.001648,-3.953125,-6.234375,0.515625
154,-0.26220703,-0.3665161,0.98895264,-5.828125,-5.265625,0.671875
155,-0.27661133,-0.31622314,0.98724365,-13.21875,-8.515625,2.421875
156,-0.28344727,-0.34698486,1.0143433,-3.375,-6.5625,0.734375
157,-0.28955078,-0.32183838,0.9891968,-2.296875,-1.3125,1.59375
158,-0.2836914,-0.32647705,1.0006714,-0.703125,-0.171875,0.84375
159,-0.28588867,-0.33111572,1.0004272,1.15625,1.75,1.15625
160,-0.28637695,-0.32598877,1.0006714,1.578125,2.5,1.125
161,-0.27978516,-0.35040283,1.0162964,2.28125,0.96875,0.9375
162,-0.27612305,-0.3369751,0.9940796,2.109375,2.203125,1.03125
163,-0.27563477,-0.34429932,1.0187378,2.734375,2.28125,0.890625
164,-0.27539062,-0.34210205,1.0075073,2.40625,2.4375,0.796875
165,-0.27490234,-0.34820557,1.0067749,2.09375,2.015625,0.765625
166,-0.26049805,-0.3513794,1.0072632,1.5,2.453125,0.828125
167,-0.25463867,-0.3477173,0.9972534,2.0,2.125,1.0625
168,-0.25732422,-0.36090088,1.0089722,2.046875,1.921875,1.328125
169,-0.25073242,-0.36480713,1.0006714,1.34375,2.3125,1.203125
170,-0.24829102,-0.35211182,0.9887085,1.71875,1.875,0.953125
171,-0.24633789,-0.3640747,1.012146,2.453125,2.140625,0.875
172,-0.23803711,-0.35992432,1.0119019,1.796875,1.453125,0.96875
173,-0.24487305,-0.35406494,0.9989624,1.6875,0.828125,0.984375
174,-0.24511719,-0.3652954,1.0018921,1.59375,1.609375,0.96875
175,-0.23291016,-0.35772705,1.0050659,1.796875,1.390625,0.515625
176,-0.2709961,-0.37799072,0.9935913,0.421875,1.8125,1.140625
177,-0.24243164,-0.37261963,1.0072632,0.265625,2.3125,1.828125
178,-0.21875,-0.3616333,0.996521,0.46875,1.296875,1.296875
179,-0.22265625,-0.3657837,1.0055542,0.796875,1.484375,0.78125
180,-0.21484375,-0.3862915,1.0175171,1.953125,1.828125,0.125
181,-0.23925781,-0.37506104,1.0180054,1.3125,2.21875,0.234375
182,-0.23217773,-0.37457275,1.0001831,0.625,2.578125,0.953125
183,-0.21728516,-0.35821533,1.0189819,1.125,2.453125,0.5625
184,-0.21484375,-0.36773682,1.0011597,1.765625,0.53125,0.96875
185,-0.21655273,-0.3652954,1.0075073,0.328125,-0.3125,0.5625
186,-0.2163086,-0.37872314,1.0075073,1.265625,-0.28125,0.28125
187,-0.20581055,-0.38946533,1.0060425,2.046875,1.78125,0.265625
188,-0.21166992,-0.38165283,1.0099487,1.265625,1.703125,0.1875
189,-0.2055664,-0.3796997,1.0006714,0.9375,1.15625,0.4375
190,-0.20874023,-0.3789673,1.0106812,1.265625,1.109375,0.78125
191,-0.20800781,-0.37823486,1.0255737,1.671875,1.890625,1.015625
192,-0.21020508,-0.37213135,0.99993896,1.859375,-0.140625,0.90625
193,-0.22509766,-0.39678955,0.99505615,1.78125,-0.890625,1.53125
194,-0.22607422,-0.41168213,0.99627686,-0.046875,1.203125,1.421875
195,-0.20947266,-0.39312744,1.0062866,0.78125,1.671875,0.6875
196,-0.20288086,-0.37750244,1.0170288,0.921875,1.140625,0.671875
197,-0.20214844,-0.36920166,0.99823,1.5625,0.1875,0.875
198,-0.2006836,-0.3945923,0.9989624,1.21875,0.53125,0.90625
199,-0.18969727,-0.39117432,1.0026245,0.8125,0.421875,1.1875
200,-0.2019043,-0.38311768,1.0111694,0.8125,0.421875,0.890625
201,-0.2019043,-0.38604736,0.9957886,0.921875,0.75,0.875
202,-0.19921875,-0.39801025,1.0079956,1.953125,1.796875,0.75
203,-0.19921875,-0.40533447,1.0036011,1.109375,1.390625,1.046875
204,-0.19677734,-0.3899536,0.9996948,0.578125,0.453125,0.46875
205,-0.19384766,-0.39996338,0.99017334,0.234375,1.328125,0.828125
206,-0.19091797,-0.39605713,1.0011597,1.15625,2.796875,1.015625
207,-0.18920898,-0.39874268,1.0023804,1.921875,2.234375,1.1875
208,-0.1850586,-0.40289307,1.0038452,1.171875,1.453125,1.15625
209,-0.18408203,-0.39556885,1.0028687,0.671875,0.484375,0.796875
210,-0.18139648,-0.40533447,1.0319214,2.078125,1.25,0.5
211,-0.18261719,-0.38775635,0.98968506,0.75,0.03125,0.78125
212,-0.17871094,-0.40142822,1.007019,1.1875,0.8125,0.765625
213,-0.17822266,-0.40655518,1.001648,2.015625,-0.234375,0.46875
214,-0.17456055,-0.41485596,1.001648,1.59375,1.015625,0.875
215,-0.17602539,-0.40753174,0.99993896,1.140625,0.8125,0.921875
216,-0.18359375,-0.40020752,1.0001831,0.921875,-0.15625,0.890625
217,-0.17602539,-0.41534424,0.9994507,0.5,-0.703125,0.75
218,-0.16967773,-0.40753174,0.9940796,0.65625,-0.828125,0.609375
219,-0.17089844,-0.41241455,1.0021362,0.75,-0.125,0.625
220,-0.17749023,-0.4048462,0.99212646,0.78125,0.515625,0.90625
221,-0.17602539,-0.4126587,0.9899292,1.203125,1.484375,0.890625
222,-0.17529297,-0.4133911,0.9989624,1.328125,0.984375,0.96875
223,-0.17651367,-0.4138794,0.9940796,1.0625,-0.078125,0.625
224,-0.17895508,-0.40826416,0.99920654,0.578125,1.078125,0.640625
225,-0.16772461,-0.41119385,1.0055542,1.1875,0.703125,0.59375
226,-0.16894531,-0.41168213,0.9945679,0.796875,-0.0625,0.703125
227,-0.16699219,-0.41046143,0.99334717,0.90625,-0.046875,0.65625
228,-0.16967773,-0.41314697,0.9984741,1.125,0.515625,0.75
229,-0.171875,-0.41558838,1.0038452,1.734375,-0.09375,0.421875
230,-0.15673828,-0.425354,1.0045776,5.03125,1.46875,0.546875
231,-0.16015625,-0.43585205,0.9984741,4.109375,-0.25,-0.3125
232,-0.16821289,-0.42803955,0.9989624,2.0625,-1.953125,-1.03125
233,-0.1694336,-0.42022705,0.9857788,2.015625,-0.984375,-0.34375
234,-0.1665039,-0.4336548,0.98553467,1.359375,-1.09375,0.515625
235,-0.1772461,-0.43145752,0.97991943,0.9375,-1.15625,0.65625
236,-0.18579102,-0.4368286,0.9816284,1.140625,-0.0625,0.578125
237,-0.1850586,-0.4414673,0.98895264,2.140625,1.1875,0.546875
238,-0.1772461,-0.43267822,0.9833374,2.359375,1.109375,0.6875
239,-0.17480469,-0.42852783,0.98187256,0.90625,0.953125,0.796875
240,-0.1796875,-0.45220947,0.98968506,1.265625,0.40625,0.9375
241,-0.16479492,-0.44683838,0.98895264,1.3125,0.484375,1.046875
242,-0.16455078,-0.43585205,0.9852905,0.46875,0.484375,1.078125
243,-0.171875,-0.4414673,0.99627686,-0.421875,0.5625,1.1875
244,-0.16235352,-0.43658447,0.9804077,0.3125,-0.28125,1.078125
245,-0.16381836,-0.44805908,0.9891968,0.234375,-0.078125,1.109375
246,-0.1694336,-0.43463135,0.9779663,0.40625,-0.046875,0.8125
247,-0.1652832,-0.44683838,0.97528076,-0.265625,-1.15625,0.65625
248,-0.16259766,-0.45513916,0.98236084,-0.328125,-1.125,0.8125
249,-0.17626953,-0.44244385,0.9796753,0.3125,-1.1875,0.828125
250,-0.17749023,-0.44537354,0.9894409,-0.671875,-1.828125,0.515625
251,-0.17700195,-0.43829346,0.98846436,-0.890625,-1.984375,0.421875
252,-0.17236328,-0.43585205,0.9894409,-1.140625,-2.796875,0.671875
253,-0.18359375,-0.43414307,0.98114014,-1.15625,-2.96875,0.734375
254,-0.18798828,-0.4258423,0.9911499,-2.34375,-2.9375,0.625
255,-0.21191406,-0.43804932,0.9755249,-1.296875,-3.625,-0.03125
256,-0.18847656,-0.43634033,0.98724365,-1.28125,-1.28125,-0.234375
257,-0.17919922,-0.42608643,0.9899292,-1.640625,-1.984375,0.65625
258,-0.19848633,-0.4277954,0.98651123,-1.828125,-2.546875,0.71875
259,-0.19750977,-0.41900635,0.99090576,-1.484375,-2.796875,0.3125
260,-0.19165039,-0.41119385,0.9945679,-2.09375,-2.9375,0.40625
261,-0.2019043,-0.42071533,0.9869995,-2.09375,-2.921875,0.546875
262,-0.20214844,-0.41290283,0.99017334,-1.0,-2.375,0.53125
263,-0.2055664,-0.42095947,0.9857788,-2.65625,-2.71875,0.890625
264,-0.22265625,-0.41119385,0.9957886,-1.34375,-2.1875,0.734375
265,-0.21191406,-0.40020752,0.99017334,-1.3125,-1.5625,0.625
266,-0.21826172,-0.40020752,1.0043335,-1.703125,-1.09375,0.75
267,-0.22143555,-0.41070557,1.0004272,-2.03125,-3.296875,0.71875
268,-0.22460938,-0.38848877,0.98236084,-1.96875,-2.421875,0.46875
269,-0.23339844,-0.38653564,1.001648,-2.234375,-1.703125,0.953125
270,-0.23364258,-0.3838501,0.9828491,-1.875,-1.578125,0.703125
271,-0.22436523,-0.39068604,0.98724365,-1.21875,-1.296875,0.546875
272,-0.22875977,-0.38702393,0.99383545,-0.765625,-0.390625,0.671875
273,-0.22338867,-0.39019775,0.99749756,-0.34375,-0.46875,0.703125
274,-0.21948242,-0.3814087,0.98968506,-0.21875,-0.171875,0.90625
275,-0.22924805,-0.39019775,0.9945679,0.234375,0.203125,0.890625
276,-0.22973633,-0.3826294,0.99798584,0.125,0.453125,1.046875
277,-0.22485352,-0.37408447,1.0009155,0.0625,0.328125,1.234375
278,-0.22949219,-0.38238525,0.9977417,0.140625,0.34375,0.90625
279,-0.23217773,-0.38287354,0.993103,0.6875,0.609375,0.890625
280,-0.22363281,-0.39019775,0.99627686,0.375,0.15625,0.859375
281,-0.22485352,-0.39190674,0.9928589,0.296875,0.546875,0.90625
282,-0.23144531,-0.39117432,0.9984741,0.359375,0.234375,1.015625
283,-0.21826172,-0.3838501,0.9977417,-0.046875,-0.40625,0.859375
284,-0.2211914,-0.3821411,1.0050659,-0.09375,-0.28125,0.875
285,-0.22875977,-0.3875122,1.0011597,-0.078125,-0.53125,0.984375
286,-0.22485352,-0.38848877,0.9970093,-0.796875,-1.609375,0.765625
287,-0.22265625,-0.39117432,1.0184937,-0.390625,-1.6875,0.65625
288,-0.22753906,-0.37139893,0.99823,-1.5625,-3.265625,0.46875
289,-0.23535156,-0.39068604,1.013855,-3.203125,-2.859375,0.921875
290,-0.24243164,-0.37628174,0.9940796,-1.078125,-6.5625,-0.28125
291,-0.2487793,-0.38165283,1.0045776,-2.84375,-4.59375,0.375
292,-0.25219727,-0.35992432,1.0028687,-4.421875,-5.421875,0.671875
293,-0.26416016,-0.35162354,0.99871826,-4.890625,-4.609375,0.515625
294,-0.25976562,-0.3550415,1.0072632,-5.140625,-5.015625,0.65625
295,-0.27294922,-0.3501587,0.98968506,-3.875,-5.078125,0.640625
296,-0.27246094,-0.35308838,1.0004272,-2.703125,-4.71875,0.203125
297,-0.28930664,-0.33746338,0.99627686,-2.546875,-3.28125,0.484375
298,-0.2783203,-0.3345337,1.0011597,-2.40625,-2.203125,0.625
299,-0.28564453,-0.3352661,0.99920654,-0.78125,-1.5,0.640625
300,-0.2836914,-0.32525635,0.9996948,-0.65625,-0.265625,0.796875
301,-0.2919922,-0.32159424,0.99334717,0.109375,1.34375,0.9375
302,-0.28125,-0.3171997,0.99676514,1.921875,3.875,1.140625
303,-0.28076172,-0.33721924,1.0060425,3.0,5.0625,1.40625
304,-0.2722168,-0.3447876,1.0175171,3.265625,5.0,1.640625
305,-0.2614746,-0.3369751,0.9935913,3.765625,4.921875,1.15625
306,-0.2553711,-0.35845947,1.0197144,3.5,4.0,1.1875
307,-0.25683594,-0.3447876,1.0067749,2.4375,2.28125,0.921875
308,-0.2541504,-0.35406494,1.0023804,2.328125,3.328125,0.78125
309,-0.2446289,-0.35845947,1.0050659,1.53125,1.46875,1.03125
310,-0.24584961,-0.36553955,1.0140991,2.3125,1.46875,0.84375
311,-0.23461914,-0.35479736,0.9960327,1.28125,0.671875,0.703125
312,-0.2355957,-0.36920166,1.020935,0.953125,2.5625,1.0625
313,-0.24853516,-0.36383057,1.0060425,1.71875,0.21875,0.875
314,-0.23950195,-0.35943604,0.9940796,1.0625,1.15625,0.90625
315,-0.23901367,-0.3591919,1.0033569,1.796875,2.546875,1.03125
316,-0.23632812,-0.36309814,1.0145874,1.5625,1.21875,1.046875
317,-0.22753906,-0.36431885,0.99871826,0.984375,0.90625,0.609375
318,-0.22436523,-0.37554932,1.0009155,1.640625,1.625,0.78125
319,-0.22094727,-0.3718872,1.0062866,1.9375,1.421875,0.484375
320,-0.2253418,-0.3711548,1.0072632,1.25,0.625,0.578125
321,-0.22094727,-0.37872314,1.010437,0.875,0.3125,0.734375
322,-0.22949219,-0.3731079,1.0026245,0.78125,0.34375,0.671875
323,-0.21704102,-0.36676025,1.0040894,0.90625,0.015625,0.578125
324,-0.22680664,-0.36846924,1.0065308,0.890625,0.296875,1.046875
325,-0.23730469,-0.37506104,0.99627686,0.515625,-0.03125,0.984375
326,-0.22802734,-0.3809204,1.0028687,0.84375,0.78125,0.828125
327,-0.22509766,-0.38238525,1.0079956,1.296875,0.796875,0.96875
328,-0.22460938,-0.3838501,1.0072632,0.765625,0.71875,0.875
329,-0.2199707,-0.37286377,0.9916382,0.921875,0.71875,0.8125
330,-0.21948242,-0.37506104,0.9996948,0.921875,0.796875,0.796875
331,-0.21362305,-0.37774658,1.0136108,0.40625,0.921875,0.953125
332,-0.2097168,-0.38189697,0.99993896,0.515625,0.375,0.96875
333,-0.20654297,-0.38116455,1.0018921,0.828125,0.375,1.203125
334,-0.21533203,-0.3850708,1.0021362,0.53125,0.46875,0.96875
335,-0.21972656,-0.38409424,1.0009155,0.75,1.1875,1.234375
336,-0.21069336,-0.38604736,1.0099487,0.4375,0.3125,0.9375
337,-0.20336914,-0.37872314,1.0018921,0.5,0.515625,0.703125
338,-0.20507812,-0.37457275,0.994812,-0.1875,-0.015625,0.65625
339,-0.20141602,-0.39361572,1.0255737,1.828125,0.328125,0.578125
340,-0.21264648,-0.37286377,0.9916382,-0.421875,-1.125,0.65625
341,-0.21240234,-0.3953247,1.0131226,-0.171875,0.15625,0.625
342,-0.21240234,-0.3875122,0.99383545,0.40625,-0.6875,0.65625
343,-0.22143555,-0.38970947,0.99798584,0.71875,0.390625,0.65625
344,-0.2163086,-0.38043213,1.0014038,0.796875,0.46875,0.625
345,-0.21655273,-0.38165283,1.001648,0.984375,-0.140625,0.90625
346,-0.2097168,-0.39019775,1.0028687,0.265625,-0.546875,0.875
347,-0.2097168,-0.38970947,1.001648,1.859375,0.28125,0.90625
348,-0.2006836,-0.37774658,1.0079956,1.6875,0.5625,1.046875
349,-0.20727539,-0.3887329,1.0026245,1.015625,-0.109375,0.8125
350,-0.2055664,-0.39312744,0.9977417,0.625,-0.234375,1.0
351,-0.20825195,-0.39361572,1.0082397,0.140625,0.15625,1.1875
352,-0.2084961,-0.380188,1.0048218,0.515625,-0.421875,1.09375
353,-0.18530273,-0.380188,0.99823,1.03125,-0.703125,0.40625
354,-0.23095703,-0.4006958,0.99920654,0.34375,-0.0625,0.203125
355,-0.19995117,-0.38458252,1.0082397,0.875,0.265625,0.484375
356,-0.21313477,-0.380188,0.99627686,0.578125,-1.046875,0.765625
357,-0.21826172,-0.40533447,0.99993896,0.859375,-0.53125,0.890625
358,-0.2121582,-0.40386963,0.9994507,0.15625,0.21875,0.53125
359,-0.21606445,-0.37261963,1.0043335,0.484375,0.96875,0.703125
360,-0.19946289,-0.4043579,0.99993896,1.34375,1.4375,1.078125
361,-0.20214844,-0.3977661,1.0111694,0.796875,0.671875,1.203125
362,-0.20751953,-0.39215088,1.001648,0.15625,0.265625,1.0625
363,-0.19140625,-0.39630127,1.0060425,1.15625,0.546875,0.796875
364,-0.19702148,-0.38531494,0.97454834,0.078125,0.109375,0.484375
365,-0.20043945,-0.39385986,1.0045776,1.3125,1.1875,0.5625
366,-0.21289062,-0.39996338,0.9918823,0.84375,0.265625,0.734375
367,-0.19946289,-0.39361572,0.99554443,1.078125,-0.296875,1.0
368,-0.20727539,-0.38189697,0.9874878,0.75,-0.078125,0.875
369,-0.20654297,-0.40631104,1.0026245,0.90625,0.515625,0.734375
370,-0.20336914,-0.4072876,0.99554443,0.984375,0.140625,0.8125
371,-0.19848633,-0.39508057,0.99139404,1.171875,1.28125,0.90625
372,-0.20239258,-0.40777588,1.0111694,1.453125,1.59375,0.828125
373,-0.19165039,-0.40582275,0.9989624,0.984375,0.125,0.875
374,-0.1899414,-0.3977661,1.0075073,0.859375,1.28125,1.171875
375,-0.1899414,-0.39508057,0.99432373,0.71875,-0.078125,0.75
376,-0.18774414,-0.4048462,0.9957886,1.21875,-0.265625,0.640625
377,-0.19799805,-0.40655518,1.0001831,0.890625,0.71875,0.734375
378,-0.19580078,-0.4085083,1.0026245,0.90625,0.3125,0.6875
379,-0.19458008,-0.39923096,0.9940796,-0.109375,0.0,0.921875
380,-0.18017578,-0.4060669,0.9918823,0.296875,0.671875,0.9375
381,-0.18920898,-0.40997314,0.99871826,0.625,0.71875,0.984375
382,-0.19458008,-0.40216064,1.0072632,0.859375,-0.15625,0.6875
383,-0.18676758,-0.40533447,0.9957886,0.609375,0.03125,1.125
384,-0.19335938,-0.40655518,0.99823,0.4375,0.734375,0.859375
385,-0.18334961,-0.4036255,0.99554443,0.53125,-0.328125,0.8125
386,-0.1862793,-0.411438,1.0001831,0.390625,0.296875,1.234375
387,-0.18383789,-0.40460205,1.0036011,0.875,0.359375,0.953125
388,-0.1862793,-0.40264893,0.99383545,0.671875,0.015625,0.734375
389,-0.18701172,-0.4055786,0.9911499,0.8125,-0.046875,0.734375
390,-0.18139648,-0.40997314,0.99749756,0.421875,-0.09375,0.734375
391,-0.18383789,-0.40875244,1.0021362,0.46875,-0.46875,0.796875
392,-0.19311523,-0.41729736,0.9945679,0.46875,-1.0,0.515625
393,-0.19042969,-0.4048462,0.9996948,0.609375,0.0625,0.734375
394,-0.18896484,-0.41070557,0.99432373,0.859375,0.34375,0.796875
395,-0.19262695,-0.40899658,0.9862671,0.53125,0.5,0.921875
396,-0.18164062,-0.4151001,1.0153198,1.3125,0.875,0.96875
397,-0.18774414,-0.3982544,0.99432373,0.71875,0.078125,0.9375
398,-0.18530273,-0.40216064,0.99823,0.703125,1.140625,0.8125
399,-0.18334961,-0.4216919,0.99676514,1.3125,0.828125,0.65625
400,-0.1821289,-0.40753174,0.99627686,1.15625,1.484375,1.0
401,-0.18017578,-0.40875244,0.99749756,0.953125,1.21875,1.109375
402,-0.18359375,-0.41168213,1.0006714,0.6875,0.78125,0.9375
403,-0.1784668,-0.41485596,0.9935913,0.75,-0.109375,0.75
404,-0.17602539,-0.4204712,1.0043335,1.296875,0.703125,0.671875
405,-0.17504883,-0.40924072,0.99554443,1.09375,0.84375,0.671875
406,-0.1821289,-0.42022705,0.99334717,0.6875,-1.109375,0.625
407,-0.171875,-0.4180298,0.9894409,0.59375,-0.5625,0.75
408,-0.18383789,-0.42071533,0.996521,1.5625,-0.984375,0.59375
409,-0.17919922,-0.41485596,1.0014038,1.015625,-0.375,0.71875
410,-0.1796875,-0.41973877,0.99627686,0.1875,-0.359375,0.78125
411,-0.17871094,-0.41436768,0.9957886,-0.0625,-0.5625,0.84375
412,-0.1809082,-0.41851807,0.99261475,0.140625,-0.609375,0.671875
413,-0.17822266,-0.41363525,0.9882202,0.625,-0.0625,0.578125
414,-0.18237305,-0.4241333,0.9904175,0.984375,-0.453125,0.640625
415,-0.1899414,-0.41900635,0.9899292,0.359375,-1.125,0.875
416,-0.18432617,-0.4192505,0.99090576,0.265625,0.546875,0.90625
417,-0.1862793,-0.42486572,1.0018921,0.34375,0.671875,0.796875
418,-0.1850586,-0.41363525,0.99505615,0.578125,-0.390625,0.828125
419,-0.18774414,-0.41412354,0.9935913,0.375,-0.25,0.796875
420,-0.17944336,-0.4192505,0.98602295,0.9375,0.640625,0.625
421,-0.1730957,-0.4175415,0.99139404,0.9375,0.203125,0.625
422,-0.17456055,-0.4187622,0.9887085,0.71875,-0.578125,0.5625
423,-0.17822266,-0.41949463,0.9874878,0.828125,1.15625,0.921875
424,-0.1784668,-0.4175415,1.0048218,0.6875,-0.140625,0.796875
425,-0.18432617,-0.42022705,0.9957886,0.84375,0.0625,0.90625
426,-0.19238281,-0.41290283,0.98602295,0.390625,1.21875,1.0625
427,-0.16503906,-0.425354,0.9904175,0.921875,-0.515625,0.484375
428,-0.171875,-0.44293213,0.9957886,0.921875,-0.578125,0.3125
429,-0.1899414,-0.41558838,0.98846436,0.9375,1.03125,0.765625
430,-0.18383789,-0.40997314,0.99505615,1.203125,0.296875,1.015625
431,-0.1665039,-0.43267822,0.99627686,0.53125,-0.578125,0.96875
432,-0.17260742,-0.427063,1.0004272,0.71875,0.046875,0.671875
433,-0.18041992,-0.43341064,0.9821167,0.734375,-0.21875,0.4375
434,-0.17773438,-0.42999268,0.9899292,1.296875,-0.640625,0.640625
435,-0.1796875,-0.43341064,0.98773193,0.46875,0.03125,1.0
436,-0.17382812,-0.42095947,0.9940796,0.375,-0.71875,0.90625
437,-0.18261719,-0.4282837,1.0009155,0.8125,-0.703125,0.8125
438,-0.17895508,-0.42803955,0.9857788,0.25,-1.015625,0.5625
439,-0.1772461,-0.42730713,0.98968506,0.359375,-0.390625,0.78125
440,-0.17553711,-0.42999268,0.99017334,0.125,0.140625,0.578125
441,-0.1772461,-0.42218018,0.993103,-0.21875,0.0625,0.78125
442,-0.17382812,-0.42388916,0.9916382,0.4375,-0.265625,0.859375
443,-0.17773438,-0.42852783,0.9940796,0.46875,-0.734375,0.609375
444,-0.18261719,-0.42852783,0.99212646,0.765625,-0.671875,0.578125
445,-0.18847656,-0.42681885,0.98602295,0.296875,-0.3125,0.78125
446,-0.18432617,-0.43243408,0.99334717,0.453125,-0.484375,0.765625
447,-0.17797852,-0.4204712,0.99017334,0.0625,-0.53125,1.078125
448,-0.17919922,-0.42218018,0.9755249,0.75,0.53125,1.046875
449,-0.17504883,-0.4277954,0.99090576,1.359375,0.265625,0.859375
450,-0.18261719,-0.43585205,0.98114014,0.21875,-0.484375,0.6875
451,-0.17578125,-0.43756104,0.99993896,1.359375,-0.375,0.6875
452,-0.18017578,-0.4199829,0.9789429,0.46875,-0.78125,0.765625
453,-0.18432617,-0.4373169,0.9940796,0.34375,0.1875,0.734375
454,-0.1796875,-0.43218994,0.99212646,1.03125,-0.484375,0.609375
455,-0.17919922,-0.4368286,0.9916382,0.9375,1.078125,1.140625
456,-0.1887207,-0.42510986,0.9838257,1.015625,0.5,1.0
457,-0.18701172,-0.44244385,0.98724365,1.484375,0.125,0.375
458,-0.17773438,-0.4356079,0.9894409,0.34375,-0.40625,0.875
459,-0.17919922,-0.43341064,0.9784546,0.578125,-1.265625,0.546875
460,-0.17456055,-0.43536377,0.9867554,0.84375,-0.546875,0.53125
461,-0.1784668,-0.43951416,0.9828491,0.640625,-0.75,0.46875
462,-0.18164062,-0.43780518,0.98358154,0.671875,-0.4375,0.609375
463,-0.18139648,-0.43511963,0.9828491,0.484375,0.078125,0.828125
464,-0.18603516,-0.43658447,0.9894409,0.453125,0.5,0.984375
465,-0.17822266,-0.4336548,0.994812,0.4375,0.4375,0.875
466,-0.18676758,-0.44049072,0.9882202,0.3125,-0.28125,0.90625
467,-0.18554688,-0.4463501,0.9906616,-0.1875,-0.0625,0.875
468,-0.19091797,-0.43780518,0.982605,0.015625,0.546875,1.53125
469,-0.17602539,-0.44000244,0.9845581,0.078125,0.40625,1.015625
470,-0.17480469,-0.43511963,0.9813843,1.078125,1.265625,0.953125
471,-0.17651367,-0.43756104,0.9869995,0.671875,0.984375,0.984375
472,-0.17016602,-0.42999268,0.9918823,0.4375,0.1875,0.828125
473,-0.16479492,-0.43634033,0.9957886,0.21875,-0.125,0.640625
474,-0.1784668,-0.43780518,0.9916382,-0.203125,-0.8125,0.65625
475,-0.17041016,-0.43878174,0.9882202,-0.09375,-1.046875,0.421875
476,-0.17675781,-0.44024658,0.9723511,-0.546875,-0.984375,0.359375
477,-0.17089844,-0.43927002,1.0048218,1.15625,-0.34375,0.46875
478,-0.17602539,-0.43145752,0.9779663,0.5,-1.078125,0.578125
479,-0.18652344,-0.43389893,0.99017334,0.078125,0.453125,0.90625
480,-0.17382812,-0.4373169,0.9862671,1.375,0.625,0.390625
481,-0.171875,-0.4385376,0.9862671,1.21875,1.296875,1.171875
482,-0.17919922,-0.4360962,0.9804077,0.828125,0.265625,1.03125
483,-0.18017578,-0.44805908,0.9977417,0.5,-0.734375,0.609375
484,-0.17993164,-0.43951416,0.977478,0.546875,-0.953125,0.546875
485,-0.18676758,-0.44122314,0.977478,-0.234375,-2.328125,0.578125
486,-0.20141602,-0.39752197,0.9725952,-4.53125,-7.8125,-0.15625
487,-0.19360352,-0.42633057,0.98358154,-1.703125,-7.34375,-0.46875
488,-0.19677734,-0.46270752,0.97528076,2.265625,-0.234375,0.46875
489,-0.19165039,-0.442688,0.9850464,0.53125,-1.53125,0.21875
490,-0.20239258,-0.43829346,0.9857788,1.59375,0.734375,0.828125
491,-0.18603516,-0.44317627,0.9891968,1.25,2.515625,1.671875
492,-0.1850586,-0.4336548,0.9867554,-0.046875,1.140625,1.6875
493,-0.19482422,-0.42388916,0.9779663,0.546875,0.40625,1.234375
494,-0.18896484,-0.4397583,0.982605,1.171875,0.9375,0.84375
495,-0.1928711,-0.43585205,0.9760132,0.859375,0.734375,1.015625
496,-0.19580078,-0.4319458,0.9672241,1.390625,0.765625,0.625
497,-0.1953125,-0.4258423,0.97991943,0.59375,1.1875,1.0625
498,-0.19873047,-0.42388916,0.9894409,-0.796875,-1.09375,1.015625
499,-0.18798828,-0.45025635,0.9796753,1.125,-0.171875,0.828125
500,-0.19506836,-0.44000244,0.9867554,0.75,0.3125,1.234375
501,-0.19848633,-0.4343872,0.9840698,1.03125,0.15625,1.3125
502,-0.18359375,-0.44854736,0.9906616,1.53125,0.734375,0.96875
503,-0.18188477,-0.43878174,0.9762573,0.953125,0.015625,1.234375
504,-0.19482422,-0.43829346,0.97650146,1.0,1.671875,1.203125
505,-0.17700195,-0.44952393,0.97943115,0.84375,1.28125,0.9375
506,-0.16967773,-0.43243408,0.97283936,1.53125,1.125,0.65625
507,-0.1821289,-0.43756104,0.9840698,2.375,1.78125,0.859375
508,-0.1784668,-0.45684814,0.9916382,1.46875,2.40625,0.5
509,-0.17553711,-0.47174072,0.9923706,1.546875,0.25,0.671875
510,-0.17602539,-0.45318604,0.9840698,0.96875,0.71875,1.3125
511,-0.18041992,-0.44683838,0.97698975,0.625,1.421875,1.671875
512,-0.17407227,-0.45196533,0.9850464,0.40625,0.03125,1.34375
513,-0.17626953,-0.44854736,0.98114014,0.4375,0.34375,1.390625
514,-0.16748047,-0.44561768,0.9750366,1.140625,1.640625,1.796875
515,-0.15039062,-0.4475708,0.98236084,0.53125,0.046875,0.78125
516,-0.18554688,-0.46514893,0.9845581,0.375,0.828125,1.1875
517,-0.16308594,-0.4631958,0.9891968,-0.09375,1.140625,2.609375
518,-0.11767578,-0.42681885,0.96698,-1.0,-1.3125,1.265625
519,-0.16210938,-0.4619751,0.9628296,-0.234375,-1.671875,0.140625
520,-0.16796875,-0.47906494,0.9891968,0.28125,0.6875,0.078125
521,-0.17358398,-0.45440674,0.97869873,0.546875,0.234375,0.5
522,-0.15917969,-0.4331665,0.9772339,0.953125,-0.84375,0.34375
523,-0.16918945,-0.46295166,0.9760132,1.0,-0.890625,-0.171875
524,-0.19921875,-0.47540283,0.99383545,-0.390625,1.703125,2.125
525,-0.16430664,-0.4487915,0.99212646,-1.46875,1.828125,2.640625
526,-0.12915039,-0.4216919,0.9628296,-0.46875,1.421875,1.921875
527,-0.15844727,-0.4619751,0.98065186,1.125,4.234375,1.40625
528,-0.14697266,-0.45733643,0.98358154,1.09375,1.828125,0.78125
529,-0.13012695,-0.44732666,0.9833374,0.65625,0.6875,0.28125
530,-0.13452148,-0.44195557,0.9723511,1.0,0.640625,0.3125
531,-0.14916992,-0.45684814,0.99798584,0.03125,-0.390625,0.578125
532,-0.15722656,-0.4590454,0.97943115,0.8125,-0.078125,0.84375
533,-0.13183594,-0.43096924,0.99383545,1.125,-0.640625,0.796875
534,-0.16235352,-0.45440674,0.9723511,0.390625,-1.046875,0.859375
535,-0.171875,-0.47442627,0.98236084,0.3125,-0.09375,1.09375
536,-0.15527344,-0.45806885,0.97576904,-0.875,0.171875,1.140625
537,-0.13842773,-0.43170166,0.97454834,0.53125,1.5,1.21875
538,-0.13867188,-0.4524536,0.9850464,0.96875,0.109375,0.890625
539,-0.1352539,-0.45928955,0.9816284,-0.171875,0.28125,1.21875
540,-0.13647461,-0.4607544,0.9894409,0.046875,0.21875,0.9375
541,-0.13134766,-0.45489502,0.98724365,-0.71875,-1.09375,1.21875
542,-0.1352539,-0.4446411,0.9828491,-1.390625,-1.34375,0.9375
543,-0.122558594,-0.45928955,0.9857788,-1.265625,-1.421875,0.640625
544,-0.13476562,-0.4512329,0.99017334,-1.25,-3.828125,1.0
545,-0.16088867,-0.44195557,0.9779663,-0.953125,-2.578125,1.171875
546,-0.16894531,-0.43878174,0.9852905,-0.25,-2.578125,0.25
547,-0.17675781,-0.4385376,0.9916382,-0.53125,-3.390625,0.140625
548,-0.1694336,-0.43341064,0.9784546,-0.6875,-1.734375,0.328125
549,-0.16796875,-0.44854736,0.99505615,-0.75,-2.0625,0.203125
550,-0.18334961,-0.44000244,0.99090576,-1.171875,-1.375,0.625
551,-0.1743164,-0.4282837,0.9816284,-1.078125,-1.859375,0.484375
552,-0.1730957,-0.4397583,0.98309326,-1.109375,-1.4375,0.78125
553,-0.17382812,-0.43829346,0.9857788,-0.640625,-1.078125,1.0625
554,-0.17382812,-0.43780518,0.99139404,-0.953125,-1.375,1.015625
555,-0.16577148,-0.4295044,0.9899292,-0.84375,-0.65625,1.109375
556,-0.17675781,-0.42633057,0.9850464,-1.1875,-1.328125,0.984375
557,-0.17211914,-0.42730713,1.0014038,-0.578125,-1.609375,0.578125
558,-0.16503906,-0.41827393,0.9935913,-0.359375,-1.109375,0.59375
559,-0.17675781,-0.43267822,1.001648,-2.09375,-2.09375,0.65625
560,-0.1850586,-0.4319458,0.9916382,-2.203125,-4.078125,0.46875
561,-0.18920898,-0.42193604,0.98651123,-2.015625,-2.8125,0.328125
562,-0.19970703,-0.4036255,1.0036011,-2.796875,-2.046875,1.03125
563,-0.20361328,-0.4060669,0.9957886,-2.171875,-3.09375,0.484375
564,-0.19848633,-0.40948486,0.9945679,-2.453125,-2.796875,0.71875
565,-0.19604492,-0.41680908,0.9879761,-1.4375,-2.8125,0.453125
566,-0.19506836,-0.40582275,0.9989624,-2.171875,-1.75,0.78125
567,-0.20239258,-0.3977661,0.9970093,-2.515625,-3.296875,0.203125
568,-0.20776367,-0.40045166,0.99676514,-1.5,-1.703125,0.59375
569,-0.21044922,-0.38482666,1.010437,-2.203125,-2.375,0.703125
570,-0.2133789,-0.38970947,0.99383545,-1.53125,-2.421875,0.328125
571,-0.21777344,-0.39898682,1.0055542,-1.28125,-1.046875,0.96875
572,-0.22167969,-0.37261963,0.9935913,-1.046875,-0.78125,0.9375
573,-0.21875,-0.3880005,0.99871826,-1.1875,-0.828125,0.75
574,-0.22338867,-0.3809204,0.99798584,-0.46875,-1.015625,0.578125
575,-0.22460938,-0.38897705,0.99798584,-0.125,-0.796875,0.515625
576,-0.23046875,-0.39239502,1.0043335,-0.40625,-0.828125,0.75
577,-0.22143555,-0.38067627,0.99627686,-1.015625,-1.390625,0.734375
578,-0.2133789,-0.3735962,1.0006714,-0.0625,-1.296875,0.671875
579,-0.22705078,-0.3670044,0.9977417,0.171875,0.375,0.84375
580,-0.22631836,-0.36676025,0.9867554,1.09375,2.046875,1.140625
581,-0.21899414,-0.38043213,1.0014038,2.78125,2.9375,0.859375
582,-0.21923828,-0.3892212,0.99993896,3.15625,2.453125,0.90625
583,-0.20751953,-0.38458252,0.9906616,3.203125,2.90625,0.484375
584,-0.20996094,-0.40948486,1.0167847,2.515625,3.1875,1.078125
585,-0.2055664,-0.40386963,1.0065308,2.78125,-0.09375,0.59375
586,-0.2006836,-0.4036255,0.9874878,1.515625,1.46875,0.796875
587,-0.20410156,-0.39849854,1.00531,1.6875,1.796875,0.84375
588,-0.20043945,-0.3953247,0.9935913,1.1875,-0.0625,0.8125
589,-0.19750977,-0.40460205,0.9923706,1.34375,0.359375,0.75
590,-0.20385742,-0.4102173,0.9906616,1.203125,0.84375,1.046875
591,-0.1940918,-0.40997314,1.0031128,0.953125,1.078125,0.984375
592,-0.19580078,-0.40509033,0.99676514,0.5625,-0.484375,0.671875
593,-0.19604492,-0.40386963,0.993103,0.453125,0.375,0.953125
594,-0.19677734,-0.40338135,1.0036011,1.125,0.671875,0.71875
595,-0.203125,-0.40899658,0.99676514,0.59375,-0.40625,0.65625
596,-0.19262695,-0.39971924,0.9957886,0.5,0.234375,0.609375
597,-0.19873047,-0.4102173,0.99432373,1.921875,0.8125,0.65625
598,-0.17041016,-0.36846924,0.97821045,-3.375,-4.75,2.25
599,-0.20483398,-0.4109497,1.0128784,-0.859375,-9.890625,0.515625
600,-0.2199707,-0.43658447,1.0079956,1.359375,-5.3125,-0.3125
601,-0.22387695,-0.4072876,0.99261475,1.328125,-1.890625,1.046875
602,-0.22387695,-0.4121704,0.98431396,0.328125,-1.21875,0.96875
603,-0.21679688,-0.39752197,0.9918823,0.3125,-1.6875,0.8125
604,-0.23071289,-0.4024048,0.9911499,-0.6875,-1.9375,1.15625
605,-0.22875977,-0.40264893,1.0033569,-0.109375,0.0,1.5
606,-0.2109375,-0.4048462,0.98114014,-0.15625,-0.734375,1.1875
607,-0.23046875,-0.4055786,0.99627686,0.984375,0.59375,0.921875
608,-0.22583008,-0.39434814,0.9750366,1.421875,-0.953125,0.609375
609,-0.21606445,-0.41314697,0.98724365,0.59375,0.328125,0.71875
610,-0.21972656,-0.39263916,0.9743042,1.984375,0.890625,2.0
611,-0.23803711,-0.37872314,0.9852905,2.96875,0.203125,1.65625
612,-0.22436523,-0.45391846,1.0043335,3.34375,0.984375,0.734375
613,-0.2241211,-0.43170166,0.98480225,1.875,0.90625,1.078125
614,-0.21313477,-0.41851807,1.0011597,0.828125,0.984375,0.984375
615,-0.21459961,-0.42755127,0.9906616,1.03125,0.46875,0.3125
616,-0.21557617,-0.41827393,0.99017334,0.265625,1.1875,1.1875
617,-0.21069336,-0.4204712,0.98651123,-0.046875,-0.296875,0.484375
618,-0.21044922,-0.42510986,0.97991943,0.4375,0.9375,1.109375
619,-0.2097168,-0.41290283,0.99261475,0.578125,0.65625,1.015625
620,-0.21191406,-0.41973877,0.98773193,0.375,0.328125,0.515625
621,-0.2175293,-0.4241333,0.9804077,0.015625,0.546875,0.6875
622,-0.20043945,-0.41656494,0.98358154,0.84375,-0.03125,0.40625
623,-0.20996094,-0.42608643,0.9923706,0.53125,0.34375,0.609375
624,-0.21118164,-0.41949463,0.979187,0.46875,0.28125,0.609375
625,-0.203125,-0.42462158,0.9874878,0.84375,0.46875,0.75
626,-0.20581055,-0.4133911,0.99090576,0.59375,0.265625,0.71875
627,-0.21191406,-0.41534424,0.9828491,0.453125,0.8125,0.71875
628,-0.20361328,-0.42803955,0.9850464,0.9375,0.875,0.671875
629,-0.2133789,-0.43218994,0.982605,3.265625,0.484375,-0.296875
630,-0.22485352,-0.44561768,0.98968506,5.640625,1.90625,-1.53125
631,-0.18920898,-0.44561768,0.9874878,4.53125,4.953125,0.0625
632,-0.1977539,-0.43145752,0.97039795,4.28125,4.625,0.84375
633,-0.1899414,-0.4258423,0.97528076,2.546875,2.125,0.21875
634,-0.18945312,-0.4356079,0.97698975,2.28125,1.953125,0.359375
635,-0.18237305,-0.4434204,0.9862671,0.78125,2.1875,0.96875
636,-0.17553711,-0.4463501,0.9813843,0.53125,0.84375,0.8125
637,-0.18725586,-0.4512329,0.97991943,0.875,0.3125,0.84375
638,-0.18334961,-0.44659424,0.9789429,0.75,0.234375,0.96875
639,-0.19091797,-0.44952393,0.97039795,0.09375,0.171875,0.4375
640,-0.18652344,-0.45465088,0.9760132,0.359375,0.140625,0.640625
641,-0.18408203,-0.44708252,0.9677124,1.0625,0.3125,0.40625
642,-0.18383789,-0.4475708,0.97821045,0.359375,-0.09375,0.4375
643,-0.18774414,-0.4463501,0.9850464,0.21875,0.25,0.546875
644,-0.17895508,-0.43829346,0.96624756,0.421875,0.234375,0.734375
645,-0.17626953,-0.44976807,0.9796753,0.640625,1.640625,0.859375
646,-0.17797852,-0.43023682,0.9660034,-1.28125,-0.265625,0.78125
647,-0.15771484,-0.43463135,0.9784546,-9.734375,-6.109375,1.265625
648,-0.21191406,-0.4373169,0.9725952,-5.0625,-4.984375,2.90625
649,-0.20019531,-0.43902588,0.996521,-4.5,-4.1875,2.328125
650,-0.20776367,-0.43707275,1.0021362,-2.28125,-2.5625,1.453125
651,-0.1940918,-0.4216919,0.98846436,-1.359375,-0.140625,1.640625
652,-0.19726562,-0.41314697,0.9916382,-1.171875,-1.90625,0.609375
653,-0.18945312,-0.42388916,0.9882202,-0.765625,-0.59375,0.734375
654,-0.19458008,-0.4199829,0.98968506,-0.0625,-0.25,0.859375
655,-0.20214844,-0.42071533,1.001648,-0.140625,-0.5625,0.9375
656,-0.2019043,-0.41607666,0.9923706,0.171875,-0.84375,0.90625
657,-0.20751953,-0.40802002,0.9923706,0.046875,-0.046875,0.5625
658,-0.21044922,-0.4126587,0.98773193,0.34375,-0.5625,0.359375
659,-0.20751953,-0.41973877,0.9891968,0.359375,0.65625,0.625
660,-0.20629883,-0.42071533,0.993103,0.546875,0.375,0.546875
661,-0.20117188,-0.4199829,0.99139404,0.765625,-0.3125,0.578125
662,-0.19799805,-0.42340088,0.9923706,1.109375,-0.4375,0.53125
663,-0.20532227,-0.41314697,0.99920654,0.625,-0.421875,0.40625
664,-0.20043945,-0.4258423,0.99627686,-0.078125,-1.078125,0.25
665,-0.21264648,-0.42364502,0.9911499,-0.125,-0.5,0.78125
666,-0.20507812,-0.4282837,1.0082397,0.53125,-1.84375,0.703125
667,-0.21582031,-0.4282837,0.98358154,1.546875,-1.1875,0.5
668,-0.2121582,-0.41314697,0.9804077,0.734375,0.140625,0.125
669,-0.20458984,-0.41558838,0.98895264,-0.046875,-1.78125,-0.109375
670,-0.20092773,-0.41949463,0.97772217,-0.40625,-1.515625,0.484375
671,-0.21655273,-0.41583252,0.9953003,-0.046875,-0.390625,0.984375
672,-0.21728516,-0.41192627,0.99383545,0.21875,-0.765625,0.8125
673,-0.21484375,-0.41485596,0.99017334,0.328125,-0.828125,0.71875
674,-0.21191406,-0.4319458,1.0001831,0.890625,-0.390625,0.421875
675,-0.22167969,-0.4138794,0.97869873,0.34375,-0.421875,0.421875
676,-0.21411133,-0.41314697,0.98480225,-0.078125,-1.265625,0.515625
677,-0.2097168,-0.42730713,0.9906616,0.03125,-0.9375,0.421875
678,-0.22631836,-0.42144775,0.99383545,-0.25,-1.546875,0.453125
679,-0.22436523,-0.4085083,0.9928589,-0.421875,-1.875,0.234375
680,-0.2277832,-0.40948486,0.99017334,-1.15625,-1.484375,0.484375
681,-0.22070312,-0.4048462,0.9804077,-0.765625,-1.84375,0.515625
682,-0.22705078,-0.4048462,0.9845581,-1.09375,-1.21875,0.578125
683,-0.23022461,-0.41656494,0.9840698,-1.46875,-2.046875,0.1875
684,-0.22949219,-0.4060669,0.98651123,-1.8125,-1.4375,0.3125
685,-0.22924805,-0.39996338,0.980896,-1.90625,-2.1875,0.4375
686,-0.2368164,-0.39141846,0.9874878,-2.546875,-1.234375,0.875
687,-0.23535156,-0.3945923,0.9923706,-2.015625,-1.953125,0.734375
688,-0.2355957,-0.3965454,0.99871826,-0.828125,-1.015625,0.609375
689,-0.23999023,-0.38531494,0.98846436,-1.203125,-0.96875,0.921875
690,-0.23706055,-0.3850708,1.0023804,-2.609375,-0.78125,0.96875
691,-0.24316406,-0.3904419,0.996521,-1.09375,-1.140625,0.765625
692,-0.2397461,-0.3892212,0.99383545,-0.328125,-0.765625,0.71875
693,-0.24047852,-0.38116455,1.0036011,-0.625,-0.796875,0.59375
694,-0.24414062,-0.3814087,0.9874878,-1.71875,-1.0625,0.546875
695,-0.24560547,-0.38946533,0.9945679,-0.65625,-2.484375,0.25
696,-0.24951172,-0.3850708,0.99383545,-1.078125,-2.390625,0.15625
697,-0.25024414,-0.36993408,0.993103,-1.921875,-0.171875,0.875
698,-0.2553711,-0.37017822,1.0014038,-2.0625,-1.5,0.9375
699,-0.25073242,-0.37091064,0.9957886,-1.71875,-2.578125,0.71875
700,-0.25708008,-0.37384033,1.0036011,-1.078125,-1.328125,0.875
701,-0.25170898,-0.37139893,1.0001831,-1.25,-1.9375,0.484375
702,-0.2680664,-0.36798096,1.0050659,-2.859375,-2.53125,0.609375
703,-0.27514648,-0.3657837,0.99676514,-4.984375,-3.515625,0.625
704,-0.2841797,-0.34698486,1.0167847,-9.9375,-5.984375,0.6875
705,-0.26000977,-0.3567505,1.0011597,-6.546875,-8.859375,-0.921875
706,-0.27807617,-0.31671143,0.99749756,-5.96875,-2.203125,0.90625
707,-0.29516602,-0.32208252,0.9970093,-3.71875,-3.484375,0.203125
708,-0.2854004,-0.31256104,1.0018921,-2.296875,-1.828125,0.5
709,-0.28051758,-0.31329346,0.98114014,-0.03125,-0.71875,0.609375
710,-0.29052734,-0.3040161,0.99090576,0.984375,3.171875,1.1875
711,-0.28393555,-0.3015747,0.9879761,3.265625,5.703125,1.0
712,-0.29370117,-0.32818604,1.0241089,5.34375,5.390625,1.078125
713,-0.28222656,-0.3406372,1.0199585,3.53125,3.65625,0.96875
714,-0.27612305,-0.35113525,1.0211792,2.203125,2.875,0.859375
715,-0.25976562,-0.34014893,1.0140991,1.09375,1.015625,0.75
716,-0.26293945,-0.34136963,1.0206909,1.921875,1.828125,0.96875
717,-0.2529297,-0.32867432,1.0089722,1.53125,1.859375,1.0625
718,-0.2644043,-0.34625244,1.0199585,0.25,1.53125,1.296875
719,-0.26098633,-0.35040283,1.0084839,0.828125,-0.203125,1.140625
720,-0.25708008,-0.34649658,1.0006714,0.625,1.21875,1.21875
721,-0.25976562,-0.3381958,1.0223999,0.3125,1.8125,1.234375
722,-0.2565918,-0.3340454,1.0136108,-0.078125,1.5,1.25
723,-0.24829102,-0.3399048,1.0055542,-0.171875,0.890625,0.921875
724,-0.24267578,-0.3538208,1.0189819,0.984375,1.703125,1.015625
725,-0.24658203,-0.3406372,1.0170288,0.8125,1.03125,1.34375
726,-0.25048828,-0.33306885,1.0092163,0.5625,0.484375,1.28125
727,-0.23852539,-0.347229,1.013855,0.65625,1.265625,1.359375
728,-0.24414062,-0.34503174,1.0199585,0.828125,1.296875,0.96875
729,-0.22607422,-0.3340454,1.024353,1.359375,0.90625,1.375
730,-0.23095703,-0.34625244,1.0148315,0.984375,-0.046875,1.046875
731,-0.23999023,-0.3496704,1.0119019,1.015625,-1.0625,0.171875
732,-0.2397461,-0.34796143,1.0143433,1.359375,0.78125,0.71875
733,-0.24365234,-0.35284424,1.0145874,1.3125,0.21875,0.40625
734,-0.24609375,-0.34820557,1.0048218,0.453125,0.1875,0.9375
735,-0.24560547,-0.3477173,1.010437,0.46875,0.6875,1.0625
736,-0.25,-0.35113525,1.012146,0.78125,0.234375,0.8125
737,-0.24316406,-0.35211182,1.0077515,1.203125,0.90625,0.875
738,-0.22509766,-0.3460083,1.0028687,0.9375,0.671875,0.8125
739,-0.23144531,-0.3574829,1.0036011,1.109375,1.25,1.015625
740,-0.23779297,-0.3587036,1.0028687,0.78125,0.1875,0.984375
741,-0.21606445,-0.3587036,1.0238647,2.328125,1.375,0.453125
742,-0.22460938,-0.34454346,1.0126343,1.46875,0.484375,0.703125
743,-0.22949219,-0.34674072,1.0189819,0.671875,0.09375,0.296875
744,-0.23535156,-0.36920166,1.0131226,0.765625,0.09375,0.65625
745,-0.22875977,-0.35211182,0.9953003,1.375,0.453125,0.328125
746,-0.23608398,-0.35699463,1.0057983,1.09375,0.3125,0.28125
747,-0.22827148,-0.35943604,1.0062866,1.03125,-0.25,0.109375
748,-0.24121094,-0.3604126,1.008728,0.71875,0.296875,0.515625
749,-0.22827148,-0.36187744,1.0055542,1.0,1.4375,0.84375
750,-0.22753906,-0.35528564,1.0077515,2.40625,0.875,0.296875
751,-0.23388672,-0.3760376,1.0079956,1.171875,0.25,0.90625
752,-0.22167969,-0.3562622,1.0133667,1.453125,0.078125,0.96875
753,-0.2265625,-0.37017822,1.0148315,2.890625,-0.484375,0.96875
754,-0.234375,-0.37554932,1.0126343,4.578125,-1.015625,0.78125
755,-0.2421875,-0.3574829,0.98114014,5.953125,-1.75,0.40625
756,-0.24121094,-0.39556885,0.9916382,6.40625,1.46875,-0.203125
757,-0.21118164,-0.39971924,1.0109253,2.96875,1.984375,0.953125
758,-0.20996094,-0.38336182,0.99676514,1.59375,1.703125,1.140625
759,-0.21704102,-0.3850708,0.9882202,-0.5625,2.25,1.515625
760,-0.22485352,-0.39508057,0.99676514,0.640625,0.375,0.734375
761,-0.21655273,-0.40338135,1.0089722,1.515625,0.140625,0.796875
762,-0.21728516,-0.3994751,0.99920654,0.484375,0.953125,0.453125
763,-0.2253418,-0.3953247,0.9984741,1.28125,0.796875,0.375
764,-0.22436523,-0.40411377,0.99749756,1.421875,2.0,0.421875
765,-0.21240234,-0.39898682,0.9911499,0.65625,2.125,-0.296875
766,-0.21142578,-0.39019775,0.9940796,1.484375,1.546875,0.34375
767,-0.2199707,-0.39141846,0.9940796,0.84375,0.5625,1.3125
768,-0.20654297,-0.38360596,0.99627686,-0.03125,-0.078125,1.328125
769,-0.2121582,-0.4163208,0.99749756,0.8125,0.21875,0.75
770,-0.21411133,-0.4085083,1.0018921,0.96875,0.9375,0.4375
771,-0.20458984,-0.3838501,0.98236084,0.078125,1.0625,0.484375
772,-0.1821289,-0.39898682,1.0079956,0.625,0.140625,0.90625
773,-0.20141602,-0.4163208,1.0055542,0.5625,-0.1875,1.0625
774,-0.21240234,-0.38775635,1.0004272,0.421875,0.34375,1.28125
