sample_no,accel_x,accel_y,accel_z,gyro_x,gyro_y,gyro_z
0,-0.34887695,-0.7920532,0.494812,-1.75,-0.296875,1.390625
1,-0.34106445,-0.803772,0.49725342,-1.4375,-0.140625,0.640625
2,-0.34155273,-0.8040161,0.5026245,-2.28125,-0.03125,0.0625
3,-0.33447266,-0.802063,0.5036011,-1.203125,-0.359375,0.125
4,-0.3359375,-0.8088989,0.4928589,0.296875,-0.75,0.046875
5,-0.3371582,-0.7937622,0.5060425,-0.15625,-0.78125,-0.421875
6,-0.3425293,-0.800354,0.5126343,0.28125,-0.78125,-0.5625
7,-0.33666992,-0.79473877,0.5009155,0.53125,-0.921875,-0.703125
8,-0.34887695,-0.7866821,0.5009155,0.265625,-0.921875,-0.59375
9,-0.33447266,-0.788147,0.49749756,-0.109375,-1.1875,-1.0625
10,-0.34521484,-0.7908325,0.49139404,-0.953125,-0.265625,-0.546875
11,-0.34204102,-0.767395,0.49920654,-1.484375,-0.21875,0.125
12,-0.34179688,-0.7842407,0.49456787,-2.34375,-0.171875,0.28125
13,-0.34692383,-0.79473877,0.5062866,-1.859375,-0.28125,0.96875
14,-0.34106445,-0.80718994,0.5043335,-0.078125,-1.046875,0.265625
15,-0.33935547,-0.8049927,0.5036011,-0.703125,-0.171875,-0.625
16,-0.3359375,-0.78985596,0.5009155,-0.90625,-0.171875,-1.03125
17,-0.3527832,-0.78863525,0.510437,-0.140625,-0.40625,-0.515625
18,-0.34643555,-0.79278564,0.5055542,-0.0625,-1.0,-0.421875
19,-0.3515625,-0.7896118,0.50775146,-0.09375,-0.703125,-0.546875
20,-0.34301758,-0.7901001,0.5031128,-0.125,-0.734375,-0.46875
21,-0.3413086,-0.78985596,0.5009155,-0.515625,-0.515625,-0.578125
22,-0.34594727,-0.7913208,0.510437,-0.828125,-0.390625,-0.6875
23,-0.34179688,-0.78619385,0.50115967,-1.078125,-0.296875,-0.609375
24,-0.35595703,-0.77960205,0.5048218,-1.3125,-0.09375,0.5
25,-0.34814453,-0.7764282,0.512146,-0.8125,-0.046875,0.828125
26,-0.3400879,-0.7930298,0.49945068,-1.390625,-0.078125,0.40625
27,-0.34106445,-0.788147,0.5048218,-1.828125,0.109375,0.25
28,-0.3425293,-0.7996216,0.5072632,-0.34375,-0.125,0.25
29,-0.3383789,-0.7893677,0.5072632,0.296875,0.296875,-0.140625
30,-0.34472656,-0.78985596,0.50994873,0.734375,-0.09375,-0.21875
31,-0.34936523,-0.7854614,0.50335693,3.78125,-0.9375,0.875
32,-0.3413086,-0.80059814,0.5009155,4.828125,-1.234375,1.578125
33,-0.3347168,-0.7905884,0.49163818,4.046875,-0.453125,0.65625
34,-0.34570312,-0.7842407,0.48773193,7.03125,-0.734375,1.078125
35,-0.34204102,-0.83477783,0.48382568,6.03125,-1.078125,2.21875
36,-0.32958984,-0.8196411,0.4718628,3.625,-0.890625,1.625
37,-0.32299805,-0.80352783,0.46624756,2.03125,-0.96875,-0.0625
38,-0.32470703,-0.80548096,0.4647827,0.015625,-0.390625,-0.453125
39,-0.33032227,-0.80670166,0.4767456,-1.59375,0.15625,0.078125
40,-0.35131836,-0.8106079,0.48406982,-1.625,0.46875,1.1875
41,-0.34399414,-0.8357544,0.47210693,-0.421875,-1.015625,2.15625
42,-0.3305664,-0.8452759,0.4677124,0.3125,-1.578125,0.671875
43,-0.32299805,-0.8362427,0.46673584,-1.140625,-0.453125,-0.765625
44,-0.31054688,-0.8106079,0.46063232,-1.046875,-0.140625,-2.078125
45,-0.31860352,-0.8057251,0.46209717,-2.328125,0.09375,-1.828125
46,-0.33740234,-0.8015747,0.4713745,-1.609375,-0.59375,-1.6875
47,-0.33642578,-0.7942505,0.48553467,0.515625,-0.9375,-0.828125
48,-0.34594727,-0.80792236,0.4821167,-0.5625,-0.6875,0.109375
49,-0.33984375,-0.8128052,0.47821045,-2.1875,-0.0625,0.46875
50,-0.34033203,-0.8101196,0.46795654,-1.15625,-0.484375,0.109375
51,-0.34033203,-0.81622314,0.47235107,-0.5,-0.46875,0.1875
52,-0.33251953,-0.8218384,0.47576904,-0.75,-0.359375,0.1875
53,-0.33764648,-0.81622314,0.47503662,0.53125,-0.734375,-0.109375
54,-0.33032227,-0.8323364,0.48309326,0.890625,-1.0,-0.328125
55,-0.3334961,-0.82037354,0.47894287,-0.375,-0.765625,-1.015625
56,-0.33447266,-0.81378174,0.47113037,-1.296875,-0.796875,-1.03125
57,-0.33520508,-0.81085205,0.479187,-0.015625,-0.59375,-0.96875
58,-0.34204102,-0.7996216,0.49066162,-1.21875,0.15625,-1.484375
59,-0.3503418,-0.7835083,0.47381592,-1.421875,0.0625,-0.0625
60,-0.3474121,-0.78497314,0.46502686,-0.375,-0.65625,1.53125
61,-0.33935547,-0.8286743,0.4743042,1.15625,-1.015625,1.46875
62,-0.33203125,-0.83477783,0.48553467,-0.25,0.15625,0.453125
63,-0.3269043,-0.8284302,0.4804077,-1.390625,0.203125,-0.59375
64,-0.3293457,-0.8093872,0.4730835,-1.0,0.09375,-0.09375
65,-0.3408203,-0.8130493,0.4755249,0.296875,-0.796875,-0.015625
66,-0.33740234,-0.8147583,0.47576904,-0.34375,-0.609375,-0.59375
67,-0.33666992,-0.7998657,0.47894287,-0.28125,-0.34375,-0.34375
68,-0.33764648,-0.81573486,0.47113037,-0.21875,-0.703125,-0.046875
69,-0.33276367,-0.81500244,0.47479248,-0.515625,-0.8125,-0.59375
70,-0.3322754,-0.800354,0.48065186,-1.0,-0.3125,-0.9375
71,-0.3400879,-0.80352783,0.479187,-1.578125,-0.203125,-0.21875
72,-0.33666992,-0.802063,0.4772339,-2.1875,-0.140625,0.703125
73,-0.3317871,-0.8064575,0.4743042,-0.71875,-1.0625,0.40625
74,-0.33422852,-0.8218384,0.48284912,-0.296875,-0.828125,0.21875
75,-0.33569336,-0.8296509,0.479187,-1.4375,-0.265625,-0.578125
76,-0.33764648,-0.8171997,0.4677124,-1.234375,-0.265625,-0.296875
77,-0.33325195,-0.8081665,0.47601318,-1.09375,-0.421875,-1.21875
78,-0.34204102,-0.8069458,0.48284912,-0.734375,-1.046875,-0.796875
79,-0.33984375,-0.8106079,0.49041748,-0.6875,-0.703125,-1.109375
80,-0.34716797,-0.8027954,0.4821167,-0.828125,-0.6875,-1.234375
81,-0.3425293,-0.80181885,0.48309326,-1.21875,-1.015625,-0.984375
82,-0.34814453,-0.7930298,0.48797607,-0.25,-0.875,-0.5625
83,-0.34521484,-0.800354,0.48553467,-1.578125,-0.765625,-0.578125
84,-0.34106445,-0.77667236,0.4779663,-2.859375,-0.125,-0.421875
85,-0.35595703,-0.79888916,0.4882202,-0.703125,-0.296875,1.03125
86,-0.3474121,-0.8167114,0.48846436,0.296875,-0.5,1.09375
87,-0.33984375,-0.8123169,0.48944092,0.15625,-0.890625,0.15625
88,-0.33911133,-0.8128052,0.49383545,0.21875,-0.5,-0.25
89,-0.33911133,-0.8015747,0.479187,-0.25,-0.46875,-0.109375
90,-0.34423828,-0.80474854,0.4857788,0.421875,-0.1875,-0.171875
91,-0.3413086,-0.803772,0.48260498,0.1875,-0.75,-0.234375
92,-0.33862305,-0.8057251,0.4821167,0.34375,-0.75,0.015625
93,-0.34155273,-0.802063,0.48260498,0.4375,-0.390625,-0.546875
94,-0.33862305,-0.81744385,0.4833374,-0.375,0.015625,-0.203125
95,-0.33618164,-0.7905884,0.48284912,-1.421875,0.25,-0.40625
96,-0.35302734,-0.7979126,0.4887085,-0.8125,-0.140625,0.6875
97,-0.34887695,-0.81427,0.48602295,-1.0,-0.25,0.984375
98,-0.3322754,-0.8106079,0.48187256,-0.84375,-0.1875,0.125
99,-0.33862305,-0.8179321,0.48284912,-0.859375,0.15625,0.171875
100,-0.33984375,-0.80352783,0.4869995,-0.421875,0.09375,0.515625
101,-0.33569336,-0.8040161,0.47943115,-0.875,-0.078125,0.09375
102,-0.3395996,-0.8010864,0.48724365,-0.9375,-0.25,-0.265625
103,-0.34155273,-0.8045044,0.48895264,-0.25,-0.46875,0.0
104,-0.3334961,-0.803772,0.4874878,-0.390625,-0.296875,-0.171875
105,-0.3334961,-0.800354,0.48480225,-0.640625,-0.25,-0.03125
106,-0.33691406,-0.8045044,0.49163818,-1.296875,-0.21875,-0.34375
107,-0.3359375,-0.80133057,0.49017334,-1.90625,-0.46875,-0.515625
108,-0.33813477,-0.7954712,0.49139404,-2.71875,-0.46875,-0.828125
109,-0.34301758,-0.78790283,0.49212646,-2.453125,0.359375,-0.953125
110,-0.3540039,-0.788147,0.49969482,-0.765625,0.5625,1.015625
111,-0.35229492,-0.82232666,0.5126343,2.28125,-0.484375,1.921875
112,-0.34521484,-0.8364868,0.48773193,2.953125,-1.375,1.5625
113,-0.33740234,-0.81329346,0.49017334,4.796875,-0.484375,1.578125
114,-0.32299805,-0.81500244,0.480896,4.28125,-0.578125,1.296875
115,-0.31713867,-0.79693604,0.46331787,1.765625,-0.53125,0.4375
116,-0.32910156,-0.8076782,0.45892334,-0.421875,-1.015625,-0.515625
117,-0.3269043,-0.81622314,0.47357178,-1.171875,-0.609375,-0.125
118,-0.32202148,-0.8076782,0.46038818,-2.75,-1.0,-0.765625
119,-0.31713867,-0.80426025,0.47894287,-2.21875,-0.6875,-1.40625
120,-0.34057617,-0.81915283,0.49261475,-1.5625,0.28125,-0.515625
121,-0.3474121,-0.803772,0.48675537,-1.1875,-0.671875,0.15625
122,-0.33984375,-0.8064575,0.47479248,1.15625,-1.203125,0.6875
123,-0.33911133,-0.82891846,0.48114014,1.765625,-0.46875,1.921875
124,-0.33154297,-0.8257446,0.47991943,0.6875,0.171875,1.59375
125,-0.32910156,-0.83380127,0.47161865,1.453125,0.265625,0.859375
126,-0.33374023,-0.8106079,0.47698975,2.515625,0.0625,1.015625
127,-0.32543945,-0.81085205,0.47406006,1.8125,-0.09375,0.703125
128,-0.31347656,-0.83258057,0.46014404,-0.28125,0.28125,0.0625
129,-0.31958008,-0.8106079,0.4713745,-1.984375,0.765625,0.3125
130,-0.3269043,-0.81915283,0.47625732,-3.265625,0.828125,0.953125
131,-0.32202148,-0.7996216,0.46575928,-5.0625,0.90625,0.859375
132,-0.31958008,-0.7971802,0.47283936,-3.5625,0.953125,1.09375
133,-0.31884766,-0.82354736,0.48797607,0.25,0.59375,2.359375
134,-0.30517578,-0.84576416,0.49261475,1.484375,0.265625,1.875
135,-0.2939453,-0.8255005,0.48480225,0.140625,0.625,0.109375
136,-0.29956055,-0.8057251,0.48016357,0.828125,0.40625,-0.46875
137,-0.30322266,-0.81695557,0.4804077,0.0,-0.203125,-0.0625
138,-0.31713867,-0.8154907,0.4862671,-0.421875,-0.546875,0.4375
139,-0.31591797,-0.82354736,0.4869995,-0.5,-1.109375,0.15625
140,-0.30541992,-0.81207275,0.47625732,-1.828125,-1.65625,-1.203125
141,-0.29785156,-0.8064575,0.4784546,-3.5625,-1.359375,-2.578125
142,-0.3161621,-0.79156494,0.49066162,-2.640625,-0.984375,-1.625
143,-0.3178711,-0.7974243,0.5014038,-2.328125,-1.671875,-0.65625
144,-0.32006836,-0.8328247,0.49798584,-0.578125,-2.078125,0.328125
145,-0.3239746,-0.8272095,0.49822998,2.109375,-0.984375,0.078125
146,-0.3137207,-0.8413696,0.49139404,2.171875,-0.78125,0.140625
147,-0.31201172,-0.80792236,0.47235107,0.375,-0.46875,-1.09375
148,-0.328125,-0.802063,0.46966553,0.953125,-0.546875,-1.515625
149,-0.33251953,-0.81744385,0.47357178,0.359375,-1.265625,-1.140625
150,-0.3305664,-0.81573486,0.48162842,0.0625,-1.71875,-0.65625
151,-0.32495117,-0.81256104,0.4743042,-1.453125,-1.578125,-0.53125
152,-0.32373047,-0.8128052,0.47650146,-1.65625,-0.875,-0.96875
153,-0.33276367,-0.81744385,0.47772217,-1.921875,-0.984375,-0.890625
154,-0.32202148,-0.8032837,0.47576904,-1.0,-0.5,-1.15625
155,-0.34033203,-0.81573486,0.48187256,-0.5,-0.625,0.484375
156,-0.34204102,-0.8167114,0.48773193,1.796875,-0.84375,1.4375
157,-0.32226562,-0.8311157,0.4767456,1.921875,-0.265625,1.5
158,-0.32104492,-0.81988525,0.47235107,1.953125,0.0625,1.171875
159,-0.32250977,-0.80133057,0.4689331,1.5625,0.109375,0.640625
160,-0.3232422,-0.8140259,0.4640503,1.15625,-0.1875,-0.140625
161,-0.32421875,-0.8237915,0.47088623,0.28125,-0.3125,0.1875
162,-0.32348633,-0.8308716,0.47454834,0.65625,-0.953125,0.78125
163,-0.3161621,-0.81817627,0.47576904,0.921875,-0.671875,-0.125
164,-0.32128906,-0.8164673,0.4647827,-0.09375,-0.015625,-0.484375
165,-0.32592773,-0.7944946,0.46502686,-1.234375,0.0,1.078125
166,-0.3347168,-0.8291626,0.46258545,-0.640625,-0.34375,1.859375
167,-0.31933594,-0.8352661,0.46502686,0.90625,0.640625,1.875
168,-0.3178711,-0.83917236,0.46795654,0.578125,1.34375,1.84375
169,-0.3017578,-0.831604,0.46502686,-0.9375,0.921875,1.21875
170,-0.3034668,-0.8130493,0.4616089,-0.84375,0.59375,0.78125
171,-0.29614258,-0.82232666,0.46722412,-0.6875,-0.015625,0.0625
172,-0.3046875,-0.8357544,0.480896,-2.25,-0.09375,-0.515625
173,-0.30371094,-0.8296509,0.47528076,-3.640625,-0.109375,-0.625
174,-0.30859375,-0.8093872,0.47357178,-2.40625,-0.40625,-1.0625
175,-0.3112793,-0.7998657,0.47357178,-2.15625,-0.78125,-0.765625
176,-0.30395508,-0.7974243,0.47576904,-3.640625,-0.796875,-0.90625
177,-0.3137207,-0.80303955,0.48431396,-2.453125,-0.8125,-0.203125
178,-0.3095703,-0.8262329,0.4882202,-0.65625,-1.578125,-0.5
179,-0.30664062,-0.83258057,0.48944092,-0.765625,-1.28125,-1.3125
180,-0.31469727,-0.8206177,0.48406982,-0.6875,-0.9375,-1.28125
181,-0.3203125,-0.80474854,0.48406982,-0.203125,-1.171875,-0.78125
182,-0.32348633,-0.8128052,0.48406982,-0.84375,-1.09375,-0.78125
183,-0.32592773,-0.8154907,0.4887085,-1.28125,-0.703125,-0.796875
184,-0.33618164,-0.8147583,0.4869995,-0.453125,-0.546875,-0.265625
185,-0.32641602,-0.8262329,0.48529053,-0.96875,-0.59375,-0.625
186,-0.32299805,-0.80914307,0.480896,-3.34375,0.28125,-1.296875
187,-0.3149414,-0.7883911,0.49017334,-4.1875,1.421875,-1.34375
188,-0.3388672,-0.788147,0.5162964,-0.125,2.0625,1.390625
189,-0.34375,-0.82403564,0.51776123,4.0625,-1.015625,2.796875
190,-0.31420898,-0.8296509,0.4960327,5.75,-1.96875,2.0
191,-0.3017578,-0.8286743,0.46795654,3.34375,-1.546875,0.96875
192,-0.29614258,-0.8076782,0.46551514,3.265625,-0.640625,0.359375
193,-0.31347656,-0.8255005,0.4586792,0.609375,-0.640625,0.203125
194,-0.3112793,-0.81915283,0.4623413,-3.375,-0.078125,-0.5625
195,-0.30029297,-0.8010864,0.4664917,-4.296875,-0.03125,-1.640625
196,-0.32373047,-0.81036377,0.496521,-2.5,0.359375,-0.5625
197,-0.31689453,-0.803772,0.494812,-2.015625,-0.28125,0.734375
198,-0.30273438,-0.80670166,0.48553467,-0.59375,-0.65625,1.0625
199,-0.30688477,-0.8225708,0.49505615,1.78125,-0.34375,1.1875
200,-0.3046875,-0.835022,0.48773193,0.953125,0.5,1.5
201,-0.30639648,-0.8220825,0.4772339,0.890625,0.1875,0.953125
202,-0.30444336,-0.82525635,0.47821045,1.546875,-0.59375,0.53125
203,-0.30297852,-0.82891846,0.47357178,0.34375,-0.609375,-0.1875
204,-0.29858398,-0.819397,0.46966553,-0.53125,-0.375,-0.765625
205,-0.3125,-0.81378174,0.49017334,-0.828125,-0.15625,-0.53125
206,-0.31640625,-0.82232666,0.494812,-1.453125,-0.5,-0.640625
207,-0.3059082,-0.8245239,0.47479248,-1.34375,-0.71875,-0.34375
208,-0.30029297,-0.79644775,0.47772217,-1.15625,-0.71875,-0.4375
209,-0.3178711,-0.82818604,0.4862671,0.46875,-0.375,0.96875
210,-0.3112793,-0.82769775,0.48382568,-0.25,-0.359375,0.03125
211,-0.30615234,-0.8237915,0.479187,-0.984375,-0.703125,-0.859375
212,-0.3071289,-0.8250122,0.47625732,-0.78125,-0.859375,-0.375
213,-0.31103516,-0.82647705,0.47528076,-0.171875,-1.171875,-0.671875
214,-0.31298828,-0.81378174,0.47991943,-1.140625,-0.96875,-1.359375
215,-0.3154297,-0.8130493,0.48651123,-1.390625,-0.984375,-1.234375
216,-0.31640625,-0.80841064,0.48065186,-1.8125,-1.09375,-0.921875
217,-0.30908203,-0.81207275,0.48162842,-0.984375,-1.046875,-0.984375
218,-0.31298828,-0.8049927,0.48724365,0.375,-0.8125,-0.296875
219,-0.32495117,-0.81329346,0.47503662,-0.1875,-0.65625,0.34375
220,-0.31762695,-0.8267212,0.47528076,-0.03125,-0.1875,0.65625
221,-0.32788086,-0.8189087,0.4796753,0.703125,-0.203125,0.78125
222,-0.31982422,-0.82818604,0.48187256,-0.078125,0.015625,0.15625
223,-0.31176758,-0.83258057,0.47161865,-0.890625,0.453125,-0.09375
224,-0.31225586,-0.8098755,0.4784546,-1.484375,0.71875,-0.34375
225,-0.31567383,-0.81915283,0.49261475,-0.484375,0.3125,0.40625
226,-0.30786133,-0.82476807,0.4887085,-1.015625,0.34375,0.390625
227,-0.3034668,-0.80914307,0.4887085,-1.640625,-0.015625,-0.296875
228,-0.30688477,-0.80426025,0.4845581,-1.234375,-0.109375,0.40625
229,-0.3112793,-0.80010986,0.47894287,-0.46875,0.046875,0.75
230,-0.31591797,-0.8242798,0.47943115,-0.375,0.25,1.375
231,-0.31298828,-0.8242798,0.48114014,-1.0,0.3125,1.015625
232,-0.30639648,-0.82769775,0.4911499,-0.484375,0.03125,0.5625
233,-0.29345703,-0.8081665,0.4887085,-0.078125,0.0,0.125
234,-0.2998047,-0.8201294,0.49066162,0.078125,0.078125,0.03125
235,-0.29907227,-0.8147583,0.4928589,-0.25,-0.1875,-0.328125
236,-0.2980957,-0.81915283,0.48773193,-0.390625,-0.28125,-0.109375
237,-0.30541992,-0.81744385,0.49627686,-0.765625,-0.421875,-0.28125
238,-0.29833984,-0.81427,0.49066162,-0.265625,-0.703125,-0.390625
239,-0.30200195,-0.8076782,0.48431396,-1.125,-0.671875,-0.71875
240,-0.30004883,-0.8189087,0.4874878,-1.453125,-0.546875,-1.171875
241,-0.3083496,-0.8110962,0.49163818,-1.4375,0.171875,-0.8125
242,-0.31518555,-0.8062134,0.4977417,-1.0625,-0.078125,0.5
243,-0.3034668,-0.81427,0.4899292,-1.140625,-0.875,-0.5
244,-0.29736328,-0.8262329,0.49456787,-0.859375,-0.59375,-0.125
245,-0.30126953,-0.81866455,0.50286865,-1.15625,-0.203125,0.171875
246,-0.30322266,-0.8106079,0.49798584,0.078125,-0.328125,-0.109375
247,-0.3076172,-0.81329346,0.49334717,-0.890625,-0.125,-0.46875
248,-0.31030273,-0.8074341,0.48944092,-0.390625,-0.5625,-0.546875
249,-0.31030273,-0.8196411,0.49383545,-0.03125,-0.6875,-0.34375
250,-0.3034668,-0.8098755,0.49700928,-0.3125,-0.09375,0.0625
251,-0.3046875,-0.81378174,0.494812,-0.171875,-0.03125,-0.140625
252,-0.30322266,-0.81695557,0.49139404,-0.828125,0.046875,-0.5625
253,-0.3022461,-0.8135376,0.49798584,-1.125,-0.34375,-0.609375
254,-0.3125,-0.8147583,0.4887085,-0.875,-0.328125,-0.640625
255,-0.30493164,-0.80670166,0.494812,-1.4375,-0.203125,-0.625
256,-0.3059082,-0.8110962,0.49456787,-1.359375,-0.328125,-0.84375
257,-0.30151367,-0.80718994,0.4989624,-2.5,0.015625,-1.546875
258,-0.30639648,-0.7966919,0.5109253,-2.140625,0.796875,-1.09375
259,-0.35083008,-0.7971802,0.53118896,1.265625,0.34375,1.90625
260,-0.32421875,-0.8189087,0.50653076,4.0625,-1.953125,3.578125
261,-0.28759766,-0.82598877,0.47650146,4.65625,-2.21875,2.265625
262,-0.27954102,-0.83184814,0.4755249,4.125,-0.640625,2.09375
263,-0.28027344,-0.817688,0.47869873,2.046875,-0.203125,1.390625
264,-0.28149414,-0.81036377,0.46600342,-0.46875,-1.234375,-0.46875
265,-0.29052734,-0.8135376,0.47161865,-1.453125,-1.421875,-1.359375
266,-0.29345703,-0.8123169,0.4796753,-2.296875,-1.328125,-1.59375
267,-0.3137207,-0.8257446,0.49139404,-1.71875,-0.734375,-0.796875
268,-0.31103516,-0.8076782,0.49212646,-1.203125,-1.171875,-0.375
269,-0.3059082,-0.8074341,0.47821045,0.96875,-1.78125,-0.28125
270,-0.31176758,-0.82818604,0.4862671,1.640625,-1.546875,0.234375
271,-0.3083496,-0.84088135,0.480896,0.84375,-0.40625,0.34375
272,-0.30151367,-0.82159424,0.47894287,1.015625,-1.046875,-0.359375
273,-0.30004883,-0.8418579,0.4772339,0.421875,-1.171875,-1.234375
274,-0.3083496,-0.8179321,0.4677124,-1.03125,-0.578125,-1.375
275,-0.3137207,-0.8088989,0.47039795,-2.359375,-0.421875,-1.484375
276,-0.31958008,-0.81622314,0.47894287,-1.0625,-1.125,-0.609375
277,-0.31225586,-0.81622314,0.48284912,-1.28125,-1.234375,-0.734375
278,-0.31567383,-0.8086548,0.47650146,-2.484375,-0.390625,-0.875
279,-0.3173828,-0.82525635,0.480896,-0.484375,-0.21875,0.375
280,-0.3154297,-0.8262329,0.47869873,0.875,-0.234375,0.890625
281,-0.3071289,-0.8237915,0.47991943,-0.75,-0.25,0.125
282,-0.3076172,-0.8255005,0.47479248,-0.6875,0.078125,-0.09375
283,-0.31518555,-0.8218384,0.480896,0.34375,-0.15625,0.109375
284,-0.31152344,-0.82037354,0.479187,-0.15625,-0.203125,-0.34375
285,-0.30859375,-0.81817627,0.48162842,-0.53125,-0.546875,-0.109375
286,-0.31079102,-0.81378174,0.47625732,-1.03125,-0.796875,-0.203125
287,-0.30200195,-0.82525635,0.48162842,-0.671875,-0.859375,-0.4375
288,-0.30566406,-0.81451416,0.4772339,-1.703125,0.125,-0.640625
289,-0.31860352,-0.7974243,0.4869995,-0.953125,-0.09375,0.0625
290,-0.31762695,-0.8196411,0.48919678,-0.328125,-0.78125,0.5625
291,-0.31054688,-0.8362427,0.48480225,-0.953125,-0.265625,0.59375
292,-0.31079102,-0.81866455,0.47625732,-1.140625,0.40625,0.078125
293,-0.30932617,-0.83380127,0.4845581,0.171875,0.359375,0.59375
294,-0.3095703,-0.817688,0.4928589,-1.390625,0.546875,-0.421875
295,-0.30371094,-0.8118286,0.48529053,-1.4375,0.15625,-0.640625
296,-0.30395508,-0.8196411,0.48797607,-1.015625,-0.4375,0.015625
297,-0.30908203,-0.81085205,0.4899292,-0.53125,-0.796875,-0.015625
298,-0.3010254,-0.8220825,0.4845581,-1.359375,-0.375,-0.578125
299,-0.30444336,-0.79937744,0.48895264,-2.578125,-0.09375,-0.46875
300,-0.3100586,-0.8045044,0.4874878,-0.65625,-0.21875,0.40625
301,-0.31201172,-0.8233032,0.49212646,-0.015625,-0.53125,0.984375
302,-0.30273438,-0.8245239,0.49334717,0.3125,-0.078125,0.71875
303,-0.30419922,-0.82476807,0.48773193,1.78125,0.1875,0.625
304,-0.30078125,-0.81329346,0.48602295,0.84375,0.890625,0.6875
305,-0.30371094,-0.8179321,0.4874878,1.078125,0.375,0.71875
306,-0.29492188,-0.80914307,0.47601318,0.140625,-0.25,0.109375
307,-0.2927246,-0.8328247,0.48114014,-0.90625,-0.53125,-0.484375
308,-0.30249023,-0.82354736,0.4850464,-0.765625,-0.453125,-0.265625
309,-0.30004883,-0.81915283,0.48602295,-1.578125,-0.265625,-1.015625
310,-0.29492188,-0.8201294,0.4928589,-2.203125,-0.59375,-1.328125
311,-0.30541992,-0.8106079,0.4899292,-2.5,-0.28125,-1.09375
312,-0.30737305,-0.8010864,0.4935913,-1.640625,-0.546875,-0.453125
313,-0.31152344,-0.81695557,0.48968506,-0.515625,-0.640625,0.453125
314,-0.3046875,-0.8088989,0.49700928,-0.5625,0.203125,0.859375
315,-0.30126953,-0.8167114,0.49505615,-0.453125,0.625,0.53125
316,-0.30126953,-0.8189087,0.49969482,-1.546875,0.34375,0.0625
317,-0.2980957,-0.815979,0.49798584,-0.59375,0.265625,-0.015625
318,-0.29882812,-0.82769775,0.4928589,-0.703125,0.3125,0.03125
319,-0.30126953,-0.8118286,0.4989624,-1.203125,0.125,0.03125
320,-0.2980957,-0.8118286,0.49383545,-0.15625,-0.125,-0.125
321,-0.2915039,-0.81695557,0.4960327,-0.453125,-0.109375,0.0
322,-0.29785156,-0.815979,0.49676514,-0.96875,-0.203125,-0.265625
323,-0.29541016,-0.8086548,0.494812,-0.6875,-0.34375,-0.328125
324,-0.29052734,-0.81451416,0.49090576,-0.875,-0.390625,-0.4375
325,-0.29541016,-0.8098755,0.5036011,-0.96875,-0.46875,-0.3125
326,-0.29736328,-0.8135376,0.50164795,-1.21875,-0.390625,-1.03125
327,-0.30078125,-0.81573486,0.5023804,-1.328125,-0.046875,-0.578125
328,-0.3227539,-0.80792236,0.5126343,-0.140625,0.46875,1.359375
329,-0.3251953,-0.817688,0.5128784,4.515625,-1.90625,2.765625
330,-0.2734375,-0.8357544,0.4935913,5.421875,-2.296875,2.578125
331,-0.27539062,-0.8364868,0.47650146,5.34375,-0.1875,2.796875
332,-0.27856445,-0.81622314,0.4730835,4.5,-0.984375,1.578125
333,-0.2783203,-0.8074341,0.4574585,3.109375,-2.21875,0.125
334,-0.2775879,-0.8257446,0.46063232,-0.96875,-2.125,-1.125
335,-0.28759766,-0.83135986,0.45892334,-4.546875,-1.703125,-2.0625
336,-0.29101562,-0.82110596,0.47088623,-3.46875,-1.671875,-2.515625
337,-0.3149414,-0.8513794,0.49456787,-1.875,-1.375,-1.25
338,-0.3071289,-0.80914307,0.47503662,-2.28125,-1.71875,-1.09375
339,-0.3046875,-0.81427,0.4718628,0.390625,-2.140625,-1.0625
340,-0.31054688,-0.8284302,0.480896,-0.421875,-0.984375,-0.40625
341,-0.31274414,-0.83966064,0.480896,-0.703125,-0.421875,-0.140625
342,-0.3046875,-0.8291626,0.4730835,0.03125,-0.8125,-0.34375
343,-0.30004883,-0.8189087,0.47576904,-1.3125,-0.84375,-1.09375
344,-0.30297852,-0.83306885,0.47406006,-0.875,-0.1875,-0.921875
345,-0.31469727,-0.8171997,0.48260498,-2.3125,-0.09375,-0.625
346,-0.3178711,-0.80963135,0.4857788,-1.375,-1.046875,-0.375
347,-0.30737305,-0.80963135,0.48114014,-1.90625,-0.734375,-0.640625
348,-0.30639648,-0.8115845,0.48114014,-1.84375,-0.09375,-0.390625
349,-0.31567383,-0.82403564,0.48773193,0.078125,-0.375,0.6875
350,-0.31225586,-0.8320923,0.4882202,0.984375,-0.671875,0.46875
351,-0.3076172,-0.82696533,0.48944092,-0.390625,-0.234375,0.0
352,-0.31762695,-0.82281494,0.48065186,-0.0625,-0.015625,0.015625
353,-0.30395508,-0.82110596,0.47625732,0.015625,-0.1875,0.125
354,-0.31152344,-0.82232666,0.48138428,-0.1875,0.234375,-0.046875
355,-0.31054688,-0.81988525,0.4862671,-0.375,0.03125,0.328125
356,-0.30517578,-0.8135376,0.48065186,-0.484375,-0.09375,0.0625
357,-0.2998047,-0.8154907,0.48284912,-0.546875,0.15625,-0.09375
358,-0.30639648,-0.8064575,0.48773193,-0.4375,0.75,1.015625
359,-0.31176758,-0.8167114,0.4899292,-1.0,0.1875,0.953125
360,-0.29638672,-0.8357544,0.4779663,-0.15625,0.1875,0.90625
361,-0.2919922,-0.8184204,0.479187,-1.671875,0.578125,0.40625
362,-0.2932129,-0.8245239,0.4882202,0.171875,0.0625,0.125
363,-0.29223633,-0.8225708,0.49334717,-0.640625,-0.046875,-0.390625
364,-0.29589844,-0.81500244,0.48431396,-1.875,-0.125,-0.78125
365,-0.30126953,-0.8272095,0.48553467,-1.390625,-0.734375,-0.625
366,-0.29956055,-0.8206177,0.49505615,-1.03125,-1.234375,-0.703125
367,-0.296875,-0.8110962,0.49383545,-1.59375,-0.671875,-0.734375
368,-0.30395508,-0.80792236,0.48236084,-1.734375,-0.25,-0.296875
369,-0.3017578,-0.80133057,0.48358154,-1.296875,-0.78125,-0.265625
370,-0.30859375,-0.8284302,0.4911499,-0.859375,-0.703125,-0.140625
371,-0.2993164,-0.8257446,0.5006714,-0.453125,-0.734375,0.015625
372,-0.2993164,-0.80914307,0.4935913,0.1875,-0.296875,-0.703125
373,-0.2932129,-0.8086548,0.49627686,0.5,-0.4375,-0.578125
374,-0.3046875,-0.8074341,0.49163818,-0.015625,-0.734375,-0.25
375,-0.30395508,-0.8242798,0.48944092,1.6875,-0.890625,-0.453125
376,-0.3088379,-0.82232666,0.4833374,0.171875,-0.8125,-0.3125
377,-0.30688477,-0.8069458,0.47772217,-1.140625,-0.71875,-0.703125
378,-0.31884766,-0.8052368,0.47943115,0.5625,-1.25,-0.3125
379,-0.30810547,-0.82281494,0.48773193,1.484375,-1.515625,-0.21875
380,-0.29248047,-0.82525635,0.48919678,0.234375,-0.984375,-1.390625
381,-0.31298828,-0.8110962,0.48382568,0.40625,-0.515625,-0.15625
382,-0.32104492,-0.79034424,0.48138428,1.21875,-1.796875,0.796875
383,-0.3010254,-0.8267212,0.47601318,2.328125,-2.125,0.40625
384,-0.3046875,-0.8369751,0.48382568,0.734375,-0.40625,0.375
385,-0.3154297,-0.8274536,0.4779663,1.03125,0.203125,0.203125
386,-0.31567383,-0.8218384,0.46746826,-0.09375,-0.53125,-0.125
387,-0.31030273,-0.81988525,0.46185303,-1.109375,-0.828125,-0.6875
388,-0.31030273,-0.82354736,0.47088623,-1.125,-0.5625,-0.625
389,-0.31079102,-0.8262329,0.47772217,-0.8125,-0.140625,-0.1875
390,-0.31030273,-0.82281494,0.479187,-0.375,-0.3125,-0.15625
391,-0.30932617,-0.82525635,0.47406006,-1.03125,-0.203125,-0.0625
392,-0.3149414,-0.81622314,0.47943115,-0.84375,-0.421875,-0.359375
393,-0.30688477,-0.8262329,0.48284912,-1.40625,-0.59375,-0.65625
394,-0.30859375,-0.82696533,0.4821167,-2.671875,-0.0625,-1.015625
395,-0.3149414,-0.8069458,0.47991943,-3.5625,0.375,-1.375
396,-0.32714844,-0.8308716,0.5097046,1.765625,0.15625,0.703125
397,-0.33032227,-0.8335571,0.49749756,2.390625,-1.40625,1.546875
398,-0.30981445,-0.83673096,0.47503662,6.21875,-1.28125,2.9375
399,-0.31079102,-0.84259033,0.46185303,8.890625,-0.46875,4.09375
400,-0.29956055,-0.8357544,0.4376831,7.34375,-0.734375,3.90625
401,-0.28564453,-0.8218384,0.42108154,4.421875,-0.546875,1.6875
402,-0.28198242,-0.8440552,0.42230225,0.953125,0.0,0.859375
403,-0.2783203,-0.847229,0.42425537,-3.265625,-0.40625,-0.109375
404,-0.27441406,-0.831604,0.44207764,-3.09375,-0.8125,-1.09375
405,-0.2956543,-0.8609009,0.46551514,-0.8125,0.09375,-0.484375
406,-0.3100586,-0.8479614,0.46966553,-1.796875,-0.15625,-0.09375
407,-0.29614258,-0.82232666,0.45135498,0.40625,-1.296875,-0.15625
408,-0.2980957,-0.8279419,0.44940186,4.09375,-1.0,1.328125
409,-0.29785156,-0.87579346,0.4484253,1.65625,0.203125,1.515625
410,-0.28710938,-0.8518677,0.43011475,0.203125,0.15625,0.328125
411,-0.28808594,-0.8345337,0.43133545,0.703125,-0.234375,-0.84375
412,-0.30151367,-0.86065674,0.4393921,0.203125,-0.21875,-0.09375
413,-0.29516602,-0.85357666,0.44622803,-2.34375,-0.375,-0.5625
414,-0.29223633,-0.84210205,0.44476318,-3.34375,-0.515625,-1.578125
415,-0.2939453,-0.8201294,0.43719482,-3.875,-0.296875,-0.84375
416,-0.29296875,-0.83428955,0.43792725,-2.0,-1.328125,0.109375
417,-0.28686523,-0.8526001,0.45648193,0.78125,-0.625,0.359375
418,-0.29882812,-0.8621216,0.46038818,0.78125,0.59375,0.453125
419,-0.29003906,-0.84625244,0.44232178,-1.796875,0.015625,-0.4375
420,-0.29296875,-0.8255005,0.44403076,0.09375,-0.4375,-0.453125
421,-0.29882812,-0.8460083,0.44744873,0.109375,-0.34375,-0.53125
422,-0.29833984,-0.8340454,0.44989014,-1.09375,-0.234375,-0.25
423,-0.30029297,-0.8401489,0.44622803,-1.359375,-0.71875,-0.0625
424,-0.29077148,-0.83795166,0.4484253,-0.90625,-0.859375,-0.5
425,-0.28930664,-0.833313,0.45111084,-1.515625,-0.671875,-0.328125
426,-0.29833984,-0.84942627,0.44866943,-2.828125,-0.140625,-0.4375
427,-0.29736328,-0.8218384,0.44403076,-2.34375,-0.15625,-0.09375
428,-0.29760742,-0.84210205,0.4706421,1.546875,-0.8125,0.234375
429,-0.29296875,-0.85357666,0.46551514,1.25,-0.171875,-0.28125
430,-0.2861328,-0.8255005,0.4491577,1.046875,0.09375,0.09375
431,-0.29125977,-0.8381958,0.44744873,1.125,-0.34375,0.109375
432,-0.2932129,-0.84942627,0.449646,-0.921875,-0.421875,-0.109375
433,-0.29858398,-0.8435669,0.4508667,-2.28125,-0.359375,-0.46875
434,-0.2980957,-0.83673096,0.44989014,-1.078125,-0.515625,-0.9375
435,-0.2998047,-0.8442993,0.4520874,-1.1875,-1.1875,-0.25
436,-0.29516602,-0.84210205,0.45135498,-1.109375,-1.078125,-0.421875
437,-0.2944336,-0.84259033,0.45306396,-1.8125,-0.515625,-0.4375
438,-0.29052734,-0.83306885,0.4611206,-1.4375,-0.1875,-0.296875
439,-0.30493164,-0.8389282,0.46624756,0.40625,-0.296875,0.328125
440,-0.30322266,-0.84625244,0.45648193,1.9375,-0.796875,0.453125
441,-0.29638672,-0.8335571,0.4491577,0.28125,-0.515625,0.109375
442,-0.29467773,-0.8401489,0.44378662,-0.796875,-0.15625,-0.3125
443,-0.30029297,-0.8423462,0.4472046,-0.578125,-0.109375,0.203125
444,-0.29663086,-0.84625244,0.4557495,0.109375,-0.59375,-0.3125
445,-0.29711914,-0.84503174,0.4562378,-1.3125,-0.578125,-1.03125
446,-0.3022461,-0.8345337,0.45550537,-0.390625,-0.75,-0.296875
447,-0.29833984,-0.8262329,0.4586792,0.484375,-1.265625,-0.046875
448,-0.2998047,-0.84625244,0.4537964,0.734375,-0.21875,0.34375
449,-0.30981445,-0.829895,0.44769287,-0.765625,0.078125,0.625
450,-0.29858398,-0.850647,0.44818115,0.15625,-0.328125,0.59375
451,-0.2919922,-0.85601807,0.4454956,-0.21875,-0.09375,0.40625
452,-0.2956543,-0.8413696,0.4472046,-0.734375,0.171875,-0.09375
453,-0.2939453,-0.8335571,0.4491577,-0.65625,-0.171875,-0.296875
454,-0.28637695,-0.84576416,0.46038818,-0.453125,-0.828125,-0.859375
455,-0.28833008,-0.8501587,0.45672607,-1.046875,-0.703125,-0.65625
456,-0.29345703,-0.8272095,0.4562378,-0.875,-0.578125,-0.765625
457,-0.30297852,-0.84698486,0.45306396,-0.71875,-0.46875,-1.15625
458,-0.31079102,-0.84747314,0.45111084,0.109375,-0.0625,-0.375
459,-0.31103516,-0.83795166,0.43695068,-1.6875,0.78125,0.0
460,-0.31225586,-0.8357544,0.4484253,-0.53125,0.609375,1.1875
461,-0.3005371,-0.8484497,0.45428467,-0.984375,0.546875,1.546875
462,-0.28320312,-0.84454346,0.45794678,-1.953125,1.359375,0.6875
463,-0.28393555,-0.8428345,0.45648193,-1.296875,1.1875,0.65625
464,-0.2788086,-0.831604,0.46624756,-1.0,0.453125,0.28125
465,-0.27978516,-0.8369751,0.46697998,-2.1875,-0.125,-0.390625
466,-0.27929688,-0.8237915,0.47235107,-2.53125,-0.078125,-0.875
467,-0.30078125,-0.8284302,0.4694214,-1.671875,0.140625,-0.21875
468,-0.31689453,-0.84869385,0.480896,0.984375,0.96875,1.515625
469,-0.29833984,-0.8521118,0.46966553,2.640625,-0.703125,2.609375
470,-0.2783203,-0.83551025,0.4611206,4.375,-1.859375,1.03125
471,-0.26538086,-0.8389282,0.44403076,4.21875,-1.59375,0.59375
472,-0.26171875,-0.8374634,0.44281006,1.609375,-1.734375,-0.28125
473,-0.26831055,-0.83721924,0.43963623,-0.765625,-1.921875,-0.828125
474,-0.27734375,-0.8584595,0.4389038,-2.09375,-1.96875,-1.25
475,-0.27661133,-0.82525635,0.44500732,-3.140625,-2.078125,-2.328125
476,-0.29125977,-0.8345337,0.4557495,-3.21875,-1.640625,-2.65625
477,-0.3088379,-0.8369751,0.45428467,-4.171875,-1.671875,-1.359375
478,-0.3034668,-0.83551025,0.4533081,-2.28125,-2.03125,-1.3125
479,-0.30371094,-0.84039307,0.46038818,-0.25,-1.65625,-1.359375
480,-0.30859375,-0.8518677,0.46258545,-0.390625,-1.4375,-0.5
481,-0.30566406,-0.829895,0.45770264,0.109375,-0.984375,-0.4375
482,-0.30859375,-0.8401489,0.4537964,0.25,-1.109375,-0.484375
483,-0.31201172,-0.83673096,0.46575928,-0.953125,-1.09375,-0.71875
484,-0.3083496,-0.83795166,0.45794678,-0.859375,-0.734375,-0.84375
485,-0.31054688,-0.8377075,0.45599365,-1.5,-0.734375,-0.796875
486,-0.31298828,-0.8272095,0.4550171,-1.71875,-0.234375,-0.796875
487,-0.31030273,-0.8267212,0.463562,-1.046875,-0.375,-0.171875
488,-0.31030273,-0.8274536,0.46209717,-0.84375,-0.390625,0.203125
489,-0.30615234,-0.8284302,0.4586792,-1.421875,-0.15625,0.15625
490,-0.30859375,-0.83135986,0.46844482,0.296875,0.015625,0.921875
491,-0.30566406,-0.8362427,0.4718628,-0.6875,0.078125,0.640625
492,-0.30395508,-0.8484497,0.4569702,-0.859375,0.28125,0.265625
493,-0.30273438,-0.8257446,0.45550537,-1.0625,0.203125,0.0
494,-0.2998047,-0.8369751,0.46795654,-0.078125,0.03125,0.3125
495,-0.3022461,-0.8345337,0.4664917,-0.578125,0.1875,-0.25
496,-0.2993164,-0.8291626,0.46624756,-0.8125,-0.125,-0.15625
497,-0.30004883,-0.8250122,0.46258545,-0.5,-0.53125,0.21875
498,-0.29516602,-0.82476807,0.45819092,0.109375,-0.578125,-0.078125
499,-0.29858398,-0.8340454,0.46575928,-0.890625,-0.25,-0.1875
500,-0.3076172,-0.81085205,0.4706421,-1.546875,-0.296875,-0.421875
501,-0.3112793,-0.8428345,0.46673584,0.46875,-0.453125,0.609375
502,-0.30639648,-0.8418579,0.46551514,-0.3125,-0.109375,0.890625
503,-0.29736328,-0.8394165,0.4557495,0.046875,0.203125,0.46875
504,-0.29858398,-0.8374634,0.45428467,-0.359375,0.125,0.03125
505,-0.2932129,-0.83673096,0.46551514,-0.84375,0.0,-0.15625
506,-0.30029297,-0.8286743,0.47088623,-1.046875,0.046875,-0.21875
507,-0.29760742,-0.8274536,0.46600342,-0.65625,-0.34375,-0.078125
508,-0.3005371,-0.8201294,0.47235107,0.25,-0.484375,0.125
509,-0.29125977,-0.82159424,0.46820068,-0.21875,-0.4375,-0.015625
510,-0.29174805,-0.8284302,0.4598999,-0.890625,-0.15625,-0.40625
511,-0.29907227,-0.80963135,0.46331787,-0.96875,0.40625,-0.40625
512,-0.3095703,-0.83917236,0.46990967,0.0,-0.140625,0.71875
513,-0.30126953,-0.8447876,0.463562,-0.78125,-0.625,-0.078125
514,-0.29125977,-0.8401489,0.46331787,-0.90625,0.0,-0.25
515,-0.29882812,-0.8386841,0.46722412,-0.203125,-0.140625,0.015625
516,-0.29638672,-0.8250122,0.463562,0.125,-0.359375,-0.328125
517,-0.29785156,-0.8345337,0.46258545,-0.15625,-0.21875,-0.328125
518,-0.30004883,-0.82476807,0.47747803,-0.171875,-0.125,-0.125
519,-0.29785156,-0.83966064,0.45916748,0.828125,-0.5,0.03125
520,-0.2866211,-0.83966064,0.45648193,-0.671875,-0.65625,-0.390625
521,-0.29467773,-0.82037354,0.463562,-0.5625,-0.625,-0.4375
522,-0.29907227,-0.8311157,0.46844482,-0.265625,-0.640625,-0.296875
523,-0.30639648,-0.83599854,0.46575928,-0.953125,-0.109375,-0.125
524,-0.31030273,-0.8311157,0.4545288,-0.984375,-0.078125,0.390625
525,-0.29711914,-0.82696533,0.4623413,-0.15625,-0.390625,0.390625
526,-0.29174805,-0.83795166,0.46868896,-1.015625,-0.015625,0.5
527,-0.29516602,-0.8328247,0.46600342,-0.984375,0.25,0.265625
528,-0.2915039,-0.8328247,0.47601318,0.0625,-0.078125,-0.203125
529,-0.2878418,-0.8279419,0.47869873,-0.953125,-0.234375,-0.234375
530,-0.28857422,-0.83966064,0.46502686,-1.5625,-0.078125,-0.34375
531,-0.29418945,-0.8206177,0.4689331,-1.484375,-0.109375,-0.40625
532,-0.30126953,-0.8369751,0.4689331,-0.046875,-0.375,-0.125
533,-0.2944336,-0.84039307,0.46990967,-1.171875,-0.53125,-0.578125
534,-0.2939453,-0.83306885,0.4713745,-1.125,-0.234375,-0.890625
535,-0.29956055,-0.8284302,0.47235107,-1.109375,-0.34375,-0.421875
536,-0.29907227,-0.8220825,0.46917725,-1.484375,-0.515625,-0.671875
537,-0.29174805,-0.8296509,0.47991943,-1.984375,-0.53125,-0.796875
538,-0.29589844,-0.82769775,0.480896,-2.625,-0.015625,-0.859375
539,-0.3059082,-0.8352661,0.4862671,-1.34375,-0.359375,-0.125
540,-0.3173828,-0.8074341,0.49066162,0.34375,-1.203125,0.875
541,-0.3088379,-0.835022,0.47991943,3.515625,-1.375,2.96875
542,-0.2915039,-0.8430786,0.47113037,6.390625,-0.640625,4.046875
543,-0.27905273,-0.847229,0.4616089,5.90625,-0.859375,2.265625
544,-0.2763672,-0.8308716,0.449646,2.03125,-1.078125,0.078125
545,-0.2680664,-0.83062744,0.43914795,-0.375,-0.78125,-0.46875
546,-0.27392578,-0.83551025,0.4401245,-1.328125,-0.625,-0.4375
547,-0.28173828,-0.82940674,0.44769287,-3.296875,-1.578125,-1.59375
548,-0.2939453,-0.83477783,0.463562,-3.625,-0.9375,-1.796875
549,-0.29589844,-0.8362427,0.4706421,-2.859375,-0.859375,-1.109375
550,-0.29736328,-0.8369751,0.46209717,-0.875,-0.875,-1.21875
551,-0.30615234,-0.815979,0.46868896,-0.46875,-1.1875,-0.3125
552,-0.3005371,-0.847229,0.4718628,0.109375,-0.765625,0.265625
553,-0.29125977,-0.84332275,0.46722412,-0.765625,-0.1875,-0.421875
554,-0.29760742,-0.8399048,0.46307373,-0.03125,-0.28125,-0.53125
555,-0.30273438,-0.8423462,0.46453857,-0.21875,-0.625,0.078125
556,-0.30029297,-0.83551025,0.45281982,-0.03125,-1.15625,-0.59375
557,-0.28979492,-0.81866455,0.46209717,-1.640625,-1.078125,-1.375
558,-0.2932129,-0.84161377,0.46966553,-1.65625,-0.125,-1.078125
559,-0.30322266,-0.81427,0.4689331,-2.546875,-0.078125,-0.78125
560,-0.30859375,-0.81573486,0.4694214,-1.171875,-0.921875,-0.046875
561,-0.30419922,-0.8311157,0.4611206,-0.0625,-1.5625,0.0
562,-0.3046875,-0.8442993,0.46990967,0.03125,-0.46875,0.390625
563,-0.30419922,-0.83306885,0.46575928,-0.90625,0.28125,-0.015625
564,-0.30541992,-0.8237915,0.4616089,-0.84375,-0.09375,-0.328125
565,-0.30664062,-0.819397,0.46136475,0.140625,-0.625,-0.265625
566,-0.30078125,-0.84161377,0.46990967,-0.875,-0.203125,-0.6875
567,-0.30664062,-0.8296509,0.4701538,-0.75,0.0625,-0.234375
568,-0.3005371,-0.8218384,0.46331787,-1.6875,-0.40625,-0.390625
569,-0.2980957,-0.82940674,0.46820068,-0.6875,-1.234375,-0.375
570,-0.2993164,-0.82940674,0.4725952,-1.0625,-0.609375,-0.59375
571,-0.30932617,-0.81915283,0.47113037,-1.796875,-0.015625,-0.578125
572,-0.30981445,-0.81427,0.46429443,-0.609375,-0.5625,-0.078125
573,-0.3112793,-0.8386841,0.47357178,0.4375,-0.796875,0.53125
574,-0.30395508,-0.83966064,0.47894287,-0.21875,-0.078125,0.125
575,-0.30444336,-0.82940674,0.46722412,-0.6875,0.15625,-0.1875
576,-0.3010254,-0.82598877,0.4701538,-0.265625,-0.046875,-0.015625
577,-0.30297852,-0.83135986,0.47381592,-0.578125,-0.390625,0.0
578,-0.30517578,-0.82940674,0.46575928,-0.671875,-0.390625,-0.359375
579,-0.30493164,-0.819397,0.47576904,-0.5625,-0.5,-0.21875
580,-0.29858398,-0.82281494,0.47894287,-0.1875,-0.0625,-0.09375
581,-0.3022461,-0.81744385,0.4767456,-0.40625,0.09375,-0.296875
582,-0.30200195,-0.81451416,0.46429443,-1.71875,-0.28125,-0.203125
583,-0.30932617,-0.82037354,0.47161865,-0.296875,-0.3125,-0.03125
584,-0.30908203,-0.82696533,0.47625732,-0.875,-0.09375,0.828125
585,-0.29345703,-0.8340454,0.46697998,-0.34375,-0.171875,0.078125
586,-0.29589844,-0.8237915,0.47381592,-1.03125,0.265625,-0.203125
587,-0.30004883,-0.83184814,0.479187,-0.5,0.078125,-0.015625
588,-0.29907227,-0.82403564,0.4874878,-0.578125,-0.359375,-0.453125
589,-0.29125977,-0.8230591,0.4772339,-0.390625,-0.34375,-0.421875
590,-0.30029297,-0.82769775,0.47601318,-0.625,-0.59375,-0.203125
591,-0.3017578,-0.81866455,0.4706421,-0.25,-0.796875,-0.28125
592,-0.29663086,-0.8279419,0.47381592,-0.21875,-0.46875,-0.421875
593,-0.29296875,-0.8291626,0.47625732,-1.296875,-0.0625,-0.59375
594,-0.30981445,-0.8184204,0.47943115,-1.203125,0.125,-0.203125
595,-0.3071289,-0.8135376,0.47088623,-0.484375,-0.953125,0.09375
596,-0.3022461,-0.83551025,0.4730835,-0.484375,-0.765625,0.21875
597,-0.30004883,-0.8386841,0.4850464,-0.796875,-0.078125,0.109375
598,-0.30541992,-0.8189087,0.48065186,0.515625,-0.15625,0.15625
599,-0.296875,-0.8274536,0.48529053,1.125,0.15625,1.078125
600,-0.29492188,-0.8250122,0.47528076,1.15625,0.28125,1.5625
601,-0.29516602,-0.83062744,0.4725952,2.65625,-0.234375,0.578125
602,-0.29345703,-0.82891846,0.4767456,2.125,0.015625,1.0
603,-0.28515625,-0.8320923,0.46429443,0.21875,0.296875,0.5
604,-0.3017578,-0.8279419,0.46722412,-0.859375,-0.390625,-0.28125
605,-0.30029297,-0.83917236,0.46917725,-1.328125,-0.9375,-0.90625
606,-0.29541016,-0.8320923,0.46966553,-3.109375,-0.734375,-1.9375
607,-0.29296875,-0.8352661,0.47406006,-2.625,-0.390625,-1.34375
608,-0.3046875,-0.81915283,0.47650146,-1.953125,-0.578125,-1.28125
609,-0.2944336,-0.81866455,0.48162842,-1.46875,-0.234375,-1.125
610,-0.3095703,-0.82891846,0.4862671,0.1875,-0.140625,0.703125
611,-0.31079102,-0.83184814,0.48382568,3.375,-1.03125,2.296875
612,-0.30249023,-0.84381104,0.4779663,6.5625,-1.640625,3.6875
613,-0.28295898,-0.8477173,0.45941162,6.171875,-1.234375,3.84375
614,-0.27954102,-0.8308716,0.4418335,4.75,-1.578125,2.609375
615,-0.2734375,-0.8352661,0.432312,3.515625,-1.984375,0.640625
616,-0.2722168,-0.8464966,0.43988037,0.75,-0.671875,0.09375
617,-0.27172852,-0.8369751,0.43597412,-1.640625,-0.265625,0.046875
618,-0.27026367,-0.83551025,0.4393921,-2.15625,-1.53125,-1.578125
619,-0.28076172,-0.8518677,0.46063232,-2.109375,-0.53125,-1.765625
620,-0.29589844,-0.8652954,0.4545288,-2.171875,0.28125,-0.375
621,-0.29345703,-0.81866455,0.44500732,-1.546875,-1.453125,-0.765625
622,-0.29614258,-0.8394165,0.45184326,0.875,-1.75,-0.390625
623,-0.2902832,-0.8596802,0.45355225,-0.140625,-0.46875,-0.46875
624,-0.29077148,-0.85162354,0.44891357,-0.84375,-0.046875,-0.75
625,-0.29858398,-0.84991455,0.44866943,-0.703125,-0.578125,-0.203125
626,-0.29614258,-0.847229,0.44525146,-0.75,-1.125,-0.625
627,-0.28930664,-0.835022,0.4418335,-1.59375,-0.640625,-1.265625
628,-0.30786133,-0.83184814,0.45404053,-1.21875,0.046875,-0.296875
629,-0.30615234,-0.8320923,0.45404053,-0.921875,-0.65625,0.328125
630,-0.29101562,-0.84698486,0.45281982,-0.59375,-0.984375,0.03125
631,-0.29248047,-0.83477783,0.45159912,-1.0,-0.40625,-0.421875
632,-0.2932129,-0.8513794,0.4537964,-0.1875,0.25,0.25
633,-0.29760742,-0.84332275,0.4550171,-0.65625,0.09375,0.15625
634,-0.30126953,-0.83721924,0.45721436,-0.46875,-0.203125,0.078125
635,-0.2927246,-0.8389282,0.45233154,-0.84375,-0.390625,0.15625
636,-0.28735352,-0.85284424,0.4491577,-0.59375,0.046875,-0.140625
637,-0.29125977,-0.8303833,0.45233154,-0.953125,0.046875,-0.109375
638,-0.2939453,-0.8423462,0.45599365,0.046875,-0.53125,0.078125
639,-0.29077148,-0.8428345,0.45477295,-0.796875,-0.5625,-0.171875
640,-0.28027344,-0.83795166,0.45965576,-0.53125,-0.484375,-0.546875
641,-0.2927246,-0.8352661,0.44866943,-0.3125,-0.125,0.0
642,-0.29956055,-0.81573486,0.44866943,0.3125,-0.4375,0.609375
643,-0.29736328,-0.8452759,0.44769287,0.734375,-0.734375,0.890625
644,-0.2932129,-0.84698486,0.44989014,-0.171875,-0.125,0.203125
645,-0.29077148,-0.84942627,0.45135498,0.375,-0.234375,0.078125
646,-0.2927246,-0.8452759,0.44866943,-0.171875,-0.328125,-0.25
647,-0.2902832,-0.84381104,0.45648193,-0.921875,-0.453125,-0.53125
648,-0.2944336,-0.84088135,0.4569702,-1.4375,-0.484375,-0.609375
649,-0.29296875,-0.84454346,0.4557495,-1.53125,-0.75,-0.59375
650,-0.28466797,-0.83599854,0.45306396,-1.75,-1.109375,-0.96875
651,-0.28979492,-0.83135986,0.4640503,0.296875,-0.75,-1.421875
652,-0.29589844,-0.8352661,0.45428467,-1.25,-0.203125,-0.421875
653,-0.29785156,-0.8323364,0.45013428,-1.75,-0.671875,-0.53125
654,-0.30664062,-0.8440552,0.45428467,-0.78125,-0.546875,-0.25
655,-0.29907227,-0.8533325,0.46087646,-0.8125,-0.421875,0.3125
656,-0.29492188,-0.84381104,0.45599365,-1.390625,-0.09375,-0.765625
657,-0.29858398,-0.8311157,0.45721436,-0.9375,0.265625,-0.765625
658,-0.2980957,-0.83795166,0.46063232,-1.109375,-0.15625,-0.46875
659,-0.29614258,-0.8381958,0.4623413,-0.515625,-0.125,-0.3125
660,-0.29589844,-0.8386841,0.46722412,-1.484375,-0.171875,-0.234375
661,-0.30273438,-0.833313,0.4623413,-0.734375,-0.234375,0.078125
662,-0.30029297,-0.8423462,0.46820068,-0.015625,-0.40625,0.09375
663,-0.29541016,-0.8440552,0.4557495,-1.46875,-0.4375,-0.46875
664,-0.29858398,-0.8274536,0.45941162,-1.390625,-0.359375,-0.890625
665,-0.29711914,-0.81744385,0.4677124,-1.3125,-0.40625,-0.78125
666,-0.29296875,-0.82598877,0.46844482,-1.0,-0.859375,-0.46875
667,-0.2993164,-0.8389282,0.46429443,-0.71875,-0.609375,-0.234375
668,-0.29370117,-0.8335571,0.47113037,-0.015625,-0.5,-0.359375
669,-0.30371094,-0.83428955,0.4677124,-1.078125,-0.609375,-0.84375
670,-0.30615234,-0.83721924,0.45965576,-1.140625,-0.765625,-0.9375
671,-0.30297852,-0.8233032,0.46063232,-1.546875,-0.75,-1.140625
672,-0.30566406,-0.8320923,0.46624756,-0.21875,-0.34375,-0.484375
673,-0.30981445,-0.83477783,0.47210693,-1.109375,-0.375,-0.953125
674,-0.3034668,-0.8255005,0.46722412,-1.578125,-0.421875,-1.203125
675,-0.30639648,-0.8245239,0.46746826,-1.15625,-0.53125,-0.203125
676,-0.30493164,-0.8291626,0.46868896,-0.984375,-0.421875,-0.4375
677,-0.30493164,-0.83135986,0.46844482,-1.796875,-0.375,-0.640625
678,-0.30493164,-0.81866455,0.47210693,-2.265625,-0.09375,-0.875
679,-0.31274414,-0.8220825,0.47406006,-1.3125,-0.0625,-0.40625
680,-0.3125,-0.82037354,0.48382568,-1.28125,-0.3125,0.140625
681,-0.32470703,-0.81866455,0.49505615,2.5,-0.890625,1.859375
682,-0.3166504,-0.833313,0.47601318,4.890625,-1.21875,3.375
683,-0.296875,-0.83477783,0.46063232,8.625,-1.546875,3.4375
684,-0.29467773,-0.86309814,0.4550171,10.109375,0.59375,3.0625
685,-0.29663086,-0.864563,0.4413452,5.9375,0.15625,3.421875
686,-0.27978516,-0.82525635,0.4262085,1.921875,-0.921875,1.171875
687,-0.28076172,-0.84698486,0.40740967,-1.40625,-0.734375,-0.328125
688,-0.27490234,-0.84991455,0.42596436,-2.953125,0.0625,0.0625
689,-0.27490234,-0.83135986,0.42596436,-5.546875,-0.375,-1.4375
690,-0.29101562,-0.8308716,0.45599365,-2.59375,-0.484375,-1.265625
691,-0.30859375,-0.8579712,0.4569702,-1.421875,0.03125,0.203125
692,-0.2956543,-0.850647,0.4533081,-1.328125,-0.796875,0.109375
693,-0.28125,-0.8374634,0.44696045,0.5,-0.5,0.171875
694,-0.2902832,-0.84088135,0.44085693,1.0625,-0.265625,0.75
695,-0.29223633,-0.8633423,0.4413452,0.78125,-0.234375,0.671875
696,-0.2878418,-0.84552,0.44744873,-0.109375,-0.4375,-0.09375
697,-0.2878418,-0.84869385,0.44403076,-0.734375,-0.9375,-0.484375
698,-0.28344727,-0.8460083,0.44476318,-1.015625,-0.421875,-0.46875
699,-0.2878418,-0.8418579,0.45819092,-1.640625,-0.09375,-0.578125
700,-0.2939453,-0.84210205,0.4537964,-2.0,-0.46875,-0.78125
701,-0.29101562,-0.8320923,0.44281006,-1.703125,-0.734375,-0.640625
702,-0.2841797,-0.8406372,0.44158936,-1.1875,-0.5,0.328125
703,-0.29052734,-0.8496704,0.449646,0.640625,-0.09375,1.171875
704,-0.29125977,-0.8670044,0.45111084,-1.15625,0.265625,-0.03125
705,-0.29003906,-0.8440552,0.44451904,-1.21875,0.125,-0.546875
706,-0.28051758,-0.8262329,0.44647217,-1.328125,-0.109375,-0.46875
707,-0.2944336,-0.84259033,0.45355225,-1.046875,-0.171875,0.109375
708,-0.28759766,-0.84210205,0.4574585,-0.71875,-0.15625,-0.140625
709,-0.28564453,-0.84381104,0.463562,-1.171875,-0.109375,-0.046875
710,-0.28466797,-0.8328247,0.45257568,-1.1875,-0.71875,-0.296875
711,-0.28320312,-0.83966064,0.45526123,-1.0,-0.625,-0.1875
712,-0.29296875,-0.84161377,0.4574585,-1.28125,-0.046875,0.25
713,-0.28955078,-0.8267212,0.45721436,-2.0,-0.640625,-0.421875
714,-0.28930664,-0.83917236,0.46185303,-0.21875,-0.890625,-0.28125
715,-0.2861328,-0.8508911,0.45965576,-0.875,-0.734375,-0.484375
716,-0.28027344,-0.83184814,0.45770264,-0.625,-0.40625,-0.484375
717,-0.2919922,-0.83795166,0.46136475,-0.21875,-0.515625,-0.625
718,-0.29174805,-0.8377075,0.45770264,-1.140625,-0.796875,-0.859375
719,-0.2861328,-0.8374634,0.4586792,-1.09375,-1.0,-1.125
720,-0.29760742,-0.8430786,0.4623413,-0.578125,-0.859375,-0.34375
721,-0.29833984,-0.83135986,0.45477295,-0.71875,-0.75,-0.234375
722,-0.2866211,-0.83721924,0.45404053,-0.546875,-0.4375,-0.53125
723,-0.28857422,-0.8335571,0.46502686,-2.078125,-0.484375,-0.0625
724,-0.2841797,-0.829895,0.45404053,-1.875,-0.421875,-0.75
725,-0.29663086,-0.8335571,0.46624756,-1.59375,-0.1875,0.21875
726,-0.29907227,-0.8428345,0.46990967,0.171875,-0.875,0.234375
727,-0.29052734,-0.8399048,0.46917725,-0.546875,-0.796875,-0.65625
728,-0.29052734,-0.84039307,0.46380615,-1.15625,-0.140625,-0.859375
729,-0.30200195,-0.831604,0.463562,-0.625,-0.546875,-0.46875
730,-0.30200195,-0.83551025,0.46014404,-0.234375,-0.78125,-0.328125
731,-0.2998047,-0.8394165,0.46502686,-0.75,-0.78125,-0.296875
732,-0.29370117,-0.82818604,0.47113037,0.0,-0.609375,-0.21875
733,-0.2980957,-0.83306885,0.46575928,0.40625,-0.4375,-0.28125
734,-0.29296875,-0.83184814,0.45916748,-1.359375,-0.15625,-0.578125
735,-0.29638672,-0.81744385,0.46600342,-1.71875,-0.3125,-0.59375
736,-0.30004883,-0.8320923,0.47235107,-0.125,-0.875,0.0625
737,-0.29174805,-0.84576416,0.46575928,-0.359375,-0.71875,0.015625
738,-0.2956543,-0.84088135,0.46575928,-0.953125,-0.296875,-0.515625
739,-0.30151367,-0.8291626,0.46136475,-0.3125,-0.34375,-0.484375
740,-0.29614258,-0.83428955,0.4623413,-0.875,-0.53125,-0.5
741,-0.30126953,-0.82769775,0.463562,-1.25,-0.6875,-0.765625
742,-0.29638672,-0.831604,0.46917725,-0.1875,-0.3125,-0.515625
743,-0.30517578,-0.81915283,0.46990967,-0.1875,-0.484375,-0.234375
744,-0.29125977,-0.8374634,0.4647827,-0.796875,-0.734375,-0.96875
745,-0.3046875,-0.81573486,0.46429443,-2.1875,0.046875,-0.65625
746,-0.30737305,-0.8147583,0.4730835,-0.390625,-0.453125,0.65625
747,-0.3071289,-0.8357544,0.47625732,-0.53125,-0.90625,0.234375
748,-0.3022461,-0.8423462,0.47479248,-1.28125,-0.234375,-0.375
749,-0.30932617,-0.8328247,0.47088623,-0.375,-0.15625,-0.390625
750,-0.30322266,-0.82476807,0.4664917,-0.453125,-0.25,-0.125
751,-0.3059082,-0.8284302,0.463562,-1.8125,-0.1875,-0.71875
752,-0.30737305,-0.82281494,0.4784546,-1.78125,-0.375,-0.8125
753,-0.3046875,-0.82110596,0.4804077,-1.078125,-0.15625,-0.203125
754,-0.30517578,-0.82281494,0.4779663,-1.046875,-0.046875,-0.21875
755,-0.3149414,-0.8267212,0.48529053,2.359375,0.0,1.140625
756,-0.31347656,-0.83599854,0.48187256,4.421875,-1.03125,2.71875
757,-0.30786133,-0.84503174,0.47601318,6.59375,-1.140625,3.046875
758,-0.2915039,-0.8555298,0.4550171,7.453125,-0.34375,3.0625
759,-0.28442383,-0.8423462,0.43377686,3.640625,-0.5625,1.40625
