sample_no,accel_x,accel_y,accel_z,gyro_x,gyro_y,gyro_z
0,0.82836914,0.036315918,0.59246826,-0.640625,0.4375,-0.046875
1,0.83032227,0.035827637,0.6034546,-0.125,0.359375,-0.234375
2,0.82543945,0.047790527,0.60614014,-0.96875,0.109375,-0.421875
3,0.82250977,0.038757324,0.5778198,-1.25,-0.28125,-0.203125
4,0.82470703,0.035827637,0.58587646,-0.671875,-1.078125,-0.234375
5,0.8178711,0.031677246,0.5751343,-1.1875,-0.34375,0.109375
6,0.83496094,0.02142334,0.5980835,0.0,-0.390625,-0.4375
7,0.84155273,0.022644043,0.586853,-1.421875,0.421875,-0.125
8,0.8400879,0.044128418,0.58270264,-0.515625,0.703125,-0.28125
9,0.82958984,0.03753662,0.5866089,-0.6875,0.375,-0.234375
10,0.82910156,0.02923584,0.59002686,-0.796875,-0.34375,-0.265625
11,0.82470703,0.03778076,0.5853882,-0.875,-0.28125,-0.296875
12,0.8269043,0.038757324,0.5836792,-0.65625,0.28125,-0.25
13,0.8322754,0.034606934,0.58026123,-0.84375,0.296875,-0.109375
14,0.83325195,0.02557373,0.58514404,-0.59375,0.203125,-0.171875
15,0.8364258,0.031921387,0.58465576,-0.640625,0.015625,-0.359375
16,0.8430176,0.027526855,0.5685425,-0.171875,2.53125,0.015625
17,0.84643555,0.034606934,0.5582886,-0.203125,1.9375,-0.25
18,0.84350586,0.019226074,0.5675659,1.484375,2.796875,-0.703125
19,0.84716797,0.022644043,0.559021,-0.515625,0.59375,-0.234375
20,0.84375,0.020446777,0.5504761,-0.890625,0.390625,-0.078125
21,0.8469238,0.02166748,0.5692749,-0.046875,0.078125,-0.0625
22,0.8474121,0.019714355,0.5697632,-1.4375,-2.234375,0.078125
23,0.8029785,0.035827637,0.6420288,5.140625,0.828125,0.109375
24,0.8041992,0.038024902,0.63031006,-0.734375,-0.421875,0.140625
25,0.8039551,0.06585693,0.61712646,-1.828125,0.9375,-0.078125
26,0.80249023,0.07757568,0.6317749,-0.203125,0.734375,-0.328125
27,0.8015137,0.070007324,0.6298218,-1.0,-0.390625,-0.453125
28,0.78930664,0.053894043,0.61517334,-1.46875,-1.46875,-1.046875
29,0.8178711,0.04534912,0.633728,0.046875,-0.875,-0.75
30,0.8100586,0.04046631,0.6239624,-0.15625,1.40625,0.03125
31,0.8088379,0.054138184,0.63616943,0.875,1.265625,-0.03125
32,0.7944336,0.05609131,0.6063843,-2.265625,0.015625,-0.078125
33,0.81152344,0.055847168,0.6351929,0.328125,0.703125,-0.421875
34,0.8059082,0.051452637,0.64276123,0.96875,1.359375,-0.53125
35,0.80322266,0.053649902,0.6112671,-1.875,0.15625,-0.328125
36,0.8129883,0.061706543,0.62054443,-1.25,-0.078125,-0.328125
37,0.8100586,0.051696777,0.6300659,-0.5625,0.875,-0.25
38,0.8034668,0.054626465,0.6195679,0.453125,0.34375,-0.1875
39,0.8088379,0.06072998,0.6161499,-1.25,-0.171875,-0.03125
40,0.8039551,0.049987793,0.62835693,0.796875,0.84375,-0.25
41,0.8078613,0.047546387,0.6273804,1.109375,1.578125,-0.359375
42,0.8076172,0.05291748,0.62323,0.28125,1.03125,-0.359375
43,0.8066406,0.04827881,0.62054443,-0.109375,0.375,-0.203125
44,0.8137207,0.05218506,0.6351929,-0.234375,0.34375,-0.453125
45,0.81225586,0.04486084,0.6166382,-0.375,0.984375,-0.3125
46,0.81396484,0.05291748,0.6220093,0.015625,0.890625,-0.15625
47,0.80566406,0.041931152,0.6124878,-0.140625,0.421875,-0.03125
48,0.81518555,0.051696777,0.6298218,0.28125,0.71875,-0.5
49,0.81347656,0.043151855,0.5975952,0.453125,1.515625,-0.140625
50,0.8063965,0.050720215,0.60150146,-0.75,2.078125,-0.328125
51,0.8244629,0.030456543,0.6364136,3.671875,2.15625,-0.828125
52,0.82299805,0.027770996,0.62176514,-0.109375,0.265625,-0.1875
53,0.8144531,0.05316162,0.60687256,-1.703125,0.375,-0.1875
54,0.8125,0.04852295,0.62249756,-0.375,0.375,-0.25
55,0.8100586,0.04046631,0.6281128,0.625,1.0625,-0.453125
56,0.81469727,0.042419434,0.5961304,-0.515625,-0.40625,-0.15625
57,0.8129883,0.049743652,0.60198975,-0.84375,0.125,-0.171875
58,0.81518555,0.036315918,0.6276245,1.5625,1.53125,-0.34375
59,0.80444336,0.036315918,0.6117554,-0.671875,0.09375,-0.140625
60,0.8173828,0.0446167,0.6088257,-0.5625,-0.046875,-0.296875
61,0.81347656,0.03729248,0.607605,-0.796875,0.53125,-0.296875
62,0.81396484,0.038269043,0.60931396,-0.484375,0.53125,-0.40625
63,0.81811523,0.04071045,0.60491943,-0.359375,0.875,-0.25
64,0.8125,0.038269043,0.60369873,-0.34375,0.890625,-0.328125
65,0.8195801,0.038024902,0.60858154,0.546875,1.09375,-0.296875
66,0.8234863,0.038024902,0.60736084,0.046875,1.015625,-0.515625
67,0.82128906,0.031433105,0.6054077,0.703125,0.890625,-0.296875
68,0.81811523,0.039245605,0.58636475,-2.453125,-0.03125,-0.09375
69,0.8227539,0.03778076,0.6264038,1.6875,3.125,-0.53125
70,0.81591797,0.016296387,0.61151123,1.65625,1.765625,-0.78125
71,0.8171387,0.038513184,0.59246826,-1.671875,-0.53125,-0.15625
72,0.8186035,0.039978027,0.60272217,-1.046875,0.125,-0.15625
73,0.8178711,0.03729248,0.6090698,-0.25,0.75,-0.3125
74,0.82128906,0.035095215,0.59954834,-0.453125,-0.078125,-0.3125
75,0.81347656,0.043151855,0.59051514,-1.21875,0.0625,0.015625
76,0.82788086,0.032409668,0.6119995,0.109375,0.453125,-0.328125
77,0.8203125,0.029968262,0.6022339,-0.046875,0.9375,-0.171875
78,0.81640625,0.04510498,0.5975952,-0.421875,0.515625,-0.234375
79,0.81933594,0.026550293,0.59783936,-0.71875,0.640625,-0.15625
80,0.8210449,0.036315918,0.605896,-0.4375,0.546875,-0.21875
81,0.8251953,0.03387451,0.59832764,-0.15625,0.875,-0.34375
82,0.82055664,0.030700684,0.5907593,-1.078125,0.203125,-0.078125
83,0.8234863,0.026794434,0.59661865,-0.484375,0.3125,-0.390625
84,0.8256836,0.02923584,0.59954834,-0.671875,0.578125,-0.15625
85,0.8256836,0.03338623,0.61151123,0.046875,0.25,-0.421875
86,0.82128906,0.026794434,0.58343506,-1.453125,-0.265625,-0.015625
87,0.81811523,0.03753662,0.59051514,-1.15625,0.953125,-0.390625
88,0.82836914,0.018005371,0.6107788,3.171875,3.640625,-1.015625
89,0.82299805,0.024353027,0.59954834,-0.15625,1.171875,-0.203125
90,0.8293457,0.03289795,0.58587646,-1.15625,0.0,-0.1875
91,0.8222656,0.03265381,0.5973511,-0.875,0.578125,-0.234375
92,0.828125,0.02923584,0.6005249,-0.1875,0.625,-0.484375
93,0.82666016,0.032409668,0.58270264,-1.0625,-0.84375,-0.1875
94,0.8222656,0.026794434,0.58148193,-1.078125,-0.109375,-0.0625
95,0.82006836,0.024108887,0.60687256,0.421875,0.71875,-0.25
96,0.8215332,0.02532959,0.58709717,-0.421875,0.84375,-0.03125
97,0.8300781,0.035583496,0.5897827,-0.71875,0.21875,-0.09375
98,0.8239746,0.027526855,0.5895386,-0.65625,0.65625,-0.234375
99,0.8322754,0.030212402,0.5927124,-0.625,0.421875,-0.359375
100,0.82788086,0.03314209,0.5907593,-0.703125,0.5,-0.3125
101,0.8310547,0.028503418,0.58758545,-0.890625,0.046875,-0.203125
102,0.8305664,0.030456543,0.59198,-0.484375,-0.21875,-0.09375
103,0.8322754,0.031188965,0.5956421,-0.46875,0.375,-0.25
104,0.82788086,0.029968262,0.586853,-0.59375,0.171875,-0.25
105,0.8371582,0.036315918,0.59295654,-0.296875,0.125,-0.5
106,0.82470703,0.019226074,0.602478,0.046875,0.8125,-0.1875
107,0.8220215,0.038269043,0.5914917,-1.53125,-0.203125,-0.109375
108,0.82910156,0.02947998,0.5848999,-0.84375,-0.40625,-0.15625
109,0.828125,0.031188965,0.5734253,-1.9375,0.453125,-0.28125
110,0.8286133,0.020690918,0.6124878,1.90625,3.171875,-0.75
111,0.82470703,0.010681152,0.59832764,0.0625,1.28125,-0.390625
112,0.8339844,0.03314209,0.58392334,-1.671875,-0.828125,-0.03125
113,0.8310547,0.036071777,0.5836792,-1.71875,-0.265625,-0.0625
114,0.81811523,0.038513184,0.588562,-0.484375,0.390625,-0.5
115,0.8293457,0.032409668,0.58392334,0.1875,-0.03125,-0.421875
116,0.82714844,0.03656006,0.5751343,-0.921875,0.390625,0.140625
117,0.8359375,0.021911621,0.5922241,0.0,0.921875,-0.28125
118,0.8359375,0.02166748,0.60150146,-0.109375,0.421875,-0.296875
119,0.8276367,0.022644043,0.59124756,-0.15625,0.0625,-0.078125
120,0.8186035,0.016784668,0.57684326,-1.546875,-0.0625,0.09375
121,0.8256836,0.026306152,0.5824585,-0.421875,-0.390625,-0.625
122,0.8232422,0.023132324,0.5824585,-1.109375,0.703125,-0.453125
123,0.83618164,0.02557373,0.5927124,-0.34375,1.484375,-0.375
124,0.8339844,0.027526855,0.574646,-1.140625,0.5,-0.1875
125,0.8144531,0.03314209,0.55877686,-4.390625,-1.109375,-0.578125
126,0.8051758,0.05731201,0.54852295,-0.859375,0.625,0.796875
127,0.8063965,0.027770996,0.6005249,2.015625,0.6875,0.125
128,0.8232422,0.018737793,0.6112671,-1.015625,-0.671875,-0.90625
129,0.8339844,0.034851074,0.6029663,-1.46875,0.953125,-0.46875
130,0.81884766,0.03265381,0.5853882,-0.96875,0.53125,-0.015625
131,0.8149414,0.024353027,0.6137085,-0.71875,-0.734375,-0.3125
132,0.8112793,0.02947998,0.59588623,-1.0625,0.28125,-0.125
133,0.81884766,0.030700684,0.5961304,-0.171875,0.90625,-0.203125
134,0.8256836,0.030944824,0.60858154,-0.390625,0.53125,-0.25
135,0.82470703,0.030700684,0.60565186,-1.046875,0.359375,-0.34375
136,0.82128906,0.034606934,0.60198975,-1.1875,0.34375,-0.09375
137,0.8239746,0.028747559,0.59490967,-0.578125,0.703125,-0.203125
138,0.82128906,0.031677246,0.59954834,-0.328125,0.421875,-0.328125
139,0.8288574,0.02508545,0.5980835,-0.59375,0.671875,-0.109375
140,0.8208008,0.022399902,0.59710693,-0.375,1.03125,-0.15625
141,0.8508301,0.039001465,0.5614624,2.625,4.5625,-0.953125
142,0.8469238,0.048034668,0.56463623,4.078125,2.640625,-1.484375
143,0.8623047,0.005065918,0.56585693,0.453125,1.34375,0.25
144,0.8149414,0.02947998,0.61395264,-2.65625,-1.734375,-0.21875
145,0.8190918,0.026550293,0.6102905,-2.859375,-2.203125,-0.359375
146,0.81152344,0.02923584,0.60565186,-1.984375,-0.5,0.0625
147,0.810791,0.029968262,0.586853,-3.359375,-0.765625,-0.078125
148,0.8220215,0.023620605,0.6203003,0.28125,1.671875,-0.390625
149,0.8173828,0.016540527,0.61273193,-0.328125,0.921875,-0.265625
150,0.82592773,0.032409668,0.59588623,-2.140625,-0.40625,-0.03125
151,0.8244629,0.034606934,0.6046753,-1.5625,-0.390625,-0.234375
152,0.8166504,0.03338623,0.61273193,-1.3125,-0.09375,-0.453125
153,0.8210449,0.032409668,0.60321045,-1.1875,-0.734375,-0.265625
154,0.81640625,0.042175293,0.6022339,-1.9375,-0.40625,-0.1875
155,0.814209,0.0289917,0.62298584,-0.203125,-0.1875,-0.453125
156,0.8120117,0.026550293,0.6195679,-0.546875,-0.1875,-0.234375
157,0.8093262,0.031433105,0.61273193,-0.78125,-0.125,-0.203125
158,0.81274414,0.035827637,0.61102295,-0.84375,-0.265625,-0.203125
159,0.81103516,0.030212402,0.6251831,-0.765625,0.078125,-0.21875
160,0.8083496,0.034851074,0.61517334,-1.078125,0.1875,-0.34375
161,0.80126953,0.035095215,0.6154175,-1.1875,0.3125,-0.421875
162,0.80371094,0.027526855,0.6132202,-0.703125,0.125,-0.171875
163,0.8137207,0.026550293,0.6144409,-0.953125,0.46875,-0.234375
164,0.81811523,0.027526855,0.6281128,-0.03125,0.484375,-0.21875
165,0.8063965,0.027038574,0.5914917,-2.125,-0.171875,0.03125
166,0.8244629,0.024353027,0.586853,-0.21875,1.65625,-0.09375
167,0.82910156,0.026306152,0.57611084,0.046875,1.453125,0.171875
168,0.842041,0.024841309,0.5946655,0.515625,1.828125,-0.265625
169,0.8300781,0.022888184,0.60076904,0.984375,1.859375,-0.09375
170,0.82373047,0.032409668,0.56707764,-2.078125,-0.359375,-0.1875
171,0.8305664,0.028259277,0.5914917,-0.5625,1.515625,-0.59375
172,0.84033203,0.016784668,0.59417725,1.125,1.84375,-0.53125
173,0.83569336,0.035095215,0.57562256,-0.875,0.390625,-0.171875
174,0.83691406,0.02947998,0.5739136,-0.828125,0.046875,-0.28125
175,0.828125,0.023620605,0.58343506,-0.578125,0.28125,-0.234375
176,0.83740234,0.018981934,0.5836792,0.078125,0.453125,-0.328125
177,0.83154297,0.026306152,0.5741577,-0.90625,-0.09375,-0.140625
178,0.83081055,0.026794434,0.5805054,-0.109375,0.859375,-0.1875
179,0.83154297,0.009460449,0.5873413,0.0,0.546875,-0.0625
180,0.7897949,0.05291748,0.66082764,3.796875,2.703125,-0.546875
181,0.78637695,0.036315918,0.65423584,2.34375,1.359375,-0.0625
182,0.7973633,0.05609131,0.62908936,-1.71875,1.375,-0.28125
183,0.8071289,0.0770874,0.6403198,1.15625,3.671875,-0.578125
184,0.7897949,0.046325684,0.635437,3.21875,2.3125,-0.25
185,0.80200195,0.05706787,0.62542725,-0.21875,0.453125,-0.015625
186,0.8093262,0.038269043,0.6469116,2.234375,0.78125,-0.53125
187,0.80126953,0.038513184,0.62908936,-1.359375,0.96875,0.109375
188,0.80615234,0.055358887,0.62957764,-0.625,1.125,-0.25
189,0.8144531,0.045837402,0.633728,0.671875,1.25,-0.328125
190,0.80371094,0.04095459,0.6469116,0.9375,1.125,-0.328125
191,0.8017578,0.046081543,0.6166382,-1.140625,-0.40625,-0.28125
192,0.7949219,0.0446167,0.62713623,-0.84375,-0.609375,-0.0625
193,0.80493164,0.04534912,0.64349365,0.4375,0.65625,-0.296875
194,0.79541016,0.05218506,0.6322632,-0.734375,0.671875,-0.140625
195,0.7976074,0.04925537,0.63739014,-0.109375,-0.140625,-0.28125
196,0.8005371,0.039733887,0.6325073,-0.640625,0.3125,-0.359375
197,0.80029297,0.03338623,0.6376343,-0.359375,0.984375,-0.34375
198,0.8076172,0.039978027,0.6317749,-0.421875,0.5625,-0.359375
199,0.80029297,0.03753662,0.6300659,-0.578125,0.6875,-0.125
200,0.8046875,0.04095459,0.63031006,-0.125,0.984375,-0.171875
201,0.80566406,0.050476074,0.63153076,-0.4375,0.9375,-0.390625
202,0.8022461,0.05218506,0.6256714,-0.515625,0.296875,-0.3125
203,0.80322266,0.03753662,0.61932373,-0.3125,1.234375,-0.109375
204,0.8000488,0.035583496,0.6129761,-2.15625,0.671875,-0.09375
205,0.8149414,0.038024902,0.64276123,1.078125,1.515625,-0.796875
206,0.8132324,0.039978027,0.62542725,0.328125,0.671875,-0.546875
207,0.81030273,0.045837402,0.6168823,-0.71875,0.09375,-0.046875
208,0.8093262,0.04559326,0.62054443,-0.21875,1.03125,-0.109375
209,0.80371094,0.042175293,0.6329956,0.484375,1.109375,-0.5
210,0.8105469,0.03314209,0.6207886,0.4375,0.671875,-0.359375
211,0.8063965,0.039978027,0.6149292,-0.59375,0.671875,0.015625
212,0.8100586,0.030700684,0.6293335,1.0,1.0625,-0.046875
213,0.8022461,0.023864746,0.6227417,-0.4375,0.71875,-0.390625
214,0.80615234,0.032409668,0.6166382,-0.125,0.703125,-0.34375
215,0.8054199,0.036315918,0.60980225,-0.328125,1.09375,-0.25
216,0.81225586,0.035583496,0.6207886,0.46875,1.640625,-0.40625
217,0.80737305,0.039245605,0.6137085,-0.078125,1.078125,-0.25
218,0.8195801,0.039489746,0.6222534,0.328125,1.109375,-0.234375
219,0.8178711,0.02557373,0.60687256,0.015625,0.921875,-0.09375
220,0.8120117,0.03338623,0.61468506,-0.25,0.984375,-0.125
221,0.8161621,0.035827637,0.6137085,0.015625,1.09375,-0.421875
222,0.81884766,0.0289917,0.6124878,-0.34375,0.5625,-0.40625
223,0.8183594,0.03338623,0.6220093,0.828125,1.171875,-0.328125
224,0.8083496,0.039489746,0.6029663,-1.46875,-0.1875,-0.140625
225,0.8222656,0.028747559,0.6185913,1.578125,1.5625,-0.625
226,0.81933594,0.01727295,0.61517334,2.265625,2.328125,-0.875
227,0.8251953,0.031188965,0.6005249,-1.421875,0.59375,-0.296875
228,0.8183594,0.035339355,0.6029663,-0.828125,0.59375,-0.171875
229,0.81640625,0.023132324,0.6117554,0.046875,0.9375,-0.4375
230,0.82250977,0.028259277,0.6054077,-0.03125,0.59375,-0.25
231,0.8215332,0.03753662,0.59173584,-0.984375,0.515625,-0.125
232,0.80615234,0.034362793,0.6298218,-2.59375,-1.796875,-0.234375
233,0.8015137,0.044128418,0.6203003,-2.15625,-0.546875,-0.265625
234,0.8059082,0.05340576,0.6256714,0.578125,0.734375,-0.234375
235,0.8059082,0.04486084,0.6154175,-0.21875,1.25,-0.171875
236,0.8125,0.039245605,0.6420288,2.078125,2.1875,-0.34375
237,0.80981445,0.027282715,0.6403198,0.40625,1.0,-0.1875
238,0.8137207,0.046569824,0.61102295,-2.0625,0.3125,-0.15625
239,0.80493164,0.057800293,0.6244507,-0.921875,0.09375,-0.40625
240,0.7980957,0.042663574,0.6293335,-0.6875,0.1875,-0.390625
241,0.80444336,0.03729248,0.63079834,-0.015625,0.0,-0.21875
242,0.80249023,0.04095459,0.6141968,-1.4375,-0.421875,-0.1875
243,0.80566406,0.039489746,0.63616943,-0.265625,0.109375,-0.125
244,0.8083496,0.028503418,0.63934326,2.421875,3.109375,-0.265625
245,0.81591797,0.03289795,0.62615967,0.796875,0.671875,-0.25
246,0.8161621,0.04827881,0.61639404,-1.578125,-0.09375,-0.203125
247,0.8041992,0.04071045,0.62127686,-1.265625,0.46875,-0.34375
248,0.8051758,0.043395996,0.6195679,-0.84375,-0.5,-0.65625
249,0.8112793,0.035339355,0.6107788,-0.265625,0.03125,-0.34375
250,0.8120117,0.030700684,0.61151123,-0.5625,1.015625,0.078125
251,0.81030273,0.029968262,0.62298584,1.03125,1.75,-0.15625
252,0.8161621,0.023376465,0.6246948,0.578125,1.671875,-0.140625
253,0.8041992,0.035827637,0.61151123,-0.40625,0.359375,-0.015625
254,0.8149414,0.03265381,0.60931396,-1.453125,-0.015625,-0.296875
255,0.8112793,0.034362793,0.60980225,-0.828125,0.765625,-0.5
256,0.82006836,0.034606934,0.6088257,-0.171875,0.71875,-0.578125
257,0.82421875,0.03363037,0.61151123,0.046875,0.875,-0.328125
258,0.81396484,0.035827637,0.6010132,-0.84375,-0.015625,-0.078125
259,0.8244629,0.034118652,0.59954834,-0.859375,-0.046875,-0.265625
260,0.8105469,0.029968262,0.6132202,-0.421875,1.5,-0.28125
261,0.81469727,0.031188965,0.61639404,-0.125,0.421875,-0.453125
262,0.80566406,0.034606934,0.59002686,-1.046875,0.03125,-0.140625
263,0.8093262,0.028259277,0.5914917,-1.296875,2.09375,-0.28125
264,0.8208008,0.028259277,0.6259155,4.171875,5.375,-0.9375
265,0.82373047,0.018493652,0.61883545,1.234375,1.265625,-0.5
266,0.82910156,0.031921387,0.5975952,-1.734375,-0.96875,-0.03125
267,0.82373047,0.030700684,0.59954834,-1.09375,0.421875,-0.3125
268,0.8088379,0.022888184,0.61273193,0.015625,0.375,-0.53125
269,0.8234863,0.028015137,0.59710693,-0.640625,0.09375,-0.21875
270,0.81933594,0.028747559,0.5848999,-1.0,0.203125,-0.140625
271,0.8215332,0.022644043,0.60736084,0.203125,1.203125,-0.34375
272,0.82666016,0.01776123,0.607605,0.40625,1.234375,-0.21875
273,0.82836914,0.0368042,0.6017456,0.171875,1.171875,-0.21875
274,0.82128906,0.02508545,0.5939331,-0.40625,0.234375,-0.125
275,0.8261719,0.026794434,0.59783936,-0.71875,0.0,-0.25
276,0.8227539,0.016784668,0.59832764,-0.59375,0.78125,-0.59375
277,0.8232422,0.019714355,0.5944214,-0.25,1.15625,0.0625
278,0.8234863,0.026306152,0.59832764,-0.5625,0.15625,-0.21875
279,0.82299805,0.020202637,0.59661865,-1.234375,0.078125,-0.21875
280,0.81933594,0.01727295,0.60443115,-0.546875,-0.265625,-0.25
281,0.8334961,0.022155762,0.6088257,0.015625,0.78125,-0.09375
282,0.8149414,0.032409668,0.5778198,-2.234375,-0.1875,-0.03125
283,0.82470703,0.026794434,0.6102905,0.03125,2.46875,-0.421875
284,0.83154297,0.00970459,0.60369873,1.6875,2.625,-0.625
285,0.8305664,0.031188965,0.5939331,-0.671875,0.40625,-0.28125
286,0.82543945,0.030212402,0.5910034,-1.0625,0.15625,-0.078125
287,0.82055664,0.02508545,0.59954834,-0.8125,0.28125,-0.296875
288,0.82543945,0.022888184,0.59198,-0.15625,0.171875,-0.390625
289,0.82958984,0.02923584,0.58343506,-1.125,0.03125,-0.0625
290,0.8256836,0.019714355,0.5934448,-0.84375,0.484375,-0.125
291,0.82910156,0.023864746,0.6029663,-0.359375,0.34375,-0.109375
292,0.82714844,0.028747559,0.58880615,-0.8125,-0.015625,-0.359375
293,0.8244629,0.029968262,0.5907593,-0.703125,0.21875,-0.25
294,0.828125,0.028503418,0.5897827,-1.21875,-0.203125,-0.21875
295,0.8239746,0.029724121,0.59002686,-0.765625,-0.21875,-0.453125
296,0.82836914,0.022399902,0.5897827,-0.703125,0.140625,-0.234375
297,0.8288574,0.0211792,0.59295654,-0.40625,0.09375,-0.09375
298,0.8251953,0.022888184,0.59198,-0.6875,0.109375,-0.171875
299,0.82543945,0.021911621,0.5980835,-0.734375,0.25,-0.25
300,0.8334961,0.020446777,0.5951538,-0.890625,-0.0625,-0.234375
301,0.8261719,0.017028809,0.604187,-0.484375,-0.015625,-0.234375
302,0.82470703,0.023620605,0.57855225,-2.125,-0.84375,0.03125
303,0.82958984,0.023376465,0.59906006,-0.6875,1.265625,-0.5
304,0.8276367,0.01751709,0.6100464,1.90625,2.484375,-0.375
305,0.826416,0.028259277,0.5897827,-0.09375,0.515625,-0.21875
306,0.82836914,0.031921387,0.59002686,-0.828125,0.59375,-0.0625
307,0.8261719,0.02508545,0.59368896,-0.640625,0.296875,-0.140625
308,0.8312988,0.01727295,0.59198,-0.0625,0.328125,-0.46875
309,0.8232422,0.032165527,0.5897827,-0.765625,-0.53125,-0.21875
310,0.8222656,0.026306152,0.5856323,-0.9375,0.265625,-0.09375
311,0.81518555,0.011169434,0.60198975,0.234375,0.109375,-0.28125
312,0.82470703,0.019714355,0.5914917,-0.65625,0.0,-0.234375
313,0.826416,0.02508545,0.5946655,-0.21875,0.125,-0.125
314,0.81762695,0.024841309,0.5856323,-0.84375,0.890625,-0.265625
315,0.83154297,0.01776123,0.59002686,-0.484375,0.46875,-0.40625
316,0.8312988,0.02923584,0.58807373,-0.609375,0.625,-0.390625
317,0.8347168,0.020202637,0.59710693,-0.03125,0.484375,-0.359375
318,0.8413086,0.02508545,0.5907593,-0.453125,0.34375,-0.28125
319,0.8276367,0.018249512,0.5856323,-0.4375,0.71875,-0.1875
320,0.83154297,0.014587402,0.5800171,-0.25,0.28125,-0.53125
321,0.83618164,0.020202637,0.5997925,-0.171875,0.140625,-0.390625
322,0.8183594,0.027282715,0.5700073,-2.421875,-0.828125,-0.03125
323,0.8249512,0.026794434,0.5829468,-0.984375,0.734375,-0.59375
324,0.83447266,0.021911621,0.6137085,2.09375,2.609375,-1.34375
325,0.82788086,0.017028809,0.59124756,-0.9375,0.5625,-0.140625
326,0.83569336,0.026550293,0.57928467,-0.75,0.078125,-0.421875
327,0.82836914,0.016784668,0.5856323,-0.03125,0.734375,-0.515625
328,0.8334961,0.0099487305,0.58514404,0.234375,0.90625,-0.40625
329,0.8300781,0.02923584,0.5787964,-0.421875,0.03125,-0.046875
330,0.8239746,0.013122559,0.58221436,-0.796875,-0.1875,-0.09375
331,0.8251953,0.019226074,0.58758545,-0.109375,0.609375,-0.25
332,0.8342285,0.014343262,0.5805054,-0.96875,0.8125,-0.328125
333,0.82714844,0.0099487305,0.57928467,-0.453125,1.25,-0.359375
334,0.81811523,0.054382324,0.59051514,-2.328125,0.0625,-0.234375
335,0.8046875,0.04949951,0.6508179,2.125,1.90625,-0.515625
336,0.798584,0.043151855,0.63494873,0.515625,0.5625,-0.34375
337,0.8071289,0.04119873,0.618103,-0.890625,-0.921875,-0.5
338,0.80688477,0.024597168,0.61712646,-0.171875,-0.09375,-0.484375
339,0.80566406,0.022644043,0.6268921,0.296875,1.671875,0.15625
340,0.8054199,0.042175293,0.6190796,-0.28125,1.125,0.046875
341,0.80371094,0.03778076,0.62835693,0.640625,1.203125,-0.234375
342,0.8105469,0.034118652,0.6195679,-1.140625,-0.28125,-0.28125
343,0.8117676,0.04168701,0.6305542,-0.0625,0.78125,-0.359375
344,0.80566406,0.03729248,0.5985718,-1.921875,0.828125,-0.296875
345,0.81469727,0.03778076,0.62835693,1.15625,2.4375,-0.578125
346,0.82714844,0.023620605,0.6281128,2.34375,2.421875,-0.34375
347,0.8149414,0.03656006,0.61395264,-0.703125,0.3125,-0.09375
348,0.8120117,0.04144287,0.6054077,-0.171875,1.171875,-0.1875
349,0.80810547,0.035583496,0.63275146,1.265625,3.171875,-0.234375
350,0.8220215,0.03289795,0.6071167,0.859375,0.984375,0.046875
351,0.81347656,0.035827637,0.59954834,-0.234375,0.203125,0.109375
352,0.8178711,0.021911621,0.6119995,0.46875,1.125,-0.078125
353,0.81884766,0.019470215,0.6178589,-0.4375,0.875,-0.078125
354,0.8161621,0.030212402,0.60076904,-0.59375,0.25,-0.375
355,0.8178711,0.030456543,0.6168823,-0.234375,0.203125,-0.421875
356,0.8208008,0.030700684,0.61224365,-0.671875,0.5625,-0.53125
357,0.81884766,0.0289917,0.5997925,-0.328125,0.828125,-0.4375
358,0.8210449,0.038269043,0.59906006,0.21875,1.0625,-0.4375
359,0.82006836,0.028503418,0.6063843,0.109375,0.609375,-0.109375
360,0.82299805,0.034851074,0.5939331,0.703125,1.859375,-0.390625
361,0.8300781,0.0138549805,0.6063843,1.671875,3.859375,-0.125
362,0.8239746,-0.0037231445,0.60369873,0.4375,2.15625,0.3125
363,0.81762695,0.028015137,0.58343506,-1.3125,-0.1875,0.046875
364,0.82299805,0.027038574,0.59198,-1.1875,0.109375,-0.3125
365,0.82421875,0.0289917,0.6034546,-1.65625,-0.390625,-0.515625
366,0.8203125,0.024841309,0.61395264,-1.484375,-0.171875,-0.53125
367,0.826416,0.026550293,0.59661865,-1.0,0.109375,-0.390625
368,0.8244629,0.016784668,0.58929443,0.0,0.453125,-0.328125
369,0.8249512,0.016540527,0.60321045,-0.46875,0.46875,-0.21875
370,0.826416,0.029968262,0.6100464,0.234375,0.390625,-0.21875
371,0.8183594,0.027770996,0.57806396,-2.1875,-0.40625,-0.125
372,0.8195801,0.022399902,0.59832764,0.03125,1.734375,-0.578125
373,0.826416,0.010437012,0.6166382,1.921875,2.03125,-0.734375
374,0.82543945,0.019958496,0.5890503,-1.359375,-0.109375,-0.125
375,0.83081055,0.025817871,0.5883179,-1.4375,-0.109375,-0.125
376,0.8178711,0.02532959,0.59832764,-0.609375,0.453125,-0.28125
377,0.8227539,0.012634277,0.60150146,0.1875,0.359375,-0.359375
378,0.8347168,0.0211792,0.6107788,-1.4375,-0.96875,0.3125
379,0.82006836,0.023864746,0.6132202,4.125,4.40625,-0.671875
380,0.82177734,0.01361084,0.6310425,2.59375,1.359375,0.1875
381,0.81689453,0.036315918,0.60565186,-2.265625,-0.234375,0.0625
382,0.82006836,0.046813965,0.59661865,-1.609375,0.234375,-0.546875
383,0.8190918,0.042419434,0.6144409,0.375,1.203125,-0.6875
384,0.81030273,0.022644043,0.6234741,-0.203125,0.59375,-0.34375
385,0.8161621,0.03265381,0.6090698,0.140625,0.78125,-0.390625
386,0.81689453,0.020446777,0.588562,-1.921875,-0.109375,-0.171875
387,0.82836914,0.02142334,0.6168823,1.0625,1.640625,-0.578125
388,0.81347656,0.010437012,0.62713623,2.0625,2.234375,-0.40625
389,0.8129883,0.039245605,0.5988159,-1.40625,-0.015625,-0.15625
390,0.8195801,0.039978027,0.60809326,-1.171875,-0.234375,-0.46875
391,0.81030273,0.02557373,0.61346436,-0.296875,1.046875,-0.484375
392,0.82177734,0.028259277,0.6063843,0.234375,1.125,-0.375
393,0.82128906,0.03729248,0.59539795,-1.09375,0.171875,-0.0625
394,0.81762695,0.027526855,0.6051636,-0.40625,0.359375,-0.03125
395,0.8227539,0.016052246,0.61761475,0.71875,0.9375,-0.140625
396,0.8186035,0.022155762,0.6029663,-0.453125,0.734375,-0.046875
397,0.81591797,0.025817871,0.5993042,-0.78125,0.015625,-0.21875
398,0.8198242,0.027038574,0.6000366,-0.953125,0.265625,-0.390625
399,0.8293457,0.026306152,0.6117554,0.40625,1.578125,-0.703125
400,0.826416,0.026306152,0.6005249,-0.078125,0.859375,-0.375
401,0.82592773,0.028259277,0.59783936,0.40625,-0.09375,-0.375
402,0.81933594,0.013122559,0.5951538,1.875,1.515625,-0.171875
403,0.8239746,0.01751709,0.60491943,0.75,1.328125,-0.203125
404,0.82592773,0.018737793,0.60076904,-0.421875,0.671875,-0.28125
405,0.8137207,0.020935059,0.5765991,-1.734375,-0.359375,-0.3125
406,0.8249512,0.023132324,0.5934448,-1.359375,0.890625,-0.5
407,0.8227539,0.015319824,0.6102905,1.671875,3.046875,-0.578125
408,0.82177734,0.014343262,0.58880615,-0.8125,1.078125,-0.03125
409,0.83203125,0.031433105,0.5897827,-0.875,0.421875,-0.09375
410,0.8317871,0.012634277,0.588562,0.265625,2.328125,-0.328125
411,0.83325195,0.017028809,0.59661865,0.640625,1.21875,-0.515625
412,0.8286133,0.02142334,0.5897827,-1.421875,-1.125,-0.234375
413,0.82421875,0.023620605,0.5878296,-1.5,-0.453125,-0.140625
414,0.8232422,0.015319824,0.5975952,-0.15625,0.5,-0.28125
415,0.8222656,0.012390137,0.59295654,-0.6875,0.484375,-0.171875
416,0.8261719,0.024597168,0.58758545,-0.546875,0.171875,-0.21875
417,0.8273926,0.011169434,0.5927124,-1.375,0.109375,-0.21875
418,0.8317871,0.0119018555,0.5980835,-0.6875,0.484375,-0.203125
419,0.83251953,0.023864746,0.586853,-0.390625,0.40625,-0.296875
420,0.82470703,0.019958496,0.5844116,-0.828125,0.15625,-0.140625
421,0.82177734,0.02508545,0.588562,-0.0625,0.265625,-0.1875
422,0.82836914,0.019226074,0.59490967,-0.015625,1.234375,-0.296875
423,0.8405762,0.013122559,0.60321045,0.0625,0.703125,-0.0625
424,0.8286133,0.010925293,0.5817261,-1.34375,-0.484375,-0.03125
425,0.8173828,0.024108887,0.57073975,-2.609375,0.296875,-0.265625
426,0.829834,0.013366699,0.6054077,1.5,2.96875,-0.671875
427,0.8288574,0.005065918,0.5988159,0.65625,1.546875,-0.375
428,0.82836914,0.024353027,0.5853882,-1.515625,-0.359375,0.0
429,0.8366699,0.02166748,0.58270264,-1.09375,-0.203125,-0.125
430,0.82910156,0.016540527,0.5873413,-0.28125,-0.078125,-0.4375
431,0.8288574,0.024108887,0.57733154,-1.625,-0.9375,-0.015625
432,0.82055664,0.022644043,0.57684326,-1.21875,-0.28125,0.1875
433,0.82788086,0.007507324,0.60491943,0.0,0.359375,-0.296875
434,0.8300781,0.014587402,0.588562,0.125,0.984375,-0.078125
435,0.82910156,0.013366699,0.5844116,0.34375,1.234375,-0.265625
436,0.82714844,0.016540527,0.5800171,-0.453125,0.71875,-0.21875
437,0.83081055,0.01727295,0.5844116,-0.6875,0.265625,-0.25
438,0.83325195,0.011657715,0.57928467,-0.359375,0.375,-0.390625
439,0.8286133,0.015563965,0.57025146,-0.78125,0.484375,-0.4375
440,0.83691406,0.01727295,0.5861206,-0.046875,0.625,-0.171875
441,0.8339844,0.015075684,0.5873413,0.171875,0.78125,-0.140625
442,0.8232422,0.022399902,0.586853,-0.421875,-0.15625,-0.3125
443,0.8215332,0.016540527,0.5829468,-0.375,0.140625,0.078125
444,0.8215332,0.0048217773,0.571228,-1.625,0.171875,-0.03125
445,0.8376465,0.018981934,0.59173584,0.78125,2.546875,-0.640625
446,0.83496094,-0.003479004,0.58514404,1.234375,2.390625,-0.5625
447,0.84155273,0.015808105,0.5790405,-1.28125,-0.34375,-0.171875
448,0.8352051,0.01727295,0.5770874,-0.671875,0.40625,-0.203125
449,0.8352051,0.010681152,0.5790405,-0.203125,0.6875,-0.4375
450,0.8327637,0.012145996,0.57196045,-0.546875,0.03125,-0.34375
451,0.8312988,0.018249512,0.5717163,-1.21875,-0.34375,-0.0625
452,0.83325195,0.011657715,0.5890503,-0.53125,0.03125,-0.125
453,0.8366699,0.0040893555,0.58026123,-0.484375,0.171875,-0.21875
454,0.8305664,0.018005371,0.57366943,-0.734375,0.078125,-0.390625
455,0.83251953,0.011413574,0.57855225,-0.71875,0.1875,-0.390625
456,0.8405762,0.0065307617,0.58148193,-0.796875,-0.203125,-0.5
457,0.8342285,0.01776123,0.58465576,-0.546875,0.28125,-0.265625
458,0.8359375,0.01361084,0.58514404,-0.078125,-0.03125,-0.171875
459,0.8364258,0.017028809,0.57928467,-0.65625,0.3125,-0.125
460,0.83325195,0.0045776367,0.5775757,-0.296875,0.625,-0.25
461,0.8391113,0.016784668,0.58465576,-0.1875,0.421875,-0.265625
462,0.8339844,0.014831543,0.58270264,-0.921875,0.0,-0.265625
463,0.8330078,0.010925293,0.5639038,-1.578125,-0.40625,-0.125
464,0.8310547,0.014831543,0.56951904,-1.359375,0.734375,-0.34375
465,0.84594727,0.015808105,0.5956421,2.890625,3.953125,-1.265625
466,0.83862305,-0.0032348633,0.5790405,-0.234375,1.046875,-0.03125
467,0.8383789,0.016784668,0.56414795,-1.109375,0.125,-0.203125
468,0.83740234,0.015319824,0.5775757,-0.59375,0.640625,-0.171875
469,0.83154297,0.008239746,0.58270264,-0.28125,0.234375,-0.609375
470,0.83691406,0.0060424805,0.5656128,-0.703125,-0.15625,-0.265625
471,0.8317871,0.014587402,0.5634155,-0.921875,0.015625,0.03125
472,0.8432617,0.0099487305,0.5848999,0.0,0.640625,0.0625
473,0.8388672,0.0016479492,0.5778198,-0.34375,0.5625,-0.1875
474,0.8364258,0.015808105,0.5675659,-0.796875,0.328125,-0.375
475,0.83496094,0.0072631836,0.56170654,-0.953125,0.484375,-0.234375
476,0.8327637,0.007019043,0.5739136,-0.234375,1.203125,-0.234375
477,0.84375,0.012145996,0.5758667,0.984375,2.96875,-0.8125
478,0.8474121,0.0014038086,0.5680542,-0.109375,1.796875,-0.1875
479,0.84033203,0.007019043,0.55804443,-0.921875,0.703125,-0.390625
480,0.8417969,0.020690918,0.5673218,-0.1875,1.8125,-0.5625
481,0.8425293,0.008239746,0.56829834,-0.640625,1.328125,-0.125
482,0.8442383,0.0016479492,0.5741577,-0.71875,0.359375,-0.25
483,0.80371094,0.05999756,0.64276123,2.5,2.25,-0.59375
484,0.78930664,0.045837402,0.64959717,4.03125,1.625,-0.375
485,0.7963867,0.047302246,0.6442261,0.890625,0.5625,-0.078125
486,0.78759766,0.034362793,0.6473999,-0.078125,0.65625,0.234375
487,0.7922363,0.049987793,0.6515503,-0.5625,0.5625,-0.171875
488,0.78881836,0.05706787,0.633728,-1.015625,0.265625,-0.328125
489,0.7932129,0.04559326,0.64398193,0.125,-0.484375,-0.390625
490,0.7961426,0.04046631,0.6491089,-0.140625,0.40625,-0.375
491,0.7993164,0.036315918,0.638855,0.265625,1.328125,-0.25
492,0.7976074,0.042663574,0.63446045,-0.203125,1.3125,-0.078125
493,0.8005371,0.04901123,0.62957764,1.09375,1.125,-0.25
494,0.8005371,0.042175293,0.6281128,0.796875,1.171875,-0.359375
495,0.80688477,0.038513184,0.64056396,2.09375,1.59375,-0.296875
496,0.79956055,0.042175293,0.6102905,-1.8125,0.234375,-0.21875
497,0.8093262,0.04119873,0.6449585,1.625,1.765625,-0.625
498,0.81469727,0.02142334,0.64520264,2.140625,2.109375,-0.40625
499,0.8088379,0.04144287,0.6227417,-1.375,0.171875,-0.109375
500,0.7988281,0.046325684,0.6310425,-0.734375,0.375,-0.1875
501,0.79125977,0.030944824,0.6383667,0.015625,0.890625,-0.265625
502,0.80249023,0.038757324,0.6246948,-0.4375,0.21875,-0.5
503,0.8015137,0.03778076,0.6203003,-0.796875,0.515625,-0.25
504,0.8088379,0.024841309,0.62957764,0.359375,0.84375,-0.234375
505,0.80371094,0.029968262,0.63201904,0.171875,0.90625,-0.25
506,0.80126953,0.043395996,0.62420654,-0.5,0.390625,-0.140625
507,0.8093262,0.03338623,0.618103,-0.265625,0.703125,-0.125
508,0.80908203,0.038269043,0.6300659,0.21875,0.953125,-0.359375
509,0.81030273,0.035339355,0.6173706,0.703125,1.484375,-0.296875
510,0.81103516,0.031921387,0.63201904,0.96875,1.65625,-0.265625
511,0.8144531,0.0368042,0.62908936,1.0625,0.671875,-0.34375
512,0.8046875,0.029724121,0.62713623,-0.59375,0.515625,-0.03125
513,0.79956055,0.028259277,0.6071167,-0.59375,0.375,-0.109375
514,0.8046875,0.032409668,0.6034546,-1.546875,1.0625,-0.3125
515,0.8066406,0.030700684,0.63201904,3.1875,3.6875,-0.84375
516,0.8137207,0.007019043,0.6210327,1.796875,2.3125,-0.3125
517,0.81640625,0.032165527,0.6088257,-1.0625,0.40625,-0.09375
518,0.8183594,0.02923584,0.60321045,-1.125,0.53125,-0.28125
519,0.8154297,0.030700684,0.621521,-0.03125,0.625,-0.515625
520,0.8149414,0.027038574,0.6054077,0.4375,0.515625,-0.421875
521,0.81640625,0.028747559,0.6022339,-0.59375,0.578125,-0.078125
522,0.81811523,0.0211792,0.6117554,0.984375,0.96875,-0.28125
523,0.8156738,0.018737793,0.6083374,-0.71875,0.15625,-0.25
524,0.8210449,0.020935059,0.6178589,-0.4375,0.46875,-0.328125
525,0.8198242,0.01751709,0.61395264,-0.375,0.546875,-0.375
526,0.8173828,0.023864746,0.6203003,-0.46875,0.21875,-0.46875
527,0.8093262,0.024108887,0.61273193,-0.953125,0.4375,-0.34375
528,0.8093262,0.01361084,0.59906006,-0.609375,0.515625,-0.171875
529,0.81689453,0.019226074,0.61346436,-0.28125,0.375,-0.375
530,0.8251953,0.019226074,0.6259155,0.671875,1.5,-0.21875
531,0.8071289,0.030456543,0.5956421,-1.671875,0.03125,0.09375
532,0.82299805,0.020202637,0.6095581,-0.0625,2.03125,-0.4375
533,0.8239746,0.008728027,0.6210327,2.234375,2.703125,-0.6875
534,0.8256836,0.020935059,0.6022339,-0.703125,0.21875,-0.140625
535,0.8195801,0.027770996,0.59783936,-1.21875,0.484375,-0.046875
536,0.8166504,0.026306152,0.6034546,-0.375,0.578125,-0.390625
537,0.81762695,0.026062012,0.60687256,0.125,0.890625,-0.15625
538,0.8198242,0.021911621,0.5946655,-0.90625,0.046875,-0.1875
539,0.8171387,0.022399902,0.6137085,-0.578125,0.171875,-0.359375
540,0.81689453,0.008972168,0.6107788,0.59375,1.0,-0.1875
541,0.81762695,0.017028809,0.59783936,-0.390625,0.28125,-0.21875
542,0.82543945,0.025817871,0.59906006,-0.34375,0.25,-0.078125
543,0.8171387,0.017028809,0.6010132,-0.5625,0.0,-0.21875
544,0.8215332,0.020202637,0.6010132,-0.625,0.3125,-0.53125
545,0.82543945,0.023864746,0.60687256,-0.015625,0.6875,-0.296875
546,0.81030273,0.02557373,0.6063843,-0.796875,0.234375,-0.296875
547,0.8129883,0.010192871,0.5934448,-0.859375,-0.265625,-0.28125
548,0.82543945,0.013366699,0.6012573,-0.125,0.265625,-0.296875
549,0.8251953,0.018737793,0.6129761,0.203125,1.015625,-0.203125
550,0.814209,0.022155762,0.58880615,-2.0,-0.375,-0.265625
551,0.8249512,0.022888184,0.604187,-0.21875,2.125,-0.71875
552,0.829834,0.0006713867,0.6132202,2.59375,3.640625,-0.65625
553,0.82421875,0.016296387,0.59246826,-0.8125,0.234375,-0.09375
554,0.8195801,0.026550293,0.5944214,-1.71875,-0.1875,-0.21875
555,0.81762695,0.015563965,0.59588623,-1.078125,0.59375,-0.1875
556,0.8288574,0.014831543,0.5993042,-0.125,0.84375,-0.4375
557,0.8256836,0.022888184,0.6012573,-0.625,0.8125,-0.390625
558,0.83032227,0.015808105,0.59906006,-0.265625,1.203125,-0.28125
559,0.826416,0.005065918,0.5985718,1.359375,1.171875,-0.265625
560,0.82421875,0.0065307617,0.58929443,-0.015625,0.78125,-0.171875
561,0.81933594,0.018005371,0.5783081,-0.84375,0.25,-0.203125
562,0.8269043,0.010437012,0.59124756,-1.0,-0.171875,-0.484375
563,0.8276367,0.009460449,0.5956421,-0.734375,0.421875,-0.625
564,0.8322754,0.01727295,0.58929443,-0.75,0.453125,-0.265625
565,0.82958984,0.015808105,0.59246826,-0.484375,0.421875,-0.265625
566,0.8232422,0.010437012,0.58587646,-0.640625,0.125,-0.078125
567,0.82006836,0.015319824,0.59124756,-0.5,0.671875,-0.234375
568,0.8334961,0.009460449,0.5988159,-0.078125,1.328125,-0.21875
569,0.82421875,0.013366699,0.6010132,-0.515625,0.421875,-0.375
570,0.82177734,0.0138549805,0.58099365,-1.21875,-0.203125,-0.328125
571,0.83032227,0.02166748,0.5790405,-1.328125,1.03125,-0.34375
572,0.84594727,0.020690918,0.60272217,3.1875,5.109375,-1.484375
573,0.8371582,-0.004699707,0.5829468,0.859375,2.140625,-0.375
574,0.83813477,0.016540527,0.5717163,-1.625,-0.609375,-0.078125
575,0.83496094,0.013366699,0.586853,-1.203125,0.21875,-0.203125
576,0.8339844,0.008972168,0.5841675,-0.359375,0.109375,-0.5
577,0.8334961,0.008728027,0.5800171,-0.859375,0.109375,-0.1875
578,0.82543945,0.015319824,0.5726929,-0.96875,0.109375,-0.15625
579,0.82373047,0.011413574,0.59002686,-0.21875,0.71875,-0.171875
580,0.8310547,0.0053100586,0.5844116,-0.609375,0.0,-0.1875
581,0.8327637,0.018737793,0.5819702,-0.703125,0.21875,-0.15625
582,0.83203125,0.008239746,0.5836792,-0.9375,0.140625,-0.15625
583,0.8334961,0.0072631836,0.58880615,-0.75,-0.25,-0.296875
584,0.8276367,0.010681152,0.58148193,-0.84375,0.1875,-0.328125
585,0.8354492,0.006286621,0.5890503,-0.390625,0.09375,-0.375
586,0.8317871,0.008483887,0.5836792,-0.5,-0.203125,-0.25
587,0.8330078,0.0053100586,0.58343506,-0.8125,-0.09375,-0.1875
588,0.8352051,0.0060424805,0.5975952,-1.0625,-1.4375,-0.390625
589,0.8339844,0.00579834,0.5997925,-1.390625,-2.609375,-0.546875
590,0.82006836,0.014343262,0.5626831,-2.265625,-1.46875,-0.125
591,0.8239746,0.015075684,0.56951904,-0.3125,1.796875,-0.390625
592,0.8269043,0.0045776367,0.60687256,1.921875,2.078125,-0.921875
593,0.829834,0.008239746,0.5861206,-1.828125,-0.1875,-0.03125
594,0.8339844,0.02142334,0.5790405,-1.359375,-0.140625,-0.15625
595,0.82592773,0.008483887,0.5856323,-0.53125,0.5,-0.140625
596,0.83081055,0.0038452148,0.59710693,-0.015625,0.578125,-0.3125
597,0.8256836,0.009216309,0.5922241,-0.71875,-0.4375,0.03125
598,0.83032227,0.008972168,0.5734253,-2.640625,-1.125,0.03125
599,0.8354492,0.005554199,0.59783936,-0.09375,1.375,-0.296875
600,0.8354492,0.002380371,0.5910034,0.03125,0.53125,-0.34375
601,0.82958984,0.012878418,0.5844116,-0.875,-0.203125,-0.359375
602,0.8286133,0.016540527,0.586853,-0.96875,-0.046875,-0.234375
603,0.8203125,0.011657715,0.5734253,-1.734375,0.34375,0.03125
604,0.8286133,0.018005371,0.60491943,0.953125,2.546875,-0.65625
605,0.82543945,-0.006164551,0.60198975,0.625,1.578125,-0.375
606,0.826416,0.014831543,0.58026123,-0.953125,-0.09375,-0.265625
607,0.8359375,0.014587402,0.5787964,-0.953125,0.75,-0.46875
608,0.8305664,0.0048217773,0.5856323,-0.1875,0.71875,-0.546875
609,0.8366699,0.0072631836,0.58148193,-0.875,-0.265625,-0.234375
610,0.8317871,0.013122559,0.58026123,-1.421875,-0.625,-0.0625
611,0.829834,0.0026245117,0.590271,-0.671875,-0.171875,-0.03125
612,0.8183594,0.0045776367,0.5922241,-0.734375,-0.265625,-0.09375
613,0.83740234,0.011657715,0.5836792,-0.921875,-0.71875,-0.296875
614,0.829834,0.010437012,0.586853,-0.640625,-0.328125,-0.25
615,0.8239746,0.0053100586,0.5939331,-0.859375,0.203125,-0.03125
616,0.829834,0.012878418,0.58221436,-1.109375,-0.390625,-0.34375
617,0.82592773,0.011657715,0.58807373,-0.609375,0.203125,-0.203125
618,0.8286133,0.01776123,0.5817261,-0.875,0.328125,-0.109375
619,0.82373047,0.009216309,0.59783936,-0.65625,-0.234375,-0.1875
620,0.8273926,0.004333496,0.5910034,-0.90625,-0.078125,-0.359375
621,0.82592773,0.016052246,0.5988159,-0.4375,0.046875,-0.1875
622,0.8239746,0.01361084,0.57073975,-2.0,0.234375,-0.078125
623,0.8354492,0.018493652,0.59954834,1.0,2.015625,-0.578125
624,0.82714844,-0.00079345703,0.5927124,-0.15625,1.484375,-0.15625
625,0.81640625,0.015563965,0.5643921,-1.6875,0.671875,-0.234375
626,0.8251953,0.023132324,0.5734253,0.40625,3.546875,-0.296875
627,0.83251953,0.0048217773,0.5795288,1.265625,3.71875,-0.328125
628,0.8371582,0.0040893555,0.5758667,0.28125,2.484375,-0.359375
629,0.84228516,0.0138549805,0.57196045,-0.5,2.453125,0.171875
630,0.8457031,0.0038452148,0.58929443,-0.09375,2.375,-0.078125
631,0.8378906,0.007507324,0.5946655,-1.3125,-0.90625,-0.234375
632,0.8071289,0.040222168,0.618103,-1.921875,-0.90625,-0.296875
633,0.80859375,0.027282715,0.63153076,-0.5,-0.4375,-0.296875
634,0.8112793,0.025817871,0.61590576,-1.671875,-0.1875,-0.28125
635,0.8054199,0.031677246,0.61273193,-1.625,-0.875,-0.40625
636,0.81396484,0.030700684,0.6203003,-1.1875,-0.21875,-0.46875
637,0.8059082,0.034118652,0.6203003,-0.984375,0.109375,-0.40625
638,0.8112793,0.03289795,0.61932373,-0.59375,0.578125,-0.5
639,0.81152344,0.03338623,0.6207886,-0.34375,0.125,-0.421875
640,0.8183594,0.03314209,0.61883545,-1.03125,-0.171875,-0.3125
641,0.8063965,0.032165527,0.621521,-0.171875,0.65625,-0.171875
642,0.80078125,0.031188965,0.6149292,-1.53125,0.375,-0.21875
643,0.81469727,0.028015137,0.635437,0.75,0.734375,-0.59375
644,0.8054199,0.028015137,0.61932373,-0.421875,0.578125,-0.1875
645,0.8078613,0.03363037,0.6107788,-1.484375,-0.078125,-0.34375
646,0.8093262,0.030212402,0.6246948,-0.46875,0.59375,-0.453125
647,0.80908203,0.03387451,0.62908936,-0.1875,0.65625,-0.390625
648,0.8063965,0.030212402,0.60491943,-0.890625,-0.21875,0.015625
649,0.810791,0.03363037,0.61273193,-0.65625,0.140625,-0.015625
650,0.8149414,0.022155762,0.6264038,0.8125,1.015625,-0.171875
651,0.80981445,0.030944824,0.61639404,-0.625,0.71875,-0.359375
652,0.814209,0.036071777,0.61151123,-0.5625,-0.046875,-0.390625
653,0.81225586,0.026062012,0.61761475,-0.59375,0.484375,-0.3125
654,0.8137207,0.030700684,0.6185913,-0.3125,0.734375,-0.359375
655,0.810791,0.03314209,0.6132202,-0.359375,0.96875,-0.328125
656,0.8173828,0.032409668,0.61834717,0.0,0.28125,-0.203125
657,0.814209,0.0289917,0.6178589,-1.046875,-0.265625,-0.34375
658,0.8078613,0.028747559,0.618103,-0.3125,0.5,-0.171875
659,0.81152344,0.027770996,0.60565186,-2.03125,-0.484375,-0.203125
660,0.80688477,0.034362793,0.6107788,1.203125,1.6875,-0.3125
661,0.80981445,0.04144287,0.62835693,4.515625,4.484375,-0.265625
662,0.8015137,0.0211792,0.6425171,4.40625,2.171875,0.0625
663,0.81103516,0.029968262,0.6281128,-0.671875,-1.03125,-0.03125
664,0.8054199,0.035583496,0.62127686,-2.296875,0.171875,-0.3125
665,0.798584,0.042907715,0.62713623,-0.953125,0.953125,-0.421875
666,0.8029785,0.04437256,0.62323,-0.78125,0.28125,-0.5
667,0.80371094,0.03289795,0.62835693,-0.015625,-0.015625,-0.34375
668,0.8093262,0.027526855,0.6227417,-0.640625,0.21875,-0.34375
669,0.8071289,0.032409668,0.6273804,0.5625,1.4375,-0.03125
670,0.80078125,0.039245605,0.6088257,-0.796875,1.15625,-0.203125
671,0.80444336,0.034118652,0.6415405,2.078125,2.1875,-0.609375
672,0.81103516,0.022399902,0.63934326,0.015625,0.40625,-0.5
673,0.8120117,0.044128418,0.6102905,-2.015625,0.15625,-0.09375
674,0.7998047,0.03778076,0.61712646,-0.78125,0.40625,-0.265625
675,0.8005371,0.02166748,0.6322632,-0.21875,0.0625,-0.34375
676,0.81591797,0.024353027,0.6161499,-0.46875,0.0625,-0.390625
677,0.8166504,0.03289795,0.61273193,-0.703125,0.5,-0.015625
678,0.8063965,0.024597168,0.63323975,0.0,0.609375,-0.03125
679,0.80688477,0.035827637,0.62957764,-0.296875,0.515625,-0.296875
680,0.81030273,0.036315918,0.618103,-0.8125,0.140625,-0.234375
681,0.8076172,0.031433105,0.6185913,-0.609375,-0.09375,-0.34375
682,0.8076172,0.027038574,0.62371826,-0.359375,0.90625,-0.40625
683,0.80810547,0.027770996,0.60614014,-0.578125,1.265625,-0.25
684,0.82055664,0.026794434,0.6203003,1.515625,1.671875,-0.375
685,0.8171387,0.021911621,0.6273804,1.125,1.265625,-0.40625
686,0.8063965,0.024353027,0.6156616,0.078125,0.921875,-0.15625
687,0.8059082,0.035583496,0.586853,-1.984375,-0.265625,-0.15625
688,0.81030273,0.034362793,0.618103,0.515625,1.5625,-0.640625
689,0.8156738,0.015319824,0.6364136,2.265625,2.390625,-0.515625
690,0.8190918,0.023132324,0.60150146,-0.890625,0.5625,-0.1875
691,0.81591797,0.020446777,0.6156616,0.171875,0.625,-0.234375
692,0.8183594,0.021911621,0.6095581,-0.375,0.515625,-0.328125
693,0.810791,0.027038574,0.6102905,-0.015625,0.859375,-0.421875
694,0.8112793,0.026062012,0.60858154,-0.40625,0.703125,-0.15625
695,0.8120117,0.02166748,0.6102905,-0.09375,0.703125,-0.109375
696,0.8171387,0.0138549805,0.6222534,1.34375,1.609375,-0.484375
697,0.82055664,0.020202637,0.60614014,-0.71875,0.46875,-0.09375
698,0.81689453,0.024108887,0.6017456,-0.765625,0.21875,-0.15625
699,0.8244629,0.020935059,0.6178589,-0.53125,0.265625,-0.265625
700,0.82006836,0.024108887,0.61346436,-0.421875,0.265625,-0.21875
701,0.8171387,0.030700684,0.60272217,-1.28125,0.28125,-0.140625
702,0.81469727,0.023376465,0.5988159,-0.34375,0.15625,-0.203125
703,0.82128906,0.012878418,0.602478,-0.25,0.8125,-0.265625
704,0.8232422,0.022888184,0.61346436,-0.34375,0.59375,-0.203125
705,0.8183594,0.019470215,0.58148193,-2.03125,-0.609375,-0.09375
706,0.8171387,0.016784668,0.5975952,-0.53125,1.421875,-0.390625
707,0.82055664,0.008483887,0.6210327,2.890625,3.828125,-1.046875
708,0.81811523,0.01751709,0.6000366,-1.296875,-0.4375,0.0
709,0.8005371,0.010437012,0.6757202,2.640625,0.265625,0.375
710,0.79907227,0.03753662,0.633728,-3.03125,1.265625,0.0625
711,0.7902832,0.04852295,0.64276123,-0.453125,2.4375,-0.578125
712,0.79589844,0.04876709,0.6351929,1.71875,1.0,-0.640625
713,0.7932129,0.047302246,0.6210327,-0.140625,1.46875,-0.328125
714,0.80859375,0.022644043,0.65374756,4.078125,1.640625,-0.640625
715,0.80444336,0.015563965,0.63983154,0.765625,1.46875,-0.046875
716,0.8112793,0.032409668,0.62713623,-0.1875,1.421875,0.203125
717,0.80126953,0.03289795,0.63739014,0.375,1.15625,-0.109375
718,0.7902832,0.034362793,0.64178467,0.03125,0.703125,-0.328125
719,0.8046875,0.035095215,0.62323,-1.234375,-0.484375,-0.328125
720,0.79711914,0.038269043,0.6244507,-0.515625,0.546875,-0.0625
721,0.8027344,0.02947998,0.6342163,0.6875,1.265625,-0.25
722,0.80908203,0.018249512,0.63201904,0.03125,1.0,-0.296875
723,0.80029297,0.039245605,0.62005615,-0.25,0.515625,-0.078125
724,0.80737305,0.03314209,0.63323975,-0.203125,0.390625,-0.21875
725,0.8010254,0.026550293,0.63323975,0.1875,1.140625,-0.359375
726,0.81103516,0.026794434,0.6222534,-0.59375,0.421875,-0.296875
727,0.8059082,0.02532959,0.6137085,-0.5,0.328125,-0.234375
728,0.81689453,0.0289917,0.62615967,0.109375,0.71875,-0.109375
729,0.810791,0.026794434,0.6264038,-0.328125,0.578125,-0.3125
730,0.8071289,0.0289917,0.6317749,-0.265625,0.3125,-0.25
731,0.8034668,0.028747559,0.62664795,-0.453125,0.484375,-0.015625
732,0.79418945,0.03338623,0.61468506,-1.46875,0.359375,-0.09375
733,0.8120117,0.027770996,0.6408081,2.03125,2.859375,-0.5625
734,0.81030273,0.010681152,0.62323,1.25,1.703125,-0.390625
735,0.81347656,0.03363037,0.60809326,-1.390625,0.171875,-0.109375
736,0.80126953,0.030212402,0.6203003,-0.765625,0.765625,-0.3125
737,0.80859375,0.025817871,0.62615967,-0.296875,0.078125,-0.265625
738,0.81274414,0.0289917,0.6173706,-1.046875,-0.578125,-0.28125
739,0.80322266,0.029968262,0.6100464,-1.171875,0.28125,-0.09375
740,0.80810547,0.015808105,0.62054443,-0.015625,0.375,-0.1875
741,0.8071289,0.016540527,0.62713623,-0.34375,0.125,-0.296875
742,0.8132324,0.0289917,0.6137085,-0.859375,0.21875,-0.296875
743,0.8046875,0.020446777,0.6137085,-0.59375,0.21875,-0.4375
744,0.8093262,0.024353027,0.621521,-0.796875,0.015625,-0.359375
745,0.8088379,0.028259277,0.6185913,-0.453125,0.4375,-0.328125
746,0.8105469,0.027526855,0.6046753,-1.0625,0.0,-0.359375
747,0.80371094,0.016296387,0.6195679,-0.375,0.171875,-0.15625
748,0.81591797,0.022399902,0.6264038,-0.40625,0.53125,-0.21875
749,0.8063965,0.022888184,0.6286011,-0.46875,0.328125,-0.1875
750,0.80249023,0.025817871,0.6066284,-1.421875,-0.21875,-0.0625
751,0.81274414,0.026794434,0.60736084,-1.453125,0.28125,-0.546875
752,0.810791,0.020935059,0.6322632,1.890625,2.21875,-0.5
753,0.8173828,0.019714355,0.61834717,-0.453125,0.5,-0.1875
754,0.8137207,0.03289795,0.61468506,-1.40625,-0.015625,-0.171875
755,0.80737305,0.02142334,0.6173706,-0.734375,0.515625,-0.171875
756,0.80566406,0.0211792,0.6268921,-0.21875,0.421875,-0.34375
757,0.814209,0.028015137,0.6100464,-1.0625,-0.625,-0.296875
758,0.8041992,0.0211792,0.6078491,-1.140625,0.09375,-0.21875
759,0.81030273,0.016784668,0.62542725,0.109375,0.875,-0.3125
