sample_no,accel_x,accel_y,accel_z,gyro_x,gyro_y,gyro_z
0,0.03955078,-1.0007935,0.23675537,1.03125,-0.84375,0.3125
1,0.048828125,-0.9758911,0.19403076,2.078125,-2.96875,1.015625
2,0.03125,-0.9873657,0.18792725,1.078125,-1.140625,0.21875
3,0.026611328,-1.0081177,0.20794678,1.25,0.515625,0.5625
4,0.029052734,-0.9961548,0.20574951,0.984375,0.890625,0.328125
5,0.028808594,-0.9846802,0.19720459,0.125,2.15625,0.1875
6,0.02709961,-0.98443604,0.2074585,0.8125,1.8125,0.328125
7,0.025634766,-0.9949341,0.20672607,-1.21875,0.515625,-0.21875
8,0.041259766,-1.003479,0.22283936,-0.75,0.71875,0.46875
9,0.0390625,-0.98565674,0.17572021,-1.796875,-3.25,0.515625
10,0.032470703,-1.0178833,0.22381592,0.796875,0.703125,0.640625
11,0.036865234,-0.9898071,0.2098999,2.375,-0.03125,1.453125
12,0.027832031,-0.98638916,0.19110107,0.90625,-0.546875,1.109375
13,0.018066406,-0.97320557,0.1930542,0.609375,0.4375,1.390625
14,0.051513672,-0.9763794,0.20037842,-0.109375,-1.859375,0.9375
15,0.039794922,-1.0025024,0.20184326,-0.6875,-0.90625,0.890625
16,0.010498047,-0.9819946,0.22723389,1.3125,-1.859375,1.5
17,0.023925781,-0.98883057,0.22479248,2.71875,-2.765625,3.03125
18,0.04296875,-0.9973755,0.20770264,2.015625,-1.046875,2.328125
19,0.028808594,-0.99664307,0.19500732,0.5,0.75,1.140625
20,0.040527344,-1.0105591,0.20770264,1.40625,0.03125,1.875
21,0.045654297,-0.9873657,0.19989014,0.828125,0.21875,1.3125
22,0.033691406,-0.97320557,0.19818115,0.859375,0.671875,1.046875
23,0.029785156,-0.9963989,0.21185303,0.046875,0.296875,1.140625
24,0.037841797,-0.99542236,0.19866943,-0.78125,-0.96875,0.640625
25,0.03491211,-0.99884033,0.20477295,0.671875,-0.71875,0.8125
26,0.037597656,-0.98809814,0.19525146,-0.6875,-0.171875,0.359375
27,0.044677734,-1.0010376,0.21038818,0.421875,0.703125,0.921875
28,0.04663086,-0.96588135,0.20062256,0.234375,-0.171875,0.328125
29,0.03173828,-0.99468994,0.21160889,1.140625,-2.21875,1.15625
30,0.052978516,-0.9924927,0.18255615,-2.1875,0.546875,-0.578125
31,0.028076172,-1.0076294,0.21380615,0.296875,0.890625,0.609375
32,0.05883789,-0.98638916,0.18548584,-0.6875,-0.421875,0.515625
33,0.060546875,-0.9607544,0.19598389,0.265625,-1.296875,0.78125
34,0.038085938,-0.98516846,0.2140503,1.3125,-1.296875,2.3125
35,0.041503906,-1.0132446,0.20355225,1.75,-2.21875,2.015625
36,0.03564453,-1.0112915,0.18865967,1.515625,0.0,1.859375
37,0.037841797,-0.97613525,0.19207764,1.71875,-0.03125,2.015625
38,0.032714844,-1.0022583,0.2140503,1.359375,-1.046875,1.921875
39,0.044921875,-0.9927368,0.2033081,0.6875,-0.375,1.125
40,0.03466797,-0.9751587,0.19793701,0.40625,-0.609375,0.984375
41,0.045898438,-0.99224854,0.20599365,-0.5625,-0.09375,0.65625
42,0.035888672,-1.0003052,0.22943115,-0.03125,-0.34375,1.078125
43,0.04272461,-0.9927368,0.20574951,-1.453125,-0.328125,0.4375
44,0.030273438,-1.0022583,0.20697021,0.0625,-0.390625,1.71875
45,0.0637207,-0.9819946,0.19915771,-0.765625,0.296875,0.171875
46,0.045166016,-0.98394775,0.19085693,-0.9375,-3.34375,1.140625
47,0.05834961,-1.0064087,0.19403076,0.34375,-0.296875,-0.03125
48,0.037109375,-0.99468994,0.21502686,0.3125,-1.484375,0.96875
49,0.04663086,-0.9951782,0.2033081,-0.625,-0.734375,-0.015625
50,0.044921875,-0.98687744,0.20550537,-1.390625,-1.328125,-0.421875
51,0.03857422,-0.9981079,0.21087646,-0.890625,-0.46875,-0.5625
52,0.040039062,-0.9829712,0.2140503,0.3125,0.25,-0.046875
53,0.03540039,-0.9783325,0.21453857,0.1875,-0.625,-0.125
54,0.04638672,-0.99468994,0.22064209,-1.6875,-0.328125,-0.03125
55,0.03100586,-1.0122681,0.22064209,-1.0,-0.796875,0.453125
56,0.02758789,-0.97906494,0.21234131,0.40625,-0.78125,1.078125
57,0.049804688,-0.9817505,0.22503662,0.078125,-1.03125,1.296875
58,0.04736328,-0.9998169,0.2086792,1.25,-1.59375,1.3125
59,0.009033203,-0.9963989,0.21331787,1.296875,-0.09375,1.0625
60,0.043701172,-0.97784424,0.21087646,0.546875,-0.3125,0.15625
61,0.044189453,-0.99664307,0.22039795,0.625,-0.328125,1.359375
62,0.04345703,-0.98931885,0.20941162,1.0625,0.578125,1.109375
63,0.030029297,-0.97857666,0.21136475,1.171875,-0.359375,1.15625
64,0.026367188,-1.0088501,0.21356201,1.8125,0.5,1.21875
65,0.036865234,-0.9871216,0.21014404,-1.78125,2.859375,0.28125
66,0.046875,-0.99102783,0.22088623,-0.234375,0.265625,0.515625
67,0.03466797,-0.99835205,0.23065186,-0.078125,-1.609375,-0.203125
68,0.037109375,-0.98516846,0.22576904,0.78125,-0.203125,-0.4375
69,0.028320312,-0.9944458,0.19866943,0.4375,-0.546875,0.03125
70,0.034179688,-0.99176025,0.22381592,1.140625,-0.140625,-0.0625
71,0.030761719,-0.9963989,0.2243042,-0.703125,-0.078125,0.109375
72,0.03173828,-0.98028564,0.21795654,0.578125,-0.78125,0.15625
73,0.027832031,-1.0029907,0.2098999,0.171875,-1.078125,-0.015625
74,0.022949219,-1.0056763,0.21356201,2.0,-0.65625,0.703125
75,0.032470703,-0.98028564,0.19354248,0.53125,-0.328125,-0.421875
76,0.01953125,-1.0042114,0.21746826,-0.421875,0.6875,0.046875
77,-0.00048828125,-0.96954346,0.21014404,-1.9375,0.625,0.640625
78,0.048095703,-0.99346924,0.21600342,-0.578125,1.140625,0.453125
79,0.033203125,-0.9981079,0.2345581,1.34375,-1.890625,1.59375
80,0.018798828,-0.9846802,0.20648193,0.171875,-1.09375,0.796875
81,0.026123047,-0.99102783,0.20843506,0.625,0.109375,1.015625
82,0.024414062,-1.0005493,0.21087646,1.046875,0.484375,1.296875
83,0.01928711,-0.98394775,0.21600342,0.984375,0.859375,1.453125
84,0.025634766,-1.0025024,0.21014404,0.6875,-0.21875,1.421875
85,0.05053711,-0.9846802,0.23284912,1.984375,3.609375,0.46875
86,0.010009766,-1.0081177,0.20428467,0.390625,-0.234375,0.5625
87,0.038085938,-0.9619751,0.20281982,0.640625,-2.1875,0.75
88,0.020751953,-0.99420166,0.21282959,2.078125,-0.140625,0.9375
89,0.025390625,-0.9915161,0.19940186,0.65625,-0.09375,0.484375
90,0.013183594,-0.9968872,0.21234131,2.71875,-1.296875,2.125
91,0.019042969,-0.98394775,0.18695068,-2.296875,0.421875,0.828125
92,0.043701172,-0.9714966,0.20233154,-1.734375,1.0,0.78125
93,0.037597656,-1.003479,0.24139404,1.21875,1.515625,2.703125
94,0.007080078,-0.9939575,0.22625732,0.75,-2.1875,3.203125
95,0.018310547,-0.9883423,0.21356201,-0.390625,-2.34375,1.65625
96,0.048095703,-1.0022583,0.21600342,0.125,-1.25,1.265625
97,0.043701172,-1.0134888,0.20452881,-0.0625,-0.140625,0.484375
98,0.044921875,-0.9800415,0.19696045,-0.28125,-0.125,-0.296875
99,0.041748047,-0.9915161,0.230896,-0.140625,-0.1875,0.0625
100,0.017822266,-0.99053955,0.21795654,-0.140625,-0.25,0.609375
101,0.03491211,-0.96954346,0.20599365,-1.0625,-2.28125,0.34375
102,0.041015625,-0.9859009,0.22406006,-1.140625,-1.328125,1.40625
103,0.029052734,-1.0025024,0.21624756,-2.234375,-1.75,1.03125
104,0.032226562,-0.9871216,0.22137451,-0.765625,-0.328125,0.765625
105,0.04321289,-0.9714966,0.22113037,0.515625,-1.1875,0.15625
106,0.026123047,-0.9937134,0.22064209,0.640625,-1.234375,0.75
107,0.024658203,-0.98687744,0.21868896,1.796875,0.28125,0.65625
108,0.030273438,-0.97320557,0.22943115,0.921875,-0.390625,0.390625
109,0.03515625,-1.0049438,0.22259521,0.59375,-1.140625,0.75
110,0.02368164,-0.97076416,0.20965576,-0.03125,-1.25,0.8125
111,0.03100586,-1.0213013,0.23406982,1.375,0.671875,0.359375
112,0.03149414,-0.9805298,0.20770264,0.015625,0.984375,1.171875
113,0.026123047,-0.9834595,0.22161865,0.421875,1.265625,-0.140625
114,0.023925781,-0.98931885,0.22113037,-0.203125,0.296875,0.984375
115,0.036865234,-0.99542236,0.21917725,-0.375,0.25,0.296875
116,0.036132812,-0.9873657,0.22796631,0.484375,-0.578125,0.71875
117,0.036621094,-0.9859009,0.21820068,-0.734375,0.03125,0.09375
118,0.02319336,-1.0120239,0.20721436,-0.28125,-0.25,0.21875
119,0.033203125,-0.97662354,0.23138428,0.375,1.140625,0.390625
120,0.036621094,-0.97369385,0.22454834,-2.46875,-3.71875,-0.53125
121,0.043701172,-0.991272,0.20281982,1.46875,-4.109375,-1.09375
122,-0.012939453,-1.0371704,0.2675171,2.328125,2.265625,0.015625
123,0.050048828,-0.9837036,0.21209717,2.8125,0.71875,1.390625
124,0.06665039,-0.96051025,0.20013428,0.953125,-2.875,1.953125
125,0.024658203,-0.99884033,0.22406006,0.078125,0.203125,1.375
126,0.0053710938,-0.9981079,0.18939209,-1.03125,0.1875,0.578125
127,-0.022460938,-1.0283813,0.18695068,2.578125,2.765625,1.53125
128,0.061523438,-0.92022705,0.18963623,-0.1875,4.359375,0.046875
129,0.057861328,-0.9907837,0.25946045,0.53125,0.546875,0.546875
130,-0.050048828,-0.99420166,0.23968506,1.4375,-1.875,0.78125
131,0.019042969,-0.97003174,0.20941162,1.96875,-2.109375,2.1875
132,0.057617188,-1.0110474,0.22137451,2.796875,0.171875,2.296875
133,0.029052734,-1.0095825,0.22650146,1.078125,-0.71875,2.734375
134,0.029052734,-0.98760986,0.21038818,1.1875,-0.40625,2.34375
135,0.040283203,-0.9907837,0.19573975,-0.484375,0.84375,0.140625
136,0.03125,-0.9898071,0.2177124,0.828125,-0.71875,1.390625
137,0.046142578,-0.98760986,0.21795654,-0.375,1.40625,0.84375
138,0.016601562,-0.98150635,0.21160889,-0.28125,-1.71875,0.109375
139,0.044677734,-0.99786377,0.20526123,-0.515625,-0.375,0.5625
140,0.03491211,-0.9976196,0.22650146,0.296875,-0.265625,0.3125
141,0.033935547,-0.972229,0.20574951,0.125,-0.234375,0.28125
142,0.019042969,-0.9883423,0.2177124,-0.9375,-0.03125,0.671875
143,0.020019531,-1.0007935,0.23260498,0.875,0.453125,0.875
144,0.036621094,-0.9920044,0.20770264,0.375,-1.5625,0.5625
145,0.023925781,-0.9944458,0.21014404,1.0625,-1.609375,0.078125
146,0.025634766,-0.9981079,0.21185303,1.484375,-1.65625,0.8125
147,0.037841797,-0.9937134,0.20526123,1.859375,-1.1875,0.90625
148,0.037353516,-0.99176025,0.19793701,0.46875,0.21875,0.109375
149,0.018798828,-0.99664307,0.21844482,0.484375,0.671875,0.3125
150,0.04296875,-0.9951782,0.2177124,-1.34375,0.34375,0.390625
151,0.0029296875,-0.98394775,0.20306396,-0.453125,-0.484375,1.15625
152,0.023925781,-0.98150635,0.21795654,0.296875,-1.1875,0.875
153,0.03564453,-0.9800415,0.20281982,-1.71875,-1.734375,0.640625
154,0.02319336,-0.99298096,0.21307373,-0.375,-1.03125,0.109375
155,0.0107421875,-0.99005127,0.23114014,1.03125,0.296875,1.953125
156,0.013427734,-0.9849243,0.22332764,1.4375,-1.1875,2.0625
157,0.03540039,-1.0049438,0.21160889,0.96875,-1.140625,1.90625
158,0.041992188,-0.9981079,0.19256592,0.890625,0.3125,0.75
159,0.02709961,-0.98760986,0.20404053,1.078125,0.21875,1.03125
160,0.025634766,-0.9837036,0.21453857,-0.9375,1.65625,1.1875
161,0.044189453,-0.99468994,0.21331787,-1.15625,1.734375,0.234375
162,0.012451172,-0.98638916,0.24017334,0.828125,0.25,1.34375
163,0.017089844,-0.9920044,0.2177124,0.640625,-1.6875,0.515625
164,0.08959961,-0.975647,0.22650146,1.28125,-1.84375,-0.234375
165,0.014892578,-0.9981079,0.21820068,1.828125,0.625,0.125
166,-0.007080078,-1.0366821,0.20452881,2.125,-0.890625,1.984375
167,0.06591797,-0.9558716,0.20355225,0.234375,2.4375,1.234375
168,0.020019531,-0.97735596,0.21551514,0.484375,0.265625,1.09375
169,0.025146484,-1.0066528,0.22137451,0.171875,0.6875,1.109375
170,0.03173828,-0.9951782,0.21356201,-0.375,1.390625,0.375
171,0.039794922,-1.0044556,0.21209717,-0.3125,0.890625,0.21875
172,0.022460938,-0.99102783,0.21429443,0.734375,0.578125,1.046875
173,0.022216797,-0.989563,0.21453857,1.71875,1.96875,1.875
174,0.028320312,-1.0010376,0.20819092,1.296875,1.03125,1.4375
175,0.037353516,-0.97613525,0.19329834,1.1875,1.15625,1.265625
176,0.035888672,-0.9944458,0.21575928,1.3125,0.703125,1.0
177,0.045410156,-0.9885864,0.19573975,0.328125,0.59375,0.328125
178,0.04248047,-0.9859009,0.20159912,0.546875,-0.359375,0.734375
179,0.047607422,-0.98638916,0.2140503,0.4375,-1.0625,0.359375
180,0.01953125,-1.0003052,0.199646,1.765625,-0.875,1.15625
181,0.04321289,-0.97735596,0.16595459,0.859375,1.203125,0.234375
182,0.048828125,-0.99224854,0.23016357,5.46875,-0.0625,3.40625
183,-0.004638672,-1.0108032,0.23675537,3.296875,-3.796875,2.421875
184,0.07055664,-0.989563,0.16741943,-1.0625,-2.484375,0.84375
185,0.0637207,-1.0181274,0.16204834,-0.8125,-1.375,0.515625
186,0.024902344,-0.9956665,0.2062378,0.4375,0.875,0.453125
187,0.022460938,-0.9746704,0.21380615,-0.953125,-0.703125,0.375
188,0.038330078,-0.97613525,0.18035889,-1.125,-2.6875,0.84375
189,0.022949219,-1.0042114,0.20306396,-0.203125,-1.84375,0.8125
190,0.041015625,-0.9873657,0.20526123,-0.96875,-1.609375,0.25
191,0.04711914,-0.99664307,0.2189331,0.390625,-0.59375,0.75
192,0.02319336,-0.99884033,0.2218628,1.671875,-0.6875,1.296875
193,0.021484375,-0.9697876,0.19989014,0.578125,-1.4375,0.890625
194,0.04736328,-1.0147095,0.1984253,-0.03125,-1.796875,1.0
195,0.033203125,-0.99468994,0.19451904,0.78125,1.296875,0.6875
196,0.04272461,-0.9898071,0.19525146,-1.015625,0.984375,-0.5
197,0.010009766,-0.9973755,0.20892334,-0.15625,0.0,0.984375
198,0.017089844,-0.98883057,0.17230225,-4.890625,2.265625,-0.375
199,0.052734375,-0.97906494,0.21722412,-1.15625,4.71875,0.046875
200,0.036132812,-0.9993286,0.2177124,-1.125,-1.546875,1.328125
201,0.034179688,-0.9920044,0.21697998,-0.546875,0.328125,0.34375
202,0.025146484,-0.97613525,0.21551514,0.0625,2.046875,0.640625
203,0.022705078,-0.9812622,0.22698975,1.796875,0.484375,1.9375
204,0.033935547,-0.9834595,0.199646,-0.46875,-0.484375,0.984375
205,0.030029297,-1.0205688,0.23162842,2.3125,-1.875,1.5
206,0.040283203,-0.97198486,0.20794678,1.21875,-0.453125,0.6875
207,0.04272461,-0.99542236,0.20135498,1.34375,-1.25,0.984375
208,0.024658203,-0.9927368,0.21038818,1.78125,-0.046875,0.625
209,0.036376953,-0.9841919,0.20526123,0.90625,0.484375,0.90625
210,0.047607422,-0.9993286,0.2140503,1.203125,0.6875,0.46875
211,0.024414062,-0.9885864,0.21600342,0.609375,-1.015625,1.625
212,0.043945312,-0.991272,0.19891357,-2.484375,-0.203125,-0.0625
213,0.03125,-0.99591064,0.22235107,0.234375,-0.703125,0.5625
214,0.033203125,-0.9817505,0.20965576,-1.046875,1.9375,0.421875
215,0.041259766,-0.99176025,0.21795654,-1.0625,0.859375,0.5625
216,0.020996094,-0.9937134,0.22869873,1.234375,-1.4375,1.53125
217,0.028320312,-0.98638916,0.20477295,-0.265625,-1.265625,0.0
218,0.047851562,-1.0003052,0.20672607,0.015625,-0.734375,1.0
219,0.052978516,-0.9898071,0.20062256,0.40625,-0.28125,0.1875
220,0.023925781,-0.9837036,0.21429443,0.515625,0.546875,0.5
221,0.032470703,-0.97662354,0.2177124,-1.09375,-0.84375,1.25
222,0.031982422,-0.9932251,0.22796631,-0.078125,-2.234375,0.6875
223,0.03857422,-1.0134888,0.20892334,-0.046875,-0.515625,0.15625
224,0.044921875,-0.9812622,0.2020874,1.0,-0.5,0.671875
225,0.019042969,-0.97198486,0.21820068,0.875,0.6875,0.40625
226,0.016113281,-0.98931885,0.22015381,-0.453125,-0.3125,1.171875
227,0.049316406,-0.9854126,0.21087646,0.390625,-0.96875,1.3125
228,0.03515625,-1.0093384,0.21307373,-1.03125,-1.3125,0.0625
229,0.010009766,-0.99713135,0.22381592,1.34375,-0.4375,1.1875
230,0.037109375,-0.9902954,0.21380615,0.828125,-0.09375,0.484375
231,0.023925781,-0.9824829,0.2230835,1.5625,-1.4375,1.25
232,0.024658203,-0.9824829,0.2501831,7.40625,-2.40625,2.890625
233,0.034179688,-1.0029907,0.14471436,-1.625,-2.609375,2.0
234,0.048339844,-1.0025024,0.19622803,0.8125,4.390625,0.234375
235,0.029785156,-1.017395,0.19793701,1.34375,1.640625,0.953125
236,0.029296875,-0.9824829,0.21478271,0.59375,1.953125,1.25
237,0.034179688,-0.97052,0.19769287,0.09375,2.046875,0.0
238,0.040771484,-0.9890747,0.20697021,-0.0625,0.125,0.625
239,0.04248047,-0.99664307,0.20648193,0.578125,0.21875,0.71875
240,0.05883789,-0.99664307,0.2020874,-0.28125,-0.71875,0.59375
241,0.026855469,-0.9837036,0.19598389,0.34375,-0.125,0.953125
242,0.049072266,-0.9924927,0.17889404,-0.71875,0.5,0.1875
243,0.03466797,-0.9898071,0.21356201,-2.75,2.375,-1.046875
244,0.029785156,-0.9807739,0.22479248,-0.203125,-1.9375,1.015625
245,0.033691406,-1.000061,0.2164917,-1.53125,-0.5625,1.03125
246,0.018798828,-0.97052,0.21014404,-0.890625,0.8125,0.875
247,0.053955078,-0.9819946,0.23236084,-0.0625,-1.078125,1.265625
248,0.028564453,-1.0066528,0.21575928,0.125,-2.328125,1.0625
249,0.035888672,-0.9837036,0.2033081,1.265625,-1.5,1.03125
250,0.034179688,-1.0007935,0.21160889,0.0,-0.609375,1.671875
251,0.047851562,-0.9898071,0.2020874,-0.859375,-1.03125,0.65625
252,0.036376953,-0.9885864,0.21746826,-0.265625,0.46875,0.953125
253,0.037841797,-0.9873657,0.22064209,-0.734375,0.046875,0.46875
254,0.033203125,-0.99005127,0.22528076,-0.890625,-1.359375,0.78125
255,0.03466797,-0.99713135,0.22381592,0.46875,-0.75,-0.109375
256,0.03540039,-0.9717407,0.21478271,-0.734375,-0.515625,0.125
257,0.030761719,-0.9951782,0.21990967,0.40625,-0.515625,0.34375
258,0.03564453,-0.9963989,0.21673584,-0.21875,0.6875,0.59375
259,0.016357422,-0.9578247,0.21331787,-0.046875,-0.328125,-0.078125
260,0.036132812,-1.0161743,0.2477417,1.21875,-0.203125,0.96875
261,0.03540039,-0.98321533,0.215271,-0.3125,-1.984375,1.3125
262,0.027832031,-0.98394775,0.23919678,0.03125,-0.546875,0.09375
263,0.031982422,-0.96881104,0.21136475,-4.09375,-4.59375,-0.140625
264,0.029296875,-0.99591064,0.23406982,-1.28125,-4.265625,-1.1875
265,-0.0026855469,-1.0115356,0.24432373,0.046875,-1.921875,-0.84375
266,0.010253906,-0.9973755,0.21966553,0.90625,0.25,-0.140625
267,0.032958984,-0.9734497,0.21697998,1.234375,0.859375,0.171875
268,-0.00024414062,-0.98321533,0.24090576,0.359375,0.171875,0.375
269,0.016113281,-0.9932251,0.23480225,-0.09375,-0.265625,1.265625
270,0.032958984,-0.9924927,0.22845459,0.03125,-0.109375,-0.203125
271,0.008544922,-0.9939575,0.2296753,1.0625,1.375,0.25
272,0.024169922,-0.9763794,0.23260498,0.25,1.265625,0.328125
273,0.026123047,-0.98516846,0.2399292,0.640625,0.578125,0.78125
274,0.028076172,-1.0005493,0.23944092,-1.015625,-0.796875,0.03125
275,-0.0031738281,-0.9807739,0.24700928,0.734375,-0.5625,1.1875
276,0.03930664,-0.9817505,0.2218628,-0.875,-2.765625,0.4375
277,0.008056641,-1.0061646,0.2423706,1.25,-1.53125,0.765625
278,-0.0009765625,-0.98223877,0.22943115,1.03125,-0.125,1.1875
279,0.027832031,-0.9849243,0.2189331,1.078125,-1.90625,1.375
280,0.01586914,-0.9859009,0.24334717,4.03125,-2.078125,1.46875
281,0.020507812,-1.0147095,0.15692139,0.5625,-6.46875,1.359375
282,0.041259766,-1.0261841,0.25238037,1.875,1.953125,-0.734375
283,-0.016113281,-0.97003174,0.24847412,3.546875,1.25,0.734375
284,0.0107421875,-0.97320557,0.22454834,2.5,-0.328125,0.71875
285,0.0234375,-0.9800415,0.19720459,2.125,0.03125,1.34375
286,0.020507812,-1.0037231,0.21038818,2.28125,0.734375,0.859375
287,0.024902344,-0.9951782,0.20574951,0.703125,0.96875,1.578125
288,0.022460938,-0.9780884,0.19793701,0.109375,4.921875,0.75
289,0.01953125,-1.0110474,0.23504639,1.484375,3.625,2.09375
290,0.0146484375,-0.99102783,0.20599365,1.5,2.671875,1.484375
291,0.001953125,-0.9883423,0.2020874,0.453125,2.4375,1.109375
292,0.026855469,-1.003479,0.21502686,0.828125,0.890625,0.5625
293,-0.013671875,-1.0352173,0.23358154,-0.625,0.265625,0.484375
294,0.04272461,-0.954895,0.20404053,0.453125,1.109375,1.046875
295,0.032226562,-0.9949341,0.19671631,-0.265625,-0.265625,0.5
296,-0.005126953,-0.9990845,0.21063232,-1.03125,1.5625,-0.40625
297,0.017578125,-0.9963989,0.21429443,-0.34375,0.75,0.46875
298,0.03930664,-0.9956665,0.21575928,-0.9375,0.140625,-0.25
299,0.026855469,-0.991272,0.21624756,0.046875,0.09375,0.375
300,0.014892578,-0.99542236,0.20452881,0.125,0.96875,0.25
301,0.032470703,-1.0066528,0.20306396,0.84375,2.171875,0.4375
302,0.040771484,-0.9783325,0.23114014,1.28125,3.875,-0.6875
303,-0.0073242188,-0.9734497,0.18597412,-2.109375,-1.6875,0.265625
304,0.01928711,-0.9998169,0.21820068,-0.375,0.609375,0.390625
305,0.019042969,-0.99542236,0.22137451,1.6875,-0.9375,1.078125
306,0.02734375,-0.97320557,0.21234131,0.109375,-0.765625,1.15625
307,0.024658203,-1.0083618,0.2074585,-0.140625,-1.046875,0.5
308,0.01171875,-0.9963989,0.21624756,0.5,0.625,0.5625
309,0.030273438,-0.9924927,0.21942139,0.359375,1.109375,0.90625
310,0.024414062,-0.98150635,0.21258545,-0.5625,-1.28125,0.609375
311,0.016113281,-0.9990845,0.21307373,0.03125,0.71875,0.9375
312,0.015625,-1.0039673,0.22161865,-0.734375,0.0625,0.453125
313,0.018066406,-0.9780884,0.21575928,-0.625,-0.90625,0.90625
314,0.010009766,-0.98931885,0.21575928,-0.484375,-0.984375,0.984375
315,0.024414062,-1.000061,0.22357178,0.640625,-0.015625,0.796875
316,0.010253906,-0.99053955,0.22943115,-0.25,-0.328125,1.21875
317,0.021240234,-0.9898071,0.21551514,-0.453125,-0.359375,1.0
318,0.015625,-0.9829712,0.22406006,-0.015625,0.9375,0.96875
319,0.017333984,-1.0100708,0.24212646,-0.28125,0.359375,0.625
320,0.001953125,-0.98321533,0.23065186,1.078125,-1.046875,2.1875
321,0.04663086,-0.9746704,0.21722412,-0.40625,0.125,0.4375
322,0.017578125,-0.99713135,0.24285889,0.78125,-0.828125,1.25
323,0.009765625,-0.98931885,0.21990967,0.21875,-0.59375,0.640625
324,0.008056641,-0.9939575,0.2321167,0.921875,-0.640625,1.03125
325,0.03125,-0.9776001,0.2111206,1.21875,0.421875,0.78125
326,0.011230469,-0.9859009,0.23114014,0.296875,1.15625,1.515625
327,0.022949219,-1.003479,0.21478271,0.078125,-0.234375,0.90625
328,0.024169922,-1.00177,0.23162842,0.421875,1.296875,0.609375
329,0.0031738281,-0.9780884,0.22698975,1.765625,0.078125,1.234375
330,0.013671875,-0.9873657,0.23553467,1.28125,-1.171875,1.25
331,0.037841797,-1.0012817,0.22259521,-0.453125,-0.625,0.53125
332,0.0014648438,-0.9956665,0.215271,0.9375,-0.328125,0.796875
333,0.013916016,-0.98150635,0.22161865,0.390625,0.21875,0.6875
334,0.03857422,-1.0020142,0.21966553,-0.6875,-0.140625,0.015625
335,0.0036621094,-0.97857666,0.22528076,0.1875,-0.234375,0.046875
336,0.01953125,-0.9788208,0.23138428,0.015625,-0.296875,0.703125
337,0.016601562,-1.0110474,0.21820068,1.34375,-1.53125,1.09375
338,0.030761719,-0.98883057,0.20941162,-1.28125,-0.125,-0.625
339,0.018798828,-0.98638916,0.23822021,-0.140625,1.140625,0.6875
340,0.021240234,-0.98883057,0.22137451,0.1875,-0.203125,0.90625
341,0.028808594,-0.9902954,0.23651123,-0.296875,0.578125,0.859375
342,0.016845703,-0.98809814,0.21746826,-1.59375,0.484375,0.265625
343,0.0234375,-0.9927368,0.2489624,0.5625,0.953125,1.015625
344,0.016845703,-0.98809814,0.24578857,0.28125,-2.15625,0.96875
345,0.014160156,-0.98809814,0.21746826,-0.546875,-1.65625,0.171875
346,0.033691406,-1.0115356,0.21478271,-3.796875,3.515625,-1.734375
347,0.015380859,-0.9763794,0.21868896,-3.546875,1.265625,-1.671875
348,-0.00024414062,-0.99346924,0.25701904,-0.078125,2.453125,0.890625
349,0.0007324219,-0.9849243,0.26654053,-0.421875,-1.578125,0.875
350,0.00390625,-0.9817505,0.24578857,0.453125,-0.75,0.078125
351,0.0087890625,-0.9902954,0.22161865,0.625,-0.078125,0.96875
352,0.0063476562,-0.9805298,0.24847412,0.796875,0.46875,0.453125
353,0.0009765625,-0.99542236,0.24359131,-0.3125,0.71875,1.09375
354,0.017089844,-0.98809814,0.25653076,1.0625,0.09375,1.09375
355,0.021240234,-0.97906494,0.24822998,1.71875,-0.34375,1.0625
356,0.008300781,-0.9859009,0.24066162,-0.625,-0.625,0.78125
357,0.020019531,-0.99542236,0.24847412,0.796875,-0.671875,0.34375
358,0.0078125,-0.98394775,0.2399292,0.96875,-0.28125,1.15625
359,0.009765625,-0.98516846,0.24163818,0.671875,-0.921875,0.953125
360,0.0043945312,-0.9898071,0.23114014,0.90625,0.0,1.140625
361,0.010253906,-0.99053955,0.23675537,0.0625,0.109375,1.1875
362,0.022949219,-0.9944458,0.23626709,0.046875,0.46875,1.0
363,0.006591797,-0.99664307,0.2345581,0.125,1.078125,1.140625
364,0.015380859,-0.9685669,0.24676514,-0.6875,1.171875,0.625
365,0.01953125,-0.9902954,0.24578857,-0.203125,1.953125,1.40625
366,0.010498047,-0.98565674,0.2489624,-1.203125,-0.015625,-0.125
367,0.014892578,-0.9924927,0.24676514,0.984375,-0.25,1.453125
368,-0.0107421875,-0.9956665,0.24017334,0.140625,-1.453125,0.09375
369,0.013427734,-0.97857666,0.26263428,0.484375,-0.4375,1.328125
370,0.018310547,-0.98638916,0.23309326,-0.09375,-0.671875,0.328125
371,0.018798828,-0.99835205,0.24432373,1.078125,-1.015625,0.90625
372,0.0026855469,-0.9819946,0.2501831,0.65625,-0.21875,1.0625
373,0.03100586,-0.99224854,0.24407959,0.703125,0.34375,0.890625
374,0.0014648438,-0.98150635,0.24578857,0.40625,-0.71875,0.984375
375,0.01171875,-0.98101807,0.23236084,-0.375,0.34375,0.953125
376,0.01928711,-0.9944458,0.2374878,-0.296875,0.578125,0.984375
377,0.0036621094,-0.9968872,0.2501831,0.59375,-0.46875,0.671875
378,0.016357422,-0.9976196,0.23284912,-2.015625,1.9375,-0.375
379,0.033935547,-0.98883057,0.2501831,-4.703125,4.359375,-2.46875
380,-0.0087890625,-0.9678345,0.26141357,-4.109375,2.71875,-0.109375
381,-0.0041503906,-0.97906494,0.27850342,-1.09375,2.0625,0.875
382,0.0063476562,-0.9846802,0.27313232,-1.203125,-1.109375,0.15625
383,0.02319336,-0.98272705,0.2609253,-0.21875,-1.65625,1.1875
384,0.0009765625,-0.98760986,0.27044678,1.28125,-0.640625,1.09375
385,0.011474609,-0.9741821,0.2609253,1.5625,-1.34375,0.640625
386,0.017578125,-0.9866333,0.26409912,0.203125,-0.671875,0.671875
387,0.006591797,-0.97906494,0.25897217,0.78125,-1.03125,0.734375
388,0.0146484375,-0.99102783,0.26654053,0.65625,-1.8125,0.40625
389,0.011474609,-0.9898071,0.26385498,1.109375,-1.265625,0.5625
390,0.016601562,-0.9793091,0.24749756,0.484375,1.046875,0.453125
391,0.025390625,-0.97247314,0.2579956,-1.09375,0.84375,1.1875
392,0.014404297,-0.9924927,0.27093506,-0.15625,0.296875,1.515625
393,0.0063476562,-1.0137329,0.28460693,1.65625,-2.0,2.140625
394,0.012939453,-0.95880127,0.2514038,0.0,-1.234375,1.28125
395,0.01586914,-0.987854,0.260437,-0.671875,-2.28125,1.015625
396,0.010253906,-0.9871216,0.2662964,0.53125,-1.734375,2.3125
397,0.01928711,-0.9812622,0.24310303,1.125,-2.453125,1.21875
398,-0.013671875,-1.005188,0.27459717,1.875,-0.296875,1.953125
399,0.0031738281,-0.99420166,0.2489624,0.703125,0.21875,2.0625
400,0.0073242188,-0.9741821,0.25823975,3.1875,0.484375,0.6875
401,0.016845703,-0.9812622,0.27703857,5.203125,-2.03125,2.171875
402,0.029785156,-1.0095825,0.23358154,4.609375,-2.203125,4.109375
403,0.064941406,-0.960022,0.246521,2.1875,2.515625,1.328125
404,-0.032226562,-1.0130005,0.2662964,4.015625,-2.171875,2.984375
405,0.041015625,-0.97052,0.21307373,3.59375,-5.390625,3.46875
406,0.0126953125,-0.987854,0.21917725,2.140625,-0.03125,0.203125
407,0.029052734,-0.9805298,0.24676514,0.34375,0.171875,-0.359375
408,0.06201172,-0.97735596,0.2074585,-1.71875,-1.578125,0.375
409,0.02709961,-1.0134888,0.24749756,1.875,-0.5625,1.390625
410,0.012451172,-0.9780884,0.24163818,1.90625,-2.734375,1.484375
411,0.0126953125,-0.98443604,0.24041748,0.9375,-2.921875,2.375
412,0.041015625,-0.9951782,0.21453857,-1.75,-1.765625,0.046875
413,0.012207031,-0.9949341,0.23529053,0.984375,-0.890625,1.234375
414,0.025390625,-0.9866333,0.23236084,0.515625,0.171875,0.6875
415,0.025390625,-0.9890747,0.23309326,0.0625,-2.578125,1.265625
416,0.018066406,-0.98516846,0.23406982,-1.328125,-0.234375,0.921875
417,0.0053710938,-1.0022583,0.2506714,-0.75,-0.0625,1.03125
418,0.026855469,-0.9788208,0.22943115,0.109375,-0.421875,0.96875
419,0.03173828,-0.9729614,0.22894287,0.171875,0.734375,0.59375
420,0.017822266,-0.99713135,0.23675537,0.578125,-0.640625,0.234375
421,0.029296875,-0.9951782,0.24456787,0.734375,-0.109375,0.25
422,0.030517578,-0.98638916,0.24041748,1.125,-0.140625,0.34375
423,0.030517578,-0.98028564,0.22894287,0.40625,-0.140625,0.734375
424,0.007080078,-0.9998169,0.24261475,0.796875,0.390625,0.859375
425,0.034179688,-0.9710083,0.23309326,-0.6875,1.015625,0.25
426,0.025878906,-0.99420166,0.24627686,0.234375,-0.734375,-0.078125
427,0.021728516,-0.9944458,0.23919678,-2.734375,1.390625,-1.1875
428,0.0029296875,-0.9920044,0.24554443,-2.71875,4.984375,-2.296875
429,0.007080078,-0.975647,0.26483154,0.0625,0.203125,0.046875
430,0.020996094,-0.9898071,0.25653076,1.875,-2.90625,1.125
431,0.017578125,-0.986145,0.23382568,0.375,-0.375,0.765625
432,0.013916016,-0.98394775,0.23846436,0.46875,-0.078125,0.859375
433,0.013916016,-0.99835205,0.2584839,0.171875,-0.6875,0.640625
434,0.018066406,-0.9783325,0.24285889,0.453125,-0.96875,0.890625
435,0.0048828125,-0.9800415,0.24822998,0.375,-0.640625,0.71875
436,0.0087890625,-0.989563,0.24749756,0.296875,-0.53125,1.1875
437,0.029785156,-0.99420166,0.24578857,0.953125,-0.109375,1.109375
438,0.01171875,-0.987854,0.23016357,0.515625,-0.078125,1.03125
439,0.01586914,-0.98394775,0.23431396,0.953125,0.859375,0.9375
440,0.006591797,-0.97662354,0.25994873,0.140625,1.390625,0.71875
441,0.036865234,-0.9956665,0.23699951,-0.765625,-1.25,0.6875
442,0.012451172,-0.987854,0.25701904,0.734375,-0.515625,0.546875
443,0.0061035156,-0.9944458,0.23480225,1.234375,0.546875,1.125
444,0.021972656,-0.975647,0.24871826,0.421875,0.09375,0.828125
445,0.008544922,-0.99102783,0.24969482,0.984375,-0.515625,1.21875
446,0.025390625,-0.9800415,0.23846436,1.28125,-0.421875,1.171875
447,0.027832031,-0.9949341,0.23504639,2.21875,-0.796875,2.1875
448,-0.00390625,-0.9927368,0.24163818,1.65625,-0.1875,1.46875
449,0.043945312,-0.972229,0.2387085,2.046875,0.71875,0.796875
450,0.011962891,-0.9871216,0.23284912,-0.984375,-1.734375,0.921875
451,0.013183594,-1.0142212,0.2387085,0.984375,-0.609375,1.28125
452,0.036621094,-0.9837036,0.2526245,0.109375,0.5,1.140625
453,-0.0053710938,-0.9807739,0.24041748,-0.1875,-1.953125,1.203125
454,0.032714844,-0.9951782,0.23406982,-0.421875,-0.90625,1.1875
455,0.01977539,-0.98931885,0.2374878,1.921875,-0.375,1.203125
456,0.03125,-0.9829712,0.22991943,-0.75,-0.234375,0.03125
457,0.0061035156,-0.99102783,0.25628662,-0.25,-0.140625,1.25
458,0.01928711,-0.99468994,0.21429443,-0.421875,-0.5,0.78125
459,0.041015625,-0.97491455,0.24066162,0.46875,-0.5,1.0625
460,0.0078125,-1.003479,0.2453003,0.125,-0.421875,0.609375
461,0.011474609,-0.98883057,0.23773193,0.40625,-0.34375,0.71875
462,0.017578125,-0.9841919,0.24163818,0.65625,0.421875,0.515625
463,0.013916016,-0.98321533,0.23358154,1.375,1.203125,0.5625
464,0.022705078,-0.99102783,0.24627686,0.296875,1.296875,0.375
465,0.030029297,-0.9927368,0.23822021,-0.03125,-0.3125,0.546875
466,0.014404297,-0.9907837,0.24798584,0.125,-0.0625,0.328125
467,0.01586914,-0.989563,0.23309326,-0.234375,1.421875,0.421875
468,0.028808594,-0.9849243,0.2387085,-0.65625,1.609375,0.1875
469,0.010253906,-0.987854,0.25042725,1.90625,1.546875,0.765625
470,0.010009766,-0.9807739,0.2501831,2.0625,-0.84375,1.9375
471,0.049804688,-0.98760986,0.22259521,-1.0625,-1.09375,-0.203125
472,0.0078125,-0.99420166,0.24456787,1.46875,-0.171875,1.21875
473,0.025390625,-0.98883057,0.23675537,1.359375,0.84375,0.640625
474,0.03149414,-0.98760986,0.21820068,-1.875,1.671875,0.265625
475,0.056640625,-0.9690552,0.2567749,-2.5625,5.390625,-0.453125
476,0.0031738281,-0.97540283,0.2592163,1.984375,-2.359375,1.90625
477,-0.001953125,-1.0444946,0.2477417,0.96875,-3.3125,1.75
478,0.032226562,-0.9656372,0.21551514,-0.46875,0.53125,0.9375
479,0.017578125,-0.97198486,0.24481201,-0.21875,0.3125,-0.0625
480,0.014160156,-0.99591064,0.24285889,-0.75,0.15625,1.046875
481,0.018798828,-0.9898071,0.23651123,1.125,1.09375,0.6875
482,0.015625,-0.9788208,0.24285889,0.078125,0.921875,1.25
483,0.026855469,-1.0056763,0.24969482,0.84375,-0.09375,1.234375
484,0.0063476562,-0.9578247,0.21624756,-0.28125,-2.765625,0.859375
485,0.036132812,-1.0120239,0.24456787,1.828125,0.421875,0.234375
486,0.03540039,-0.9883423,0.23358154,-1.0625,-0.25,0.359375
487,0.018066406,-0.9619751,0.23699951,-1.203125,2.703125,-0.390625
488,-0.010986328,-1.0112915,0.26727295,-0.203125,0.625,1.8125
489,0.02734375,-0.9673462,0.25213623,-0.046875,-3.3125,0.765625
490,0.03564453,-0.9998169,0.24871826,-0.125,-2.03125,0.8125
491,0.0034179688,-0.9939575,0.21917725,-0.234375,-1.1875,-0.859375
492,0.025634766,-0.9859009,0.22479248,-1.234375,-0.640625,-0.296875
493,0.013671875,-0.9898071,0.24383545,0.6875,0.328125,0.515625
494,0.024658203,-0.99005127,0.25628662,-0.4375,0.75,0.828125
495,0.018066406,-0.9859009,0.2514038,-0.3125,0.9375,0.5
496,0.021728516,-0.972229,0.24505615,0.296875,0.25,0.75
497,0.009033203,-0.98272705,0.27435303,4.03125,-5.109375,3.09375
498,0.028076172,-0.9924927,0.2597046,4.390625,-2.875,2.0
499,0.00024414062,-0.99468994,0.17816162,1.515625,-0.859375,1.46875
500,0.0390625,-0.9883423,0.23919678,3.90625,4.78125,0.953125
501,0.0026855469,-0.98394775,0.22357178,3.28125,-0.875,2.03125
502,0.020263672,-0.9817505,0.21282959,0.71875,1.1875,1.8125
503,0.029296875,-0.98272705,0.23382568,0.28125,2.34375,2.078125
504,0.024169922,-0.9932251,0.20379639,0.671875,1.4375,1.6875
505,0.029296875,-0.98272705,0.22796631,1.3125,1.25,1.515625
506,0.052978516,-0.9951782,0.21942139,-0.375,4.25,0.921875
507,0.021240234,-0.98883057,0.23114014,1.703125,1.578125,0.0625
508,0.006591797,-1.0010376,0.21038818,-1.78125,-1.421875,1.75
509,0.03491211,-0.9788208,0.25457764,-0.8125,-0.609375,1.65625
510,0.05053711,-0.986145,0.24481201,-0.015625,-1.640625,1.515625
511,0.033447266,-0.99957275,0.22259521,-0.34375,-3.09375,0.625
512,0.026611328,-0.9841919,0.22845459,1.015625,-1.234375,0.390625
513,0.02319336,-0.9817505,0.23406982,-0.59375,-1.09375,0.015625
514,0.028076172,-0.991272,0.22894287,0.453125,-2.421875,0.703125
515,0.03881836,-0.9714966,0.2321167,-0.171875,-0.828125,0.28125
516,0.021972656,-0.99298096,0.23846436,0.484375,-1.578125,0.21875
517,0.017822266,-0.9944458,0.2333374,-0.8125,-1.828125,0.4375
518,0.02709961,-0.9883423,0.23895264,0.234375,-0.03125,0.3125
519,0.030517578,-0.97125244,0.2255249,-0.0625,-1.609375,0.078125
520,0.014160156,-0.9961548,0.24041748,0.828125,-0.65625,0.984375
521,0.03466797,-0.9990845,0.23699951,-0.453125,-0.625,0.3125
522,0.017822266,-0.98516846,0.2345581,0.328125,-0.703125,0.40625
523,0.020263672,-0.98150635,0.24359131,0.0,0.046875,0.328125
524,0.01977539,-0.9871216,0.24920654,0.046875,-0.828125,1.03125
525,0.027832031,-0.9824829,0.23382568,0.390625,-0.796875,0.34375
526,0.024169922,-0.9985962,0.2321167,0.78125,-0.140625,0.8125
527,0.021972656,-0.9902954,0.23284912,0.546875,-0.625,0.671875
528,0.020263672,-0.98394775,0.23919678,0.890625,0.484375,0.734375
529,0.009277344,-0.98638916,0.23602295,0.296875,0.578125,1.203125
530,0.045410156,-0.9612427,0.23260498,-0.625,0.71875,-0.015625
531,0.011230469,-1.0046997,0.25115967,0.5,-1.40625,1.421875
532,0.038085938,-0.98565674,0.21575928,-1.984375,-0.0625,-0.296875
533,0.0017089844,-0.9920044,0.2506714,0.109375,1.640625,0.0625
534,0.0056152344,-0.97735596,0.2645874,0.03125,-0.765625,0.046875
535,0.026611328,-0.9800415,0.2333374,0.15625,-0.28125,0.546875
536,0.013427734,-0.99884033,0.24359131,-0.359375,-0.328125,0.125
537,0.020751953,-0.99713135,0.24407959,0.75,-0.859375,0.6875
538,0.024414062,-0.9741821,0.2333374,0.390625,-0.90625,0.890625
539,0.0073242188,-0.9824829,0.24456787,0.03125,-0.703125,0.28125
540,0.020507812,-0.9883423,0.25360107,0.203125,-0.296875,1.03125
541,0.01928711,-0.9915161,0.2477417,0.484375,-0.875,0.796875
542,0.015380859,-0.9873657,0.2374878,0.34375,-0.546875,0.859375
543,0.0087890625,-0.9885864,0.24139404,0.328125,-0.109375,0.921875
544,0.011230469,-0.9846802,0.2501831,1.015625,-1.109375,1.15625
545,0.01953125,-0.9717407,0.24505615,0.5625,0.1875,1.078125
546,0.010009766,-0.987854,0.24139404,1.1875,-0.796875,1.46875
547,0.028076172,-0.9714966,0.2296753,-2.625,0.515625,-0.25
548,0.010498047,-0.9998169,0.26507568,1.0625,-0.328125,1.078125
549,0.013671875,-0.956604,0.23846436,-0.078125,-0.234375,0.46875
550,0.017578125,-0.9859009,0.24481201,-0.015625,-0.09375,1.0
551,0.026123047,-0.9817505,0.24676514,0.703125,-0.375,1.125
552,0.018310547,-0.9939575,0.25701904,0.234375,-0.515625,0.265625
553,0.009521484,-0.98565674,0.23919678,0.421875,-1.765625,0.78125
554,0.0234375,-0.98638916,0.23529053,1.3125,0.796875,1.59375
555,0.016601562,-0.986145,0.25042725,0.703125,0.921875,1.234375
556,0.03491211,-0.98931885,0.23626709,0.140625,-0.125,1.546875
557,0.032958984,-0.98565674,0.23040771,-0.84375,-0.671875,0.765625
558,0.0146484375,-0.9956665,0.2506714,-0.859375,0.421875,0.1875
559,-0.0012207031,-0.9824829,0.24676514,-0.390625,0.703125,0.96875
560,0.036621094,-0.9949341,0.2506714,0.546875,1.0625,0.75
561,-0.0007324219,-0.9866333,0.2592163,1.140625,-0.671875,1.15625
562,0.02368164,-0.9768677,0.23260498,-0.96875,-1.8125,0.96875
563,0.041259766,-1.0064087,0.24627686,1.359375,0.265625,1.46875
564,0.010498047,-0.98101807,0.23529053,0.125,0.421875,0.640625
565,0.024658203,-0.98760986,0.24676514,0.3125,-0.375,1.5
566,0.040039062,-0.9973755,0.23553467,-0.125,0.15625,1.375
567,0.020263672,-0.9871216,0.2411499,1.53125,0.03125,1.09375
568,0.032958984,-0.9771118,0.24945068,1.0,-0.078125,1.515625
569,0.043701172,-0.9649048,0.22918701,0.515625,-0.578125,1.421875
570,0.015625,-0.9973755,0.2489624,1.34375,-0.5,1.15625
571,0.01171875,-0.99176025,0.24334717,1.671875,-2.703125,1.21875
572,0.041992188,-0.97857666,0.23309326,1.4375,-2.5625,1.15625
573,0.020996094,-0.9890747,0.23358154,3.0,-2.921875,0.609375
574,0.009033203,-0.9915161,0.26361084,2.296875,-2.640625,-0.078125
575,0.029296875,-0.97320557,0.23236084,0.203125,0.5,0.046875
576,0.009521484,-1.0083618,0.22113037,0.015625,-0.25,0.3125
577,0.0107421875,-0.9817505,0.24700928,-0.796875,-0.171875,-0.296875
578,0.0146484375,-0.987854,0.2501831,-0.234375,1.671875,0.796875
579,0.025634766,-0.975647,0.24749756,-0.84375,-0.859375,-0.140625
580,0.017333984,-0.9885864,0.23846436,1.28125,-1.0,-0.765625
581,0.01977539,-0.9937134,0.24725342,1.90625,0.578125,-0.109375
582,0.030273438,-0.9924927,0.23724365,0.5625,-1.015625,1.3125
583,0.017822266,-0.973938,0.24285889,0.5,-1.203125,1.3125
584,-0.005859375,-1.0073853,0.2506714,0.96875,-0.390625,1.265625
585,0.017333984,-0.9758911,0.24285889,-0.140625,-1.046875,1.4375
586,0.025634766,-0.991272,0.25335693,1.25,0.21875,0.140625
587,-0.0007324219,-0.9937134,0.24285889,-1.34375,0.328125,0.09375
588,-0.0007324219,-0.99884033,0.25872803,-0.328125,-1.796875,-0.125
589,0.0041503906,-0.9866333,0.23577881,-1.5,-0.78125,0.671875
590,0.040039062,-0.97003174,0.24285889,-2.828125,0.25,-1.03125
591,-0.0026855469,-1.0010376,0.26190186,-1.03125,-1.65625,0.0
592,-0.026855469,-0.99884033,0.24407959,0.375,0.265625,-0.375
593,0.026611328,-0.9741821,0.2374878,-0.875,1.125,0.1875
594,0.029296875,-0.98272705,0.25482178,-0.6875,0.328125,-0.0625
595,-0.017089844,-0.9902954,0.26287842,2.96875,-1.046875,1.609375
596,0.0041503906,-0.98321533,0.23577881,3.171875,0.0,2.890625
597,0.020751953,-1.003479,0.21063232,-0.8125,7.8125,4.453125
598,0.039794922,-0.97906494,0.23846436,0.375,4.25,0.140625
599,0.0063476562,-0.99468994,0.24627686,3.125,-0.28125,1.421875
600,-0.0036621094,-0.97662354,0.23065186,3.75,2.3125,1.71875
601,0.020996094,-0.97540283,0.24188232,1.265625,4.890625,0.765625
602,0.048583984,-0.9800415,0.23431396,0.9375,1.484375,0.90625
603,0.024414062,-0.9885864,0.23260498,0.734375,0.28125,0.609375
604,0.017333984,-0.98809814,0.22747803,1.46875,-1.375,1.140625
605,0.033447266,-0.9807739,0.22528076,1.5625,1.0,1.171875
606,0.029296875,-0.975647,0.22625732,-2.390625,-0.9375,0.09375
607,0.006591797,-0.99664307,0.24847412,2.296875,-0.71875,2.046875
608,0.013671875,-0.9981079,0.24578857,0.96875,0.390625,1.484375
609,0.020996094,-0.991272,0.24017334,0.828125,-2.59375,0.40625
610,0.032226562,-0.9963989,0.22137451,-1.171875,0.015625,1.265625
611,0.022460938,-1.0066528,0.24847412,0.75,-0.578125,0.0
612,0.029541016,-1.0027466,0.22894287,0.15625,-1.390625,0.921875
613,0.02709961,-0.9673462,0.21820068,1.03125,0.015625,0.453125
614,0.011474609,-0.9771118,0.22650146,-0.6875,-0.390625,0.296875
615,0.005859375,-1.0083618,0.24432373,-0.140625,-0.734375,1.125
616,0.034423828,-0.99005127,0.23114014,-0.171875,-0.515625,0.625
617,0.017578125,-0.9883423,0.22796631,0.609375,-0.15625,0.453125
618,0.0107421875,-0.9837036,0.2321167,1.171875,1.0,0.8125
619,0.033935547,-0.98321533,0.2423706,-0.375,-0.828125,0.5625
620,0.0,-0.9859009,0.23431396,-0.390625,-1.765625,0.734375
621,0.022216797,-0.99884033,0.2230835,-2.109375,0.765625,-0.359375
622,0.012207031,-0.98101807,0.2506714,0.859375,-0.96875,1.90625
623,0.011962891,-0.98638916,0.24188232,1.140625,-0.234375,1.3125
624,0.028076172,-1.0029907,0.23651123,0.6875,-1.28125,1.328125
625,0.020751953,-0.99591064,0.22332764,0.46875,-1.375,0.25
626,0.03466797,-0.9937134,0.23187256,1.0625,-0.546875,0.859375
627,0.01977539,-0.97784424,0.23138428,0.96875,0.3125,0.8125
628,0.018798828,-0.9553833,0.24432373,0.59375,1.140625,1.296875
629,0.035888672,-1.0044556,0.23968506,2.25,-2.484375,2.515625
630,0.024658203,-1.0112915,0.24383545,0.484375,-3.015625,1.359375
631,0.018066406,-0.98272705,0.21844482,1.453125,-0.328125,1.078125
632,0.021240234,-0.98272705,0.2255249,2.375,1.65625,1.3125
633,0.025390625,-0.9939575,0.22406006,1.546875,-0.828125,1.265625
634,0.021728516,-0.98638916,0.22821045,-1.015625,2.1875,-0.078125
635,0.028564453,-0.98809814,0.20843506,0.609375,1.5625,0.984375
636,0.030273438,-0.9763794,0.24456787,-0.90625,1.6875,0.5625
637,0.017822266,-1.0220337,0.2453003,-0.609375,-1.03125,0.53125
638,0.0078125,-0.9776001,0.21966553,-0.15625,-0.734375,-0.875
639,0.018310547,-0.98101807,0.2255249,1.03125,0.359375,0.671875
640,0.041992188,-0.99713135,0.23577881,-0.125,-0.03125,0.671875
641,0.012451172,-0.99786377,0.22698975,0.46875,0.484375,-0.09375
642,0.01953125,-0.99102783,0.23040771,0.046875,-0.15625,0.265625
643,0.03491211,-0.9883423,0.23577881,-0.5625,0.015625,0.203125
644,0.0126953125,-0.98101807,0.24017334,-0.8125,-0.4375,0.140625
645,0.020019531,-0.99420166,0.2267456,-0.78125,-1.21875,0.390625
646,0.021728516,-0.9849243,0.22918701,-0.75,-1.5625,0.046875
647,0.0036621094,-0.991272,0.24603271,0.90625,0.296875,1.03125
648,0.03466797,-0.99346924,0.2411499,-0.703125,1.421875,0.65625
649,0.011230469,-0.97442627,0.24163818,1.34375,-1.46875,0.859375
650,0.01928711,-1.0022583,0.23919678,-1.53125,-2.40625,-0.8125
651,0.005859375,-0.9956665,0.2526245,0.796875,-0.375,1.40625
652,0.022460938,-0.97979736,0.2218628,-0.0625,-1.59375,0.265625
653,0.009765625,-0.98272705,0.22650146,0.296875,-1.421875,0.484375
654,0.010009766,-0.9998169,0.23699951,0.109375,0.0625,1.28125
655,0.021240234,-0.98394775,0.23529053,0.046875,0.109375,0.59375
656,0.012939453,-0.98687744,0.23822021,-0.546875,0.546875,0.71875
657,0.0061035156,-0.9849243,0.23626709,0.28125,-0.015625,1.203125
658,0.008544922,-0.9920044,0.2506714,0.546875,-0.734375,0.921875
659,0.01977539,-0.99346924,0.23675537,0.859375,0.171875,1.046875
660,0.017822266,-0.9854126,0.23236084,1.0625,0.609375,0.921875
661,0.004638672,-0.989563,0.24261475,0.0625,0.390625,0.875
662,0.011962891,-0.9783325,0.24188232,-0.390625,2.328125,0.71875
663,0.030029297,-0.9805298,0.2423706,-0.25,0.4375,0.75
664,-0.0107421875,-0.99468994,0.2592163,0.953125,-2.109375,1.421875
665,0.035888672,-0.9990845,0.2164917,-1.5625,-1.125,-0.453125
666,0.006591797,-0.991272,0.24407959,1.375,0.203125,0.984375
667,0.0053710938,-0.96661377,0.23406982,0.5,-0.859375,0.5
668,0.028320312,-0.9846802,0.23382568,-0.75,-1.796875,1.125
669,0.009277344,-1.0137329,0.2477417,-0.0625,1.140625,1.15625
670,0.0126953125,-0.97906494,0.23504639,0.828125,1.328125,0.25
671,0.012207031,-0.9873657,0.24285889,1.1875,-0.03125,1.640625
672,0.013183594,-0.98028564,0.24041748,0.515625,-0.375,1.0625
673,0.01953125,-0.9963989,0.24334717,0.515625,0.453125,1.015625
674,0.0126953125,-0.9846802,0.23797607,0.1875,-0.734375,1.3125
675,0.02368164,-0.99664307,0.24261475,0.984375,-0.359375,1.375
676,0.0048828125,-0.9871216,0.24090576,0.71875,-0.84375,0.5625
677,0.010009766,-0.98443604,0.2411499,0.515625,0.421875,0.75
678,0.027832031,-0.97979736,0.23284912,-0.796875,0.09375,0.40625
679,0.009033203,-0.9993286,0.2526245,1.0625,-0.796875,1.421875
680,0.016601562,-0.987854,0.22454834,-1.984375,1.421875,-0.4375
681,0.010253906,-0.9939575,0.260437,1.109375,-0.25,0.84375
682,0.012451172,-0.97247314,0.2477417,-0.34375,0.015625,0.640625
683,0.016113281,-0.99298096,0.23895264,-0.234375,0.109375,0.625
684,0.026367188,-0.9976196,0.24603271,-0.46875,-0.21875,0.46875
685,0.009033203,-0.9885864,0.24285889,0.09375,0.28125,0.328125
686,0.017578125,-0.97979736,0.2374878,-0.046875,-0.21875,0.375
687,0.020751953,-0.98272705,0.24383545,-0.21875,0.0625,0.234375
688,0.0043945312,-0.98760986,0.24945068,0.078125,0.109375,0.46875
689,0.006591797,-0.99420166,0.22918701,-0.484375,0.328125,0.5
690,0.018066406,-0.97613525,0.25286865,-0.1875,1.515625,1.0625
691,-0.0017089844,-0.9883423,0.2616577,1.15625,-0.21875,1.859375
692,0.010498047,-0.9973755,0.24310303,0.765625,-1.671875,0.859375
693,0.034423828,-0.98028564,0.22918701,-0.78125,-0.359375,-0.296875
694,-0.0061035156,-0.99542236,0.24041748,1.25,0.578125,1.28125
695,0.024169922,-0.9939575,0.23236084,-4.265625,1.09375,-0.78125
696,-0.0087890625,-0.9788208,0.27044678,0.71875,-0.390625,0.671875
697,0.016357422,-0.9883423,0.246521,0.25,-0.421875,1.203125
698,0.011474609,-0.9871216,0.2477417,1.6875,-0.578125,1.671875
699,-0.0007324219,-0.99468994,0.25579834,0.359375,1.296875,0.578125
700,0.00390625,-0.9859009,0.23431396,-0.671875,1.0,-0.015625
701,0.024902344,-0.97052,0.25750732,-0.390625,1.5625,0.390625
702,0.0234375,-0.98687744,0.2411499,-0.546875,-1.296875,0.703125
703,-0.0009765625,-1.0020142,0.24676514,0.5625,-1.390625,0.5625
704,0.00048828125,-0.9829712,0.25750732,0.53125,-0.953125,0.140625
705,0.013183594,-0.97442627,0.24676514,1.546875,-0.734375,0.859375
706,0.0034179688,-0.99346924,0.25506592,1.609375,-0.375,1.4375
707,0.025390625,-0.9793091,0.2387085,0.34375,0.21875,0.671875
708,0.020263672,-0.99102783,0.22235107,0.0625,0.140625,0.359375
709,0.013671875,-0.98883057,0.25164795,6.03125,1.609375,0.65625
710,-0.008056641,-0.9795532,0.2880249,-2.703125,1.296875,-1.296875
711,0.0007324219,-0.97369385,0.28704834,-2.578125,-1.328125,0.265625
712,0.03100586,-0.9690552,0.22259521,-4.234375,-0.71875,-1.171875
713,-0.009277344,-0.9780884,0.23358154,-6.171875,-0.765625,-1.75
714,0.026123047,-1.00177,0.26287842,-3.703125,1.4375,-0.34375
715,-0.007080078,-0.9963989,0.28631592,0.984375,2.234375,0.40625
716,-0.015625,-0.96759033,0.27703857,0.96875,0.203125,0.9375
717,-0.001953125,-0.9751587,0.25872803,0.984375,1.984375,1.453125
718,0.009033203,-0.96539307,0.2699585,1.734375,2.5,1.53125
719,0.025390625,-0.99005127,0.26922607,0.5625,0.28125,1.421875
720,-0.0017089844,-1.0078735,0.2675171,1.6875,0.328125,0.46875
721,-0.009521484,-0.9771118,0.2748413,0.375,1.4375,0.375
722,0.029541016,-0.96661377,0.2687378,1.71875,0.171875,2.15625
723,0.008056641,-1.0061646,0.25360107,1.34375,0.828125,1.5
724,-0.005126953,-0.9590454,0.2772827,2.203125,1.21875,1.375
725,0.037597656,-0.99542236,0.2531128,-2.765625,1.3125,0.28125
726,0.004638672,-0.98638916,0.2814331,0.5625,-0.3125,1.1875
727,-0.0068359375,-0.9812622,0.26239014,-0.484375,0.40625,0.984375
728,0.005859375,-0.9741821,0.2633667,-0.328125,-1.734375,0.9375
729,0.014892578,-0.9829712,0.26922607,-0.171875,-1.390625,1.15625
730,0.012939453,-1.0076294,0.2658081,0.171875,-0.71875,1.125
731,0.0107421875,-0.991272,0.26507568,0.984375,-0.03125,0.421875
732,-0.010498047,-0.9685669,0.25726318,-0.328125,-0.015625,0.34375
733,0.0024414062,-0.9898071,0.276062,0.40625,-0.40625,1.375
734,0.029541016,-0.9973755,0.26434326,0.515625,-0.9375,0.953125
735,0.014892578,-0.98565674,0.25238037,0.03125,-0.96875,0.40625
736,-0.0007324219,-0.9866333,0.26116943,0.15625,0.515625,0.4375
737,0.0024414062,-1.0007935,0.27459717,-0.28125,1.671875,-0.40625
738,0.027832031,-0.96295166,0.26507568,1.203125,3.140625,-1.046875
739,0.021972656,-0.95562744,0.277771,5.046875,2.1875,1.359375
740,-0.009521484,-1.0076294,0.24090576,0.984375,-1.34375,0.5
741,-0.013916016,-0.9898071,0.26361084,2.3125,-1.125,2.234375
742,0.006591797,-0.9751587,0.26483154,1.953125,-2.09375,2.96875
743,0.03540039,-0.9746704,0.2267456,3.28125,-3.03125,2.734375
744,-0.010498047,-1.0081177,0.2477417,2.484375,-2.09375,2.28125
745,0.010009766,-1.0132446,0.24407959,3.15625,-1.5625,1.546875
746,0.028320312,-0.97540283,0.24066162,4.984375,0.15625,1.40625
747,0.030029297,-0.98883057,0.23382568,-0.359375,4.1875,-0.078125
748,0.013427734,-1.0095825,0.24920654,3.15625,5.375,-0.953125
749,-0.025146484,-0.97540283,0.2526245,5.984375,0.1875,1.578125
750,0.010253906,-0.9680786,0.25335693,2.859375,-0.953125,2.5
751,0.013427734,-0.987854,0.20037842,1.75,-1.140625,0.90625
752,0.0026855469,-0.9758911,0.2218628,2.234375,0.359375,1.171875
753,0.032226562,-0.9824829,0.19354248,-0.0625,-2.09375,1.59375
754,0.010253906,-1.0037231,0.2567749,3.453125,-0.390625,1.78125
755,-0.001953125,-0.9937134,0.22406006,-1.109375,-1.90625,0.296875
756,0.0068359375,-1.0010376,0.2267456,0.890625,-2.15625,1.953125
757,0.052734375,-0.98223877,0.22210693,-0.25,-0.0625,1.109375
758,0.013916016,-0.99346924,0.21600342,-1.140625,-1.125,0.53125
759,0.0043945312,-0.9949341,0.22576904,-1.109375,1.15625,0.984375
