sample_no,accel_x,accel_y,accel_z,gyro_x,gyro_y,gyro_z
0,0.49975586,-0.062072754,0.7506714,2.125,-1.421875,1.484375
1,0.53515625,0.00091552734,0.7687378,9.234375,1.84375,3.234375
2,0.7922363,-0.15875244,0.8439331,6.40625,5.203125,-1.953125
3,0.6586914,-0.12945557,0.78411865,-0.296875,-0.296875,3.296875
4,0.6164551,-0.11480713,0.7526245,-3.28125,-0.3125,-1.390625
5,0.85424805,0.0119018555,0.7304077,-13.953125,4.59375,-1.59375
6,0.56469727,-0.093566895,0.8016968,-0.5625,-3.171875,0.3125
7,0.64038086,-0.028137207,0.7850952,1.328125,0.53125,-2.671875
8,0.71484375,-0.035705566,0.7670288,-1.765625,1.859375,0.703125
9,0.8083496,0.02557373,0.7091675,-2.25,2.4375,10.453125
10,0.8535156,-0.09576416,0.74383545,-9.671875,4.328125,-0.734375
11,0.6516113,-0.08746338,0.7543335,0.09375,-4.71875,2.171875
12,0.6088867,-0.09161377,0.71209717,1.34375,-5.171875,-0.171875
13,0.7043457,-0.11627197,0.7079468,-0.734375,-1.0,-1.78125
14,0.73291016,-0.101623535,0.7670288,-3.375,0.359375,-2.265625
15,0.69873047,-0.1609497,0.74798584,-6.703125,-4.015625,3.1875
16,0.74853516,-0.101623535,0.8529663,-7.984375,4.21875,3.0
17,0.55859375,-0.09503174,0.7379761,-11.078125,-5.0625,3.875
18,0.47143555,-0.016174316,0.6725464,2.265625,-1.734375,-2.671875
19,0.6789551,-0.023498535,0.6845093,1.390625,10.5625,-3.96875
20,0.84375,-0.08306885,0.730896,-0.453125,10.125,-0.953125
21,0.7597656,-0.09698486,0.6820679,-1.890625,4.546875,-0.859375
22,0.71875,-0.108947754,0.67889404,5.328125,6.59375,-6.609375
23,0.7380371,-0.1026001,0.7316284,-2.3125,2.765625,-3.015625
24,0.72875977,-0.105041504,0.7079468,-6.46875,5.71875,0.203125
25,0.7531738,-0.12921143,0.680603,-1.9375,2.359375,-3.25
26,0.8286133,-0.077941895,0.6769409,2.1875,2.0625,3.5625
27,0.810791,-0.06768799,0.7081909,1.875,3.0625,5.9375
28,0.7121582,-0.07574463,0.7296753,2.890625,-2.84375,4.25
29,0.6999512,-0.06500244,0.6786499,1.0625,-1.703125,3.625
30,0.7385254,-0.113342285,0.70648193,-3.609375,3.21875,2.703125
31,0.7050781,-0.09844971,0.6461792,-0.25,1.296875,1.71875
32,0.83691406,0.03387451,0.68621826,-6.0,2.5,-0.375
33,0.70288086,-0.033996582,0.701355,0.4375,-2.671875,7.59375
34,0.6906738,-0.082092285,0.7457886,-1.03125,-3.484375,2.6875
35,0.72558594,-0.07232666,0.69085693,2.0,-2.9375,-0.984375
36,0.7988281,-0.11846924,0.61761475,-4.234375,6.859375,-1.421875
37,0.8845215,-0.003479004,0.7145386,3.40625,-1.6875,4.625
38,0.6530762,-0.07550049,0.7003784,5.703125,-6.734375,5.34375
39,0.6340332,-0.08258057,0.7189331,5.234375,-10.4375,-0.65625
40,0.6623535,-0.09503174,0.7650757,5.28125,-9.3125,-4.421875
41,0.68188477,-0.09869385,0.7926636,-4.359375,-10.109375,-3.234375
42,0.6447754,-0.04840088,0.69329834,-6.390625,-5.09375,-0.0625
43,0.6687012,-0.06329346,0.7645874,-6.6875,3.75,0.921875
44,0.72558594,-0.066711426,0.7821655,-6.484375,-0.859375,0.4375
45,0.68408203,-0.05279541,0.69281006,1.640625,-3.1875,-1.421875
46,0.7807617,-0.023986816,0.68377686,14.59375,7.203125,-5.3125
47,0.8286133,-0.039123535,0.5934448,-0.359375,7.9375,-0.703125
48,0.87158203,0.022644043,0.69036865,-3.15625,5.6875,4.859375
49,0.6503906,-0.121154785,0.73553467,2.328125,-4.796875,5.296875
50,0.60839844,-0.15753174,0.7387085,-0.21875,-0.671875,-0.078125
51,0.69189453,-0.07867432,0.6935425,3.5625,-6.5625,-2.984375
52,0.7392578,-0.08843994,0.7081909,1.109375,-2.734375,2.421875
53,0.7001953,-0.062072754,0.7496948,2.890625,-2.5,-1.375
54,0.7229004,-0.08258057,0.7321167,5.125,-1.484375,0.46875
55,0.6862793,-0.09185791,0.668396,3.140625,0.84375,0.359375
56,0.85058594,-0.04107666,0.71136475,-6.53125,5.0625,1.078125
57,0.6777344,-0.11505127,0.7367554,-3.125,-2.078125,2.78125
58,0.66259766,-0.07672119,0.680603,2.109375,-2.578125,0.3125
59,0.6425781,-0.094055176,0.67181396,3.015625,-2.671875,-1.09375
60,0.78686523,-0.12506104,0.68304443,0.015625,0.8125,-0.765625
61,0.7570801,-0.073791504,0.7665405,0.953125,-0.8125,-1.0
62,0.6738281,-0.077697754,0.6947632,0.453125,-5.9375,-0.65625
63,0.65405273,-0.09649658,0.7025757,2.6875,-1.390625,-2.109375
64,0.82543945,-0.11895752,0.72650146,-7.34375,2.421875,0.140625
65,0.6953125,-0.105529785,0.76556396,-3.25,-4.296875,0.046875
66,0.7272949,-0.105041504,0.83343506,-5.15625,-3.6875,0.421875
67,0.7270508,-0.117248535,0.70892334,-10.21875,-10.40625,-3.828125
68,0.55029297,-0.061584473,0.6889038,-7.03125,-2.59375,0.125
69,0.5187988,-0.019104004,0.7164917,-0.921875,-3.296875,-6.546875
70,0.72924805,-0.02130127,0.70965576,0.515625,4.859375,-3.171875
71,0.9941406,-0.21148682,0.7081909,-16.375,-0.5625,-2.421875
72,0.7675781,0.0289917,0.7328491,8.1875,-0.921875,0.328125
73,0.44140625,-0.034729004,0.7333374,0.109375,-1.234375,0.203125
74,0.6713867,-0.13238525,0.7875366,3.625,0.65625,-1.578125
75,0.7285156,-0.15289307,0.7843628,2.9375,3.453125,0.671875
76,0.6040039,-0.108947754,0.69573975,-0.109375,3.671875,0.921875
77,0.95825195,-0.006164551,0.7040405,-8.0625,4.890625,1.515625
78,0.66796875,-0.0803833,0.7562866,10.203125,1.90625,7.453125
79,0.5998535,-0.03668213,0.7579956,2.703125,-3.40625,0.59375
80,0.7001953,-0.07550049,0.6991577,4.84375,-2.84375,-1.734375
81,0.8371582,-0.1651001,0.6935425,-8.640625,5.734375,-0.53125
82,0.84765625,-0.085510254,0.76678467,8.234375,0.671875,6.9375
83,0.5571289,-0.028381348,0.7423706,7.375,-5.359375,5.21875
84,0.6791992,-0.07232666,0.70892334,0.59375,-4.5,-1.765625
85,0.67749023,-0.08502197,0.7316284,-0.421875,3.1875,0.234375
86,0.87060547,-0.06036377,0.7352905,-2.75,0.8125,1.125
87,0.5961914,-0.037902832,0.73968506,2.421875,-1.15625,3.46875
88,0.6730957,-0.0881958,0.7831421,-1.234375,-5.8125,0.078125
89,0.6767578,-0.06451416,0.75213623,2.421875,-6.609375,-1.953125
90,0.54418945,-0.062316895,0.72088623,5.46875,-6.25,-4.390625
91,0.59936523,-0.050109863,0.75115967,1.71875,-3.890625,-5.703125
92,0.69091797,-0.06915283,0.65545654,-4.65625,7.390625,0.578125
93,0.8574219,-0.09576416,0.74871826,4.484375,6.25,0.6875
94,0.8041992,-0.18414307,0.71698,-5.5,4.140625,-0.90625
95,0.7939453,-0.030822754,0.6881714,-1.484375,5.859375,-5.0
96,0.62524414,-0.0947876,0.7316284,-0.6875,1.859375,1.953125
97,0.6916504,-0.1362915,0.74798584,-1.78125,1.4375,-0.1875
98,0.74560547,-0.10772705,0.68133545,-0.765625,2.9375,0.40625
99,0.8786621,-0.037902832,0.66204834,-19.0625,3.609375,3.0625
100,0.6557617,-0.054504395,0.6925659,10.71875,-1.078125,3.390625
101,0.64575195,-0.062316895,0.73968506,2.0625,-4.296875,3.78125
102,0.68481445,-0.061828613,0.6659546,6.140625,-2.28125,-0.796875
103,0.82958984,-0.117004395,0.73065186,-6.453125,4.703125,-1.46875
104,0.8173828,-0.09234619,0.7247925,-5.796875,-0.171875,5.328125
105,0.58374023,-0.00982666,0.72869873,5.859375,-2.90625,3.234375
106,0.69140625,-0.10748291,0.80584717,-1.5,-4.421875,0.125
107,0.69311523,-0.09576416,0.76776123,2.5625,-2.328125,-1.453125
108,0.6765137,-0.04449463,0.71698,-1.03125,-4.546875,0.265625
109,0.6333008,-0.014709473,0.6918335,-4.390625,-1.3125,2.390625
110,0.7294922,0.014343262,0.5907593,3.15625,4.828125,-3.03125
111,0.89501953,-0.07574463,0.72991943,6.890625,11.46875,4.6875
112,0.85180664,-0.077697754,0.70477295,-1.125,-4.0,-0.953125
113,0.70581055,-0.030578613,0.6244507,2.0625,-5.5,-4.25
114,0.6447754,-0.10626221,0.7296753,-0.171875,0.09375,1.40625
115,0.76049805,-0.121154785,0.7543335,-4.84375,0.90625,-0.046875
116,0.7355957,-0.1296997,0.7206421,2.53125,-2.703125,-1.703125
117,0.7614746,-0.082336426,0.7423706,-5.8125,-4.109375,0.765625
118,0.7980957,-0.028137207,0.66571045,-0.65625,-6.28125,3.0
119,0.59936523,-0.02130127,0.7440796,5.4375,-3.859375,1.15625
120,0.67822266,-0.017150879,0.71502686,3.390625,-3.078125,2.140625
121,0.7097168,-0.10699463,0.7658081,0.6875,2.15625,1.0
122,0.72998047,-0.082092285,0.7616577,-5.3125,-1.09375,0.84375
123,0.64160156,-0.06402588,0.7133179,-1.0,-3.328125,-2.28125
124,0.7026367,-0.057678223,0.7406616,-1.265625,-2.203125,-1.125
125,0.7717285,-0.07574463,0.7362671,-5.671875,0.984375,2.4375
126,0.60131836,-0.07672119,0.7526245,-1.40625,-1.59375,-0.34375
127,0.66503906,-0.07305908,0.7406616,-1.859375,-2.96875,-1.125
128,0.7109375,-0.06793213,0.7601929,-2.265625,-1.515625,-1.0
129,0.65185547,-0.06011963,0.71429443,-2.28125,-1.0625,-1.296875
130,0.7038574,-0.02520752,0.7177124,-3.09375,2.359375,-0.734375
131,0.8034668,-0.046936035,0.71624756,-4.640625,0.078125,3.65625
132,0.720459,-0.02178955,0.7560425,1.390625,4.875,3.0
133,0.5917969,-0.020812988,0.7592163,3.90625,-2.828125,0.65625
134,0.70043945,-0.05718994,0.6810913,7.375,2.171875,-2.03125
135,0.828125,-0.08135986,0.763855,-3.0625,2.265625,2.59375
136,0.7504883,-0.08648682,0.711853,-0.09375,0.265625,-0.109375
137,0.6464844,-0.024719238,0.75653076,2.046875,-2.421875,0.53125
138,0.69873047,-0.04864502,0.69866943,1.5625,-2.078125,-0.140625
139,0.6928711,-0.05645752,0.701355,1.1875,3.609375,-0.59375
140,0.87597656,-0.018127441,0.70965576,-7.84375,1.796875,2.203125
141,0.65283203,-0.028381348,0.7484741,6.09375,-3.453125,1.46875
142,0.64160156,-0.034240723,0.7238159,3.34375,-5.96875,4.015625
143,0.67626953,-0.06866455,0.7218628,5.578125,-0.828125,-0.421875
144,0.70532227,-0.0647583,0.7184448,2.109375,-1.84375,0.828125
145,0.8286133,-0.06890869,0.7526245,-1.9375,2.09375,-0.78125
146,0.5595703,-0.008117676,0.7196655,5.1875,-6.96875,2.25
147,0.70581055,-0.085510254,0.76483154,3.84375,-4.765625,-0.546875
148,0.6164551,-0.069885254,0.7496948,-0.90625,-1.328125,-7.671875
149,0.8564453,-0.05645752,0.71014404,-7.625,0.453125,-0.4375
150,0.61816406,-0.050598145,0.7938843,-0.25,-0.125,-0.40625
151,0.6130371,-0.05718994,0.74432373,2.765625,-5.859375,-0.53125
152,0.7468262,-0.109436035,0.7506714,-1.90625,0.515625,-0.1875
153,0.6945801,-0.086242676,0.73846436,-2.359375,-0.328125,-0.40625
154,0.68115234,-0.058410645,0.73358154,0.453125,0.953125,-0.28125
155,0.6828613,-0.059631348,0.8070679,1.546875,-1.578125,1.671875
156,0.670166,-0.11260986,0.79486084,2.625,-6.5,-1.15625
157,0.595459,-0.04888916,0.7406616,3.578125,-2.15625,-1.25
158,0.6899414,-0.051086426,0.7628784,3.09375,-11.109375,2.046875
159,0.71362305,-0.121154785,0.7111206,-4.578125,0.8125,-2.453125
160,0.8796387,0.027526855,0.7160034,3.6875,4.6875,-1.5625
161,0.6203613,-0.04864502,0.69451904,-1.375,-0.046875,-0.921875
162,0.62402344,-0.09698486,0.746521,4.515625,2.953125,-0.1875
163,0.7246094,-0.11407471,0.79681396,0.796875,1.75,-0.25
164,0.6542969,-0.117248535,0.7575073,-4.109375,-0.65625,0.46875
165,0.6582031,-0.08282471,0.7182007,-3.328125,1.8125,-0.5
166,0.79125977,-0.035705566,0.7597046,-5.90625,3.171875,1.6875
167,0.6604004,-0.058166504,0.76312256,0.765625,3.125,4.734375
168,0.65185547,-0.059387207,0.79119873,2.46875,-0.265625,1.640625
169,0.6635742,-0.090148926,0.69403076,1.515625,-0.703125,-0.234375
170,0.77441406,-0.0569458,0.71795654,-3.640625,3.171875,-0.4375
171,0.74853516,-0.06817627,0.7367554,-6.984375,3.921875,3.46875
172,0.62646484,-0.054748535,0.78045654,4.875,-3.75,2.140625
173,0.6652832,-0.08135986,0.7357788,4.546875,-2.09375,-0.390625
174,0.68847656,-0.062072754,0.7045288,3.4375,-1.921875,-1.421875
175,0.83740234,-0.055725098,0.70965576,-11.96875,3.453125,-0.3125
176,0.60375977,-0.0095825195,0.75701904,1.734375,-2.265625,1.71875
177,0.67993164,-0.04547119,0.7379761,4.546875,-2.75,1.28125
178,0.65234375,-0.09185791,0.7736206,6.328125,-1.5,-0.859375
179,0.8227539,-0.09112549,0.71917725,-6.546875,0.046875,-1.265625
180,0.6386719,-0.07232666,0.7411499,-3.09375,-0.375,0.46875
181,0.6677246,-0.07232666,0.7814331,6.375,-3.890625,0.46875
182,0.7104492,-0.101867676,0.8468628,-1.84375,-1.5625,0.3125
183,0.6057129,-0.061828613,0.7247925,9.421875,-3.921875,-1.78125
184,0.5476074,-0.07623291,0.6859741,2.765625,3.53125,-2.453125
185,0.8015137,-0.038146973,0.77923584,-4.5625,2.75,0.25
186,0.7597656,-0.07183838,0.72283936,-9.21875,2.0,1.6875
187,0.84228516,-0.08404541,0.6347046,-7.96875,-1.625,-2.078125
188,0.8000488,0.03729248,0.69818115,-0.125,1.890625,-6.65625
189,0.59277344,-0.026184082,0.7316284,0.828125,-1.640625,5.609375
190,0.609375,-0.065979004,0.8085327,-2.609375,1.046875,3.75
191,0.7001953,-0.14337158,0.70599365,1.625,-1.46875,-1.640625
192,0.82543945,-0.041809082,0.7218628,0.171875,2.53125,0.453125
193,0.6298828,-0.07989502,0.7391968,0.015625,-2.953125,2.625
194,0.66430664,-0.05621338,0.7897339,-0.15625,-1.421875,1.328125
195,0.6677246,-0.05987549,0.7140503,0.015625,-1.453125,-0.203125
196,0.7849121,-0.06817627,0.71502686,-6.03125,0.96875,0.71875
197,0.8239746,-0.008850098,0.7382202,-3.4375,4.734375,2.421875
198,0.5839844,-0.0256958,0.8031616,5.6875,-2.5625,4.515625
199,0.66308594,-0.066711426,0.7243042,5.984375,-2.390625,2.375
200,0.6489258,-0.08746338,0.6618042,7.203125,1.53125,-0.84375
201,0.8474121,-0.054748535,0.7260132,-7.5625,2.359375,-1.234375
202,0.5529785,0.013366699,0.7597046,-3.828125,-10.546875,0.625
203,0.6965332,-0.061828613,0.7875366,7.5625,-3.125,1.09375
204,0.640625,-0.089416504,0.75579834,4.375,-2.84375,-2.15625
205,0.8618164,-0.10333252,0.7079468,-8.84375,0.15625,-2.75
206,0.6413574,-0.043273926,0.7665405,-1.375,-1.234375,-0.125
207,0.61621094,-0.031799316,0.7728882,6.609375,-4.09375,-0.390625
208,0.72387695,-0.11578369,0.7662964,3.34375,-3.078125,-3.8125
209,0.7023926,-0.117492676,0.7406616,-4.8125,-2.875,-1.53125
210,0.6533203,-0.097229004,0.79974365,0.921875,-0.171875,-0.15625
211,0.6904297,-0.08673096,0.8786011,2.0625,3.46875,0.8125
212,0.64038086,-0.082092285,0.7999878,-8.84375,1.671875,1.484375
213,0.46655273,-0.030578613,0.6390991,-3.765625,-3.09375,-5.703125
214,0.685791,-0.027160645,0.680603,3.171875,10.90625,-5.296875
215,0.89282227,-0.07989502,0.6732788,-1.734375,9.609375,-0.59375
216,0.91186523,-0.10455322,0.71698,-12.1875,7.4375,0.859375
217,0.5891113,0.014099121,0.6911011,18.09375,-7.03125,-3.5
218,0.57788086,-0.07940674,0.7094116,-4.59375,4.03125,4.125
219,0.7873535,-0.15411377,0.7555542,1.171875,2.984375,1.625
220,0.8388672,-0.14434814,0.729187,-2.90625,2.109375,-1.5625
221,0.7507324,-0.043029785,0.71551514,0.40625,-3.5,1.625
222,0.6437988,-0.033996582,0.715271,-1.265625,-2.875,-0.953125
223,0.71362305,-0.07305908,0.73358154,-0.703125,-1.65625,0.8125
224,0.703125,-0.06109619,0.7509155,-0.875,-2.4375,0.03125
225,0.69018555,-0.062316895,0.71429443,-2.4375,-0.59375,-1.21875
226,0.82128906,-0.04547119,0.7062378,-3.421875,0.1875,4.6875
227,0.61450195,-0.043762207,0.76239014,9.0625,-2.46875,0.703125
228,0.638916,-0.04888916,0.7575073,4.6875,-3.484375,3.390625
229,0.7163086,-0.08868408,0.7145386,5.140625,0.0625,1.78125
230,0.7375488,-0.12017822,0.7272339,-2.9375,-2.71875,1.234375
231,0.8552246,-0.049621582,0.74212646,-8.84375,1.4375,-0.671875
232,0.5629883,-0.0025024414,0.77874756,1.078125,-9.125,1.78125
233,0.63549805,-0.053527832,0.743103,5.6875,-5.28125,1.609375
234,0.64624023,-0.05255127,0.72210693,4.171875,-0.1875,-1.3125
235,0.842041,-0.11773682,0.7243042,-9.203125,-1.8125,-0.109375
236,0.64208984,-0.0335083,0.7496948,-1.40625,-1.8125,-0.421875
237,0.63842773,-0.018127441,0.76849365,3.890625,-4.40625,1.96875
238,0.6533203,-0.093322754,0.77996826,4.3125,-0.71875,0.734375
239,0.61450195,-0.07525635,0.7609253,2.78125,-3.0625,-3.125
240,0.71606445,-0.105773926,0.81585693,2.453125,-0.40625,-4.515625
241,0.6989746,-0.108947754,0.81073,-5.90625,-0.296875,0.59375
242,0.6171875,-0.09674072,0.7741089,-3.109375,-2.390625,0.671875
243,0.5620117,-0.093811035,0.7255249,-4.203125,-6.0625,-0.828125
244,0.66918945,0.0026245117,0.6520386,4.0,4.953125,-7.203125
245,0.85595703,-0.06549072,0.6781616,-4.46875,11.703125,-0.40625
246,0.9733887,-0.054504395,0.7321167,-5.78125,2.671875,4.640625
247,0.53125,-0.015686035,0.7387085,11.859375,-4.359375,4.546875
248,0.5830078,-0.13995361,0.7807007,3.03125,1.0625,2.25
249,0.7861328,-0.13922119,0.7369995,4.765625,-1.59375,-2.03125
250,0.7631836,-0.07159424,0.74505615,-3.703125,1.4375,-2.765625
251,0.6555176,-0.06524658,0.7116089,-3.078125,-4.1875,0.421875
252,0.6821289,-0.06744385,0.7106323,-3.234375,-1.625,-0.390625
253,0.88256836,-0.043518066,0.73236084,-7.921875,2.46875,4.296875
254,0.63671875,-0.07867432,0.8361206,4.4375,2.34375,3.328125
255,0.6040039,-0.08331299,0.83636475,-0.734375,-3.859375,4.8125
256,0.701416,-0.05279541,0.7345581,-0.0625,-1.203125,0.90625
257,0.57836914,0.00579834,0.6671753,0.125,-1.375,1.484375
258,0.6767578,-0.082092285,0.7040405,4.078125,-0.171875,-3.578125
259,0.7492676,-0.093322754,0.69329834,2.625,-1.21875,-6.46875
260,0.71875,-0.026672363,0.7555542,4.484375,0.28125,-2.578125
261,0.6020508,-0.090148926,0.75579834,0.96875,-3.59375,1.625
262,0.70336914,-0.11187744,0.74139404,2.15625,0.6875,-1.0
263,0.8654785,-0.094055176,0.7350464,-3.625,3.140625,-0.09375
264,0.76171875,-0.043029785,0.75335693,5.28125,0.421875,3.375
265,0.5883789,-0.022033691,0.79071045,3.03125,-4.375,3.90625
266,0.6694336,-0.10211182,0.68621826,5.359375,-2.453125,0.03125
267,0.7841797,-0.05596924,0.73065186,-5.125,0.765625,-0.1875
268,0.63916016,-0.09161377,0.7428589,-2.25,-3.125,2.1875
269,0.60498047,-0.043273926,0.74749756,3.1875,-3.3125,1.265625
270,0.7294922,-0.09844971,0.72088623,0.328125,2.1875,-0.171875
271,0.80200195,-0.05328369,0.78118896,-8.6875,1.078125,1.859375
272,0.6298828,-0.046203613,0.74676514,3.5,-3.796875,1.390625
273,0.6582031,-0.07940674,0.77215576,5.953125,-2.703125,2.28125
274,0.66918945,-0.07891846,0.7460327,3.375,-1.296875,0.03125
275,0.7751465,-0.09552002,0.73065186,-3.5625,-0.21875,0.328125
276,0.65405273,-0.05718994,0.75042725,-3.171875,-2.75,-0.484375
277,0.6164551,-0.047668457,0.78240967,6.921875,-5.171875,1.390625
278,0.6677246,-0.09210205,0.7562866,5.046875,1.234375,0.6875
279,0.72680664,-0.09259033,0.7694702,-6.546875,12.84375,0.25
280,0.63842773,-0.09259033,0.84173584,-13.28125,5.578125,3.5
281,0.6555176,-0.097473145,0.7362671,-17.359375,2.15625,1.15625
282,0.7697754,-0.04449463,0.7633667,-7.90625,-4.078125,-7.546875
283,0.6689453,-0.051330566,0.67523193,-5.859375,-10.515625,-5.90625
284,0.6723633,0.04510498,0.6864624,2.6875,0.921875,-6.34375
285,0.8215332,-0.02545166,0.6664429,2.625,-6.78125,0.234375
286,0.7097168,0.012145996,0.72088623,-2.265625,2.21875,0.171875
287,0.5588379,-0.04815674,0.73724365,5.4375,1.359375,2.921875
288,0.73950195,-0.08331299,0.80511475,-3.984375,8.296875,0.890625
289,0.7219238,-0.109191895,0.8312378,-7.109375,1.09375,0.40625
290,0.64501953,-0.101135254,0.7863159,-7.4375,-5.140625,-2.296875
291,0.75512695,0.027526855,0.70111084,-12.59375,-0.140625,-5.171875
292,0.7145996,0.028259277,0.7470093,0.515625,4.234375,2.53125
293,0.6633301,0.0211792,0.7741089,-1.453125,2.015625,2.765625
294,0.6694336,-0.015930176,0.69866943,-0.921875,3.25,-0.53125
295,0.7224121,-0.0049438477,0.70892334,-4.390625,0.65625,-3.46875
296,0.6958008,-0.03717041,0.7262573,0.875,-0.015625,0.703125
297,0.67749023,-0.034484863,0.7411499,2.46875,0.671875,-3.671875
298,0.8059082,-0.059631348,0.86590576,1.640625,6.328125,-0.03125
299,0.63134766,-0.022033691,0.6871948,8.265625,-3.34375,-0.078125
300,0.63793945,-0.03741455,0.7514038,0.765625,2.375,-1.265625
301,0.67089844,-0.03302002,0.65423584,-1.390625,0.96875,-3.46875
302,0.79589844,0.003112793,0.6141968,13.890625,6.8125,-2.375
303,0.9741211,-0.1272583,0.76971436,-2.96875,3.75,2.015625
304,0.7290039,0.008972168,0.63812256,6.90625,-15.484375,5.734375
305,0.49804688,0.0036010742,0.71307373,7.03125,-1.171875,-2.015625
306,0.69018555,-0.13092041,0.762146,1.4375,-6.0625,-4.96875
307,0.8354492,-0.11480713,0.74261475,4.9375,3.8125,-4.90625
308,0.75341797,-0.070617676,0.7196655,-5.1875,0.546875,5.328125
309,0.6125488,-0.090148926,0.7357788,0.359375,-1.671875,0.984375
310,0.6816406,-0.04498291,0.711853,1.109375,-1.515625,-2.453125
311,0.80126953,-0.055725098,0.73431396,1.15625,1.78125,1.015625
312,0.71362305,-0.059631348,0.7560425,0.78125,3.046875,3.90625
313,0.66674805,-0.06573486,0.7238159,-3.5,0.765625,-2.859375
314,0.6977539,-0.04937744,0.7272339,2.171875,-1.046875,-0.171875
315,0.74780273,-0.066467285,0.7550659,-10.140625,0.734375,2.5625
316,0.6130371,-0.07208252,0.72650146,-3.796875,-2.375,-2.15625
317,0.7116699,-0.054504395,0.7321167,-3.890625,-2.0625,-5.96875
318,0.71875,-0.06085205,0.72161865,-3.34375,0.65625,-3.0625
319,0.71313477,-0.045715332,0.7079468,0.953125,3.125,-0.234375
320,0.76782227,-0.046691895,0.70892334,-1.46875,5.796875,0.203125
321,0.7434082,-0.061828613,0.8331909,0.84375,9.40625,5.390625
322,0.67626953,-0.06573486,0.7357788,-5.9375,-3.875,4.6875
323,0.65478516,0.034606934,0.5548706,13.828125,-2.078125,-2.09375
324,0.71728516,-0.01739502,0.60565186,17.28125,9.875,0.3125
325,0.95214844,-0.14483643,0.696228,-3.296875,5.328125,5.0
326,0.87890625,0.011169434,0.6991577,-1.296875,-3.5,3.625
327,0.5234375,-0.05718994,0.65008545,7.859375,-12.71875,3.65625
328,0.6936035,-0.10772705,0.74871826,4.6875,-4.890625,-0.984375
329,0.8156738,-0.15338135,0.76361084,8.75,-7.484375,2.8125
330,0.670166,-0.06842041,0.6466675,-0.46875,3.09375,-2.4375
331,0.8034668,-0.0569458,0.744812,-1.390625,0.015625,1.890625
332,0.68847656,-0.12750244,0.72283936,-2.421875,-4.671875,1.921875
333,0.7241211,-0.033996582,0.7213745,-4.84375,0.46875,-2.296875
334,0.75219727,-0.06890869,0.7074585,-1.75,-1.0,3.828125
335,0.6459961,-0.04937744,0.7460327,2.59375,2.4375,3.9375
336,0.71850586,-0.097229004,0.77337646,-0.953125,-2.984375,0.65625
337,0.65600586,-0.08062744,0.7584839,-6.21875,-2.109375,-0.953125
338,0.6369629,-0.0725708,0.76312256,-6.515625,-2.21875,-3.0625
339,0.66845703,-0.08062744,0.7062378,-7.8125,1.8125,-0.171875
340,0.71875,-0.041809082,0.7147827,-8.796875,2.28125,-2.625
341,0.7163086,0.0036010742,0.64959717,1.328125,-1.59375,-2.0625
342,0.8364258,-0.013977051,0.6300659,8.609375,6.875,-0.59375
343,0.9189453,-0.047180176,0.63323975,7.109375,7.109375,3.78125
344,0.7705078,0.00579834,0.6654663,13.4375,1.546875,9.296875
345,0.5720215,-0.093566895,0.71136475,13.484375,-7.171875,1.953125
346,0.74194336,-0.1519165,0.73236084,6.359375,-1.0625,-3.359375
347,0.7504883,-0.09649658,0.73236084,3.921875,-5.609375,-0.234375
348,0.7180176,-0.0960083,0.71868896,-2.671875,0.171875,-2.359375
349,0.7861328,-0.06793213,0.7194214,-5.140625,-2.53125,0.53125
350,0.68481445,-0.04425049,0.69403076,0.6875,-3.5,1.71875
351,0.6982422,-0.04522705,0.68743896,1.0625,-0.0625,-1.703125
352,0.82055664,-0.051086426,0.7086792,-1.203125,3.328125,1.421875
353,0.72680664,-0.062316895,0.7196655,0.453125,-0.875,3.875
354,0.66064453,-0.059387207,0.7247925,0.828125,-1.703125,2.5625
355,0.657959,-0.1026001,0.7328491,2.625,-3.28125,0.515625
356,0.6765137,-0.08868408,0.7050171,0.359375,-6.5,-3.515625
357,0.79956055,-0.11138916,0.6881714,-6.40625,-5.515625,-8.9375
358,0.7844238,-0.045959473,0.7418823,-3.46875,1.65625,1.671875
359,0.6472168,-0.047668457,0.71307373,-1.8125,-0.75,2.328125
360,0.6911621,-0.04058838,0.70843506,2.53125,-1.5,-0.65625
361,0.79663086,-0.09942627,0.7399292,-6.765625,4.59375,1.34375
362,0.73168945,-0.06329346,0.7111206,-2.796875,-1.953125,3.109375
363,0.66015625,-0.031311035,0.7941284,4.578125,0.375,3.0
364,0.7116699,-0.050842285,0.7797241,4.625,5.0625,6.34375
365,0.72875977,-0.06524658,0.8082886,21.375,-16.078125,4.125
366,0.53027344,-0.08526611,0.6305542,5.9375,-10.265625,-1.375
367,0.62475586,-0.035949707,0.6913452,6.03125,6.53125,-2.28125
368,0.8154297,-0.086242676,0.71429443,-3.78125,2.4375,0.546875
369,0.8105469,-0.11138916,0.69647217,8.515625,0.625,-1.859375
370,0.9038086,-0.08917236,0.60858154,-5.421875,9.828125,-1.859375
371,0.85498047,0.022888184,0.71209717,-19.734375,-7.375,-6.71875
372,0.5354004,-0.15435791,0.7369995,-5.828125,-9.21875,4.515625
373,0.6604004,-0.12921143,0.7958374,-3.34375,-7.53125,-2.21875
374,0.7067871,-0.09576416,0.7223511,-1.53125,-8.625,-3.34375
375,0.6862793,0.003112793,0.7196655,-3.359375,-4.09375,1.140625
376,0.69311523,-0.05303955,0.7428589,-3.109375,-4.875,0.921875
377,0.6652832,-0.035217285,0.821228,6.359375,-1.859375,0.96875
378,0.6027832,-0.022766113,0.7670288,3.1875,-1.828125,2.09375
379,0.6591797,-0.061828613,0.74212646,1.140625,3.125,1.40625
380,0.7519531,-0.047912598,0.77996826,-5.890625,-1.0625,0.8125
381,0.67578125,-0.089904785,0.7736206,-3.28125,0.703125,1.671875
382,0.63964844,-0.05303955,0.7352905,2.515625,-2.53125,1.59375
383,0.7116699,-0.034484863,0.7616577,0.9375,0.890625,-0.53125
384,0.6669922,-0.10089111,0.8109741,-0.1875,-0.515625,1.46875
385,0.66503906,-0.09234619,0.82244873,-2.375,2.421875,1.828125
386,0.60375977,-0.066711426,0.762146,-1.5625,-4.015625,-4.296875
387,0.59594727,-0.026184082,0.6715698,2.984375,-1.078125,-3.78125
388,0.71191406,0.001159668,0.7872925,4.296875,6.28125,-4.296875
389,0.80029297,-0.04840088,0.7196655,5.0,-5.09375,-1.328125
390,0.79345703,-0.031555176,0.64642334,5.5,7.90625,0.859375
391,0.8442383,0.016540527,0.7260132,-0.65625,-3.21875,2.3125
392,0.55566406,-0.13970947,0.7748413,9.328125,-4.90625,2.984375
393,0.6320801,-0.14508057,0.7550659,4.484375,-3.25,-2.09375
394,0.65283203,-0.10333252,0.7704468,5.140625,-0.21875,-7.5
395,0.75219727,-0.097961426,0.7230835,-9.625,-0.359375,3.5625
396,0.80810547,-0.034973145,0.74798584,0.875,-1.25,-0.984375
397,0.595459,-0.09161377,0.7868042,3.765625,-5.953125,0.21875
398,0.61621094,-0.04473877,0.7328491,5.15625,-0.90625,2.71875
399,0.7780762,-0.08380127,0.7965698,-4.03125,6.125,0.75
400,0.6557617,-0.113586426,0.7653198,-4.46875,-4.234375,4.09375
401,0.6364746,-0.07525635,0.7399292,-1.21875,-0.984375,-3.71875
402,0.6845703,-0.0413208,0.7213745,16.328125,-7.21875,5.296875
403,0.65966797,-0.09527588,0.7706909,8.46875,2.21875,-0.921875
404,0.6459961,-0.121154785,0.8024292,9.453125,4.140625,2.5625
405,0.7194824,-0.14068604,0.8312378,3.6875,6.296875,5.25
406,0.7077637,-0.16217041,0.7157593,-4.328125,4.171875,0.953125
407,0.7067871,-0.08721924,0.6930542,-4.453125,3.703125,-4.71875
408,0.7290039,-0.078430176,0.6852417,-9.828125,-1.578125,-6.140625
409,0.7241211,-0.0869751,0.71380615,-0.03125,-7.78125,-3.40625
410,0.69140625,-0.078430176,0.7037964,1.953125,4.90625,-2.71875
411,0.7167969,-0.034729004,0.6918335,5.859375,3.515625,-3.859375
412,0.6425781,-0.14337158,0.7369995,3.125,2.9375,2.3125
413,0.6765137,-0.16925049,0.7387085,3.640625,2.421875,2.5625
414,0.7258301,-0.18756104,0.69036865,0.703125,3.171875,-0.359375
415,0.76538086,-0.11236572,0.7316284,-2.4375,4.78125,0.515625
416,0.6999512,-0.09942627,0.69329834,-6.859375,-0.109375,2.71875
417,0.79907227,-0.13824463,0.67523193,-2.6875,6.46875,-0.390625
418,0.7438965,-0.09625244,0.7321167,3.265625,-1.6875,0.53125
419,0.6508789,-0.062316895,0.6691284,-0.265625,-1.4375,0.84375
420,0.8054199,-0.14215088,0.70770264,-4.40625,5.78125,-1.984375
421,0.7001953,-0.09991455,0.7106323,-1.734375,-1.359375,3.5
422,0.67407227,-0.09649658,0.684021,-0.984375,-0.546875,-1.03125
423,0.7438965,-0.12750244,0.72576904,-0.9375,1.625,-1.109375
424,0.8066406,-0.1026001,0.72650146,-6.015625,-0.796875,-0.03125
425,0.68408203,-0.08355713,0.7040405,-1.234375,-1.671875,1.25
426,0.6826172,-0.09967041,0.7160034,0.21875,-3.734375,-0.71875
427,0.71435547,-0.12945557,0.77630615,-2.578125,0.578125,1.71875
428,0.7023926,-0.07647705,0.730896,-7.3125,-1.53125,0.625
429,0.6489258,-0.061828613,0.699646,-7.296875,-3.8125,4.078125
430,0.67993164,-0.07672119,0.7328491,-5.125,1.15625,2.265625
431,0.74853516,-0.10308838,0.7067261,-5.15625,-1.828125,-0.703125
432,0.73535156,-0.046447754,0.67718506,1.171875,-1.15625,-1.265625
433,0.7675781,-0.032287598,0.6820679,9.8125,0.921875,-1.359375
434,0.9213867,-0.09210205,0.6222534,-3.421875,9.84375,2.78125
435,0.7441406,-0.0017700195,0.68743896,-6.296875,1.578125,9.4375
436,0.59228516,-0.09185791,0.6793823,7.25,-8.15625,-0.03125
437,0.6567383,-0.13848877,0.76239014,-0.34375,-0.421875,0.25
438,0.6899414,-0.08258057,0.72454834,2.609375,-3.9375,-1.125
439,0.7141113,-0.032287598,0.711853,-0.359375,-1.828125,-3.421875
440,0.7097168,-0.051086426,0.69989014,0.609375,-2.640625,-1.046875
441,0.73950195,-0.06842041,0.7272339,1.40625,0.84375,-1.96875
442,0.7854004,-0.08868408,0.6754761,-3.984375,3.390625,0.78125
443,0.80810547,0.01727295,0.7453003,1.0,0.265625,4.5
444,0.64453125,-0.07183838,0.7272339,-2.84375,-1.484375,2.625
445,0.6567383,-0.07745361,0.69573975,2.25,-2.015625,0.40625
446,0.7248535,-0.069885254,0.7457886,2.140625,0.53125,-0.125
447,0.70043945,-0.09063721,0.69866943,0.1875,-3.65625,0.5625
448,0.7319336,-0.062316895,0.69818115,0.921875,-0.953125,-2.859375
449,0.71533203,-0.06866455,0.73065186,1.15625,-1.40625,0.234375
450,0.7067871,-0.047180176,0.7633667,-0.453125,0.46875,-0.75
451,0.69262695,-0.0635376,0.75335693,-1.640625,2.203125,-1.15625
452,0.6760254,-0.07867432,0.73114014,-0.796875,1.765625,-2.671875
453,0.7819824,-0.085510254,0.7069702,-1.78125,1.140625,-3.3125
454,0.74438477,-0.046447754,0.668396,2.546875,-1.15625,0.8125
455,0.7285156,-0.07647705,0.56536865,-0.5,-5.140625,-2.53125
456,0.93115234,-0.0413208,0.71307373,-5.546875,10.421875,-2.15625
457,0.6328125,-0.10333252,0.7313843,3.5625,-14.484375,4.25
458,0.5822754,-0.08477783,0.69989014,4.765625,-0.671875,0.84375
459,0.72094727,-0.13336182,0.7304077,5.671875,0.28125,-2.03125
460,0.77612305,-0.12213135,0.732605,-2.984375,0.546875,-1.65625
461,0.72802734,-0.058410645,0.70599365,-4.296875,-0.625,1.734375
462,0.6833496,-0.053527832,0.71209717,0.5,-1.421875,-0.015625
463,0.7084961,-0.070129395,0.7453003,-1.484375,0.453125,-0.65625
464,0.6953125,-0.06719971,0.7597046,-4.75,1.65625,-0.328125
465,0.71313477,-0.10357666,0.7584839,-11.140625,3.875,0.875
466,0.7624512,-0.08380127,0.70306396,-15.078125,3.96875,2.765625
467,0.7175293,-0.04498291,0.7028198,-0.859375,0.15625,-1.296875
468,0.7155762,-0.028137207,0.65423584,-0.53125,0.15625,-0.296875
469,0.73095703,-0.02520752,0.6547241,5.1875,3.0,-0.359375
470,0.7531738,-0.03326416,0.66448975,12.53125,2.109375,0.78125
471,0.8745117,-0.08062744,0.5614624,0.671875,7.828125,4.859375
472,0.7976074,0.04168701,0.7614136,6.078125,-0.34375,5.71875
473,0.564209,-0.12896729,0.7182007,2.296875,-6.421875,1.84375
474,0.732666,-0.11846924,0.69989014,2.8125,1.15625,-1.21875
475,0.7873535,-0.097473145,0.732605,-1.265625,-1.796875,-1.328125
476,0.72509766,-0.093322754,0.6976929,-4.46875,-4.3125,2.21875
477,0.6845703,-0.050354004,0.6691284,0.609375,-4.625,-0.828125
478,0.7871094,-0.055480957,0.7235718,-2.21875,0.15625,0.25
479,0.69384766,-0.07476807,0.7328491,-0.828125,-2.734375,4.046875
480,0.68847656,-0.0413208,0.6984253,-1.453125,-1.71875,-2.25
481,0.7734375,-0.053527832,0.6798706,0.9375,1.40625,-1.484375
482,0.7219238,-0.04840088,0.69818115,2.28125,-0.171875,3.171875
483,0.71777344,-0.06549072,0.7067261,2.296875,0.28125,0.78125
484,0.7541504,-0.07940674,0.70062256,-0.984375,-0.359375,-0.171875
485,0.72021484,-0.06939697,0.7164917,-1.390625,0.328125,1.46875
486,0.7219238,-0.061340332,0.713562,0.234375,-1.453125,-1.4375
487,0.75683594,-0.06768799,0.69989014,2.296875,-2.03125,0.015625
488,0.74731445,-0.04547119,0.72869873,1.9375,-1.078125,2.21875
489,0.7060547,-0.04937744,0.66741943,2.0,-0.640625,1.671875
490,0.79248047,-0.050109863,0.7079468,1.3125,2.140625,2.125
491,0.6791992,-0.07501221,0.7416382,3.15625,-2.453125,2.65625
492,0.7133789,-0.09454346,0.7640991,-1.46875,-0.375,2.578125
493,0.7741699,-0.09503174,0.74139404,-2.65625,-0.765625,-2.328125
494,0.6813965,-0.04034424,0.6781616,-3.265625,2.046875,-1.203125
495,0.61865234,-0.04156494,0.6781616,-1.984375,-2.265625,-2.984375
496,0.7126465,-0.06011963,0.6864624,-1.078125,-3.265625,-3.703125
497,0.76538086,-0.053771973,0.7003784,3.5,0.671875,-4.890625
498,0.8461914,-0.07940674,0.6720581,-0.59375,-2.078125,-2.328125
499,0.83935547,0.027038574,0.6454468,-2.953125,3.09375,2.921875
500,0.5930176,-0.020080566,0.7001343,4.5,-2.59375,5.25
501,0.68847656,-0.15435791,0.74334717,10.609375,-1.03125,2.484375
502,0.7976074,-0.14141846,0.7741089,5.890625,0.203125,3.1875
503,0.67749023,-0.09210205,0.7057495,0.34375,-6.515625,-0.546875
504,0.74194336,-0.07647705,0.6762085,-5.546875,-1.84375,-2.328125
505,0.71362305,-0.06866455,0.744812,-3.140625,-1.671875,0.015625
506,0.68603516,-0.035949707,0.6923218,-0.265625,-2.203125,-2.375
507,0.7729492,-0.053527832,0.7435913,-0.796875,0.125,-0.390625
508,0.66674805,-0.08453369,0.7614136,-1.984375,-1.640625,2.765625
509,0.6555176,-0.101623535,0.7616577,-6.953125,-3.796875,-0.125
510,0.69799805,-0.109191895,0.80633545,-2.71875,-2.8125,-2.734375
511,0.7150879,-0.1326294,0.75408936,-20.953125,3.71875,-1.703125
512,0.7089844,0.0065307617,0.68670654,-13.453125,3.328125,-10.265625
513,0.6767578,0.036315918,0.6664429,-3.484375,-1.0625,-2.328125
514,0.70581055,0.022399902,0.65740967,3.09375,0.3125,0.109375
515,0.8520508,-0.09283447,0.64471436,8.90625,9.609375,-2.125
516,0.79052734,0.017028809,0.6403198,6.359375,-2.640625,6.59375
517,0.6213379,-0.062316895,0.72454834,6.1875,3.484375,6.109375
518,0.68408203,-0.18292236,0.760437,2.875,1.671875,-1.640625
519,0.8022461,-0.09674072,0.74432373,-0.65625,-1.21875,-3.1875
520,0.7570801,-0.06964111,0.6613159,-1.421875,-0.75,0.296875
521,0.74121094,-0.04473877,0.71087646,1.234375,-3.125,2.015625
522,0.7661133,-0.074279785,0.74798584,-0.640625,0.828125,2.703125
523,0.67871094,-0.016418457,0.69744873,1.5625,-3.15625,0.421875
524,0.7253418,-0.043518066,0.6942749,0.171875,-0.09375,-0.671875
525,0.7651367,-0.04058838,0.6696167,0.25,-1.3125,3.8125
526,0.71875,-0.04083252,0.7157593,5.078125,-1.203125,3.453125
527,0.71313477,-0.10308838,0.78338623,3.640625,2.109375,3.390625
528,0.6779785,-0.09967041,0.7921753,-1.671875,-4.046875,2.453125
529,0.6677246,-0.06304932,0.73431396,-1.734375,-4.515625,-3.21875
530,0.64746094,-0.016906738,0.68133545,-5.109375,-8.28125,-1.359375
531,0.73950195,-0.0068969727,0.64715576,3.75,-7.8125,-5.71875
532,0.9042969,-0.09088135,0.6256714,-4.25,6.84375,-3.453125
533,0.8300781,0.011169434,0.6779175,1.671875,-2.0,5.078125
534,0.46679688,-0.06719971,0.7025757,12.78125,-5.71875,2.03125
535,0.69750977,-0.124816895,0.72039795,5.234375,0.75,2.046875
536,0.8041992,-0.13531494,0.7658081,0.4375,3.09375,-0.59375
537,0.7207031,-0.06695557,0.68377686,-4.375,-3.1875,1.828125
538,0.72314453,-0.038879395,0.7313843,-0.625,-0.734375,0.21875
539,0.7312012,-0.06915283,0.7682495,-2.4375,-2.4375,1.375
540,0.6706543,-0.04840088,0.73358154,0.21875,-2.65625,0.59375
541,0.69799805,-0.044006348,0.7074585,0.21875,-1.90625,-1.421875
542,0.7585449,-0.054016113,0.7194214,-2.40625,2.765625,3.125
543,0.70703125,-0.07696533,0.7340698,-0.96875,0.71875,4.921875
544,0.7548828,-0.042297363,0.7704468,-0.453125,0.203125,2.796875
545,0.5900879,-0.024230957,0.71795654,4.375,-4.171875,1.3125
546,0.6640625,-0.08135986,0.6881714,1.21875,-1.46875,-1.828125
547,0.7988281,-0.035461426,0.7387085,-1.9375,0.875,0.359375
548,0.6533203,-0.050598145,0.7399292,0.8125,-1.109375,2.390625
549,0.7102051,-0.04034424,0.7015991,2.796875,-1.0,0.078125
550,0.7338867,-0.05718994,0.763855,-1.3125,1.03125,2.09375
551,0.6687012,-0.043762207,0.713562,0.296875,-1.53125,0.125
552,0.7062988,-0.08062744,0.7728882,-0.3125,1.65625,-1.203125
553,0.7717285,-0.051330566,0.7514038,-5.3125,3.125,1.484375
554,0.6508789,-0.06378174,0.7243042,0.984375,-8.546875,3.234375
555,0.6652832,-0.042785645,0.7184448,-5.84375,-8.421875,-9.59375
556,0.7077637,-0.045959473,0.74676514,2.734375,-5.34375,-4.90625
557,0.8178711,-0.05621338,0.680603,-3.21875,-0.78125,-8.40625
558,0.78100586,0.11444092,0.65496826,1.8125,2.375,-0.4375
559,0.5332031,-0.011291504,0.79119873,0.828125,0.46875,6.90625
560,0.7290039,-0.13604736,0.73651123,-1.65625,2.25,2.03125
561,0.7631836,-0.09063721,0.73431396,0.375,6.9375,-0.5
562,0.7763672,-0.030090332,0.81292725,-8.5,-1.203125,6.3125
563,0.55249023,-0.078186035,0.727478,-8.28125,-5.34375,-2.09375
564,0.6796875,-0.05279541,0.744812,2.6875,-2.859375,-5.796875
565,0.75390625,0.02532959,0.7255249,1.796875,0.859375,-0.09375
566,0.6789551,-0.03277588,0.7328491,0.765625,0.640625,3.578125
567,0.7668457,-0.021057129,0.6967163,-1.53125,3.96875,0.21875
568,0.66137695,-0.04425049,0.7457886,0.078125,1.75,2.59375
569,0.70874023,-0.043518066,0.71673584,3.859375,0.5,-5.015625
570,0.7585449,-0.06890869,0.69989014,-1.171875,1.109375,-1.5
571,0.7338867,-0.008361816,0.7994995,-3.84375,1.40625,0.25
572,0.6645508,-0.1194458,0.7301636,-6.359375,-2.71875,-6.828125
573,0.7895508,-0.039367676,0.7225952,-10.515625,7.03125,-0.953125
574,0.70214844,-0.015197754,0.76116943,-3.953125,4.375,1.265625
575,0.55981445,-0.016174316,0.61712646,1.984375,-3.015625,-2.40625
576,0.90771484,0.04071045,0.66986084,7.96875,6.78125,1.015625
577,0.87353516,-0.11895752,0.6359253,-0.46875,-1.3125,5.6875
578,0.71533203,0.09222412,0.62298584,10.78125,-4.65625,5.703125
579,0.6437988,-0.04937744,0.78582764,13.609375,-4.359375,6.453125
580,0.6530762,-0.11529541,0.72943115,5.71875,-4.59375,3.703125
581,0.86157227,-0.09503174,0.7062378,3.5625,1.84375,-1.578125
582,0.734375,-0.059387207,0.73480225,5.359375,-6.328125,0.796875
583,0.67944336,-0.058654785,0.7223511,2.125,-4.125,1.234375
584,0.6594238,-0.07672119,0.7435913,5.078125,-1.59375,1.203125
585,0.72265625,-0.07965088,0.72869873,0.515625,0.734375,2.09375
586,0.7199707,-0.06402588,0.7247925,-3.0625,-2.21875,-0.296875
587,0.6413574,-0.07305908,0.79974365,-0.453125,-2.75,0.640625
588,0.717041,-0.089660645,0.77459717,-7.6875,-2.203125,1.578125
589,0.6369629,-0.04547119,0.76727295,-5.0625,-3.328125,-2.8125
590,0.54296875,-0.06817627,0.7196655,-2.984375,-1.875,-8.84375
591,0.701416,-0.0178833,0.63323975,-3.4375,-0.21875,-6.796875
592,0.79785156,-0.0056762695,0.6713257,1.9375,7.875,-7.578125
593,0.97216797,-0.01373291,0.7382202,-0.734375,6.078125,2.234375
594,0.6413574,0.011413574,0.664978,8.96875,-6.390625,1.984375
595,0.58203125,-0.12164307,0.7548218,9.203125,4.046875,1.84375
596,0.79907227,-0.18560791,0.82147217,3.671875,2.765625,0.484375
597,0.74438477,-0.09991455,0.72576904,-3.03125,-2.390625,-0.109375
598,0.71972656,-0.057434082,0.670105,-10.828125,-2.859375,-1.28125
599,0.68774414,0.0018920898,0.70306396,-1.0,-1.140625,1.515625
600,0.6894531,-0.035705566,0.74505615,0.890625,-0.96875,0.5625
601,0.6870117,-0.02520752,0.7025757,2.28125,1.859375,0.34375
602,0.7636719,-0.08331299,0.7289429,-0.6875,1.28125,-1.84375
603,0.7121582,-0.043273926,0.73651123,1.625,-0.78125,2.1875
604,0.69262695,-0.05328369,0.7670288,2.015625,-1.96875,1.71875
605,0.73535156,-0.08111572,0.77093506,-2.015625,-1.84375,1.359375
606,0.78100586,-0.08355713,0.71624756,-0.953125,-4.296875,2.578125
607,0.625,-0.03765869,0.7523804,4.109375,-5.421875,2.1875
608,0.6850586,-0.070617676,0.7379761,0.265625,-4.046875,0.734375
609,0.703125,-0.074279785,0.71746826,0.15625,3.6875,-0.640625
610,0.66259766,-0.031066895,0.7687378,1.703125,5.140625,-1.875
611,0.7055664,-0.062561035,0.7863159,-5.15625,7.171875,-3.484375
612,0.84106445,-0.105285645,0.76971436,-11.96875,1.234375,0.109375
613,0.75219727,-0.059631348,0.699646,-11.046875,-9.59375,-2.5
614,0.68408203,0.030944824,0.63031006,-0.578125,-6.421875,-5.28125
615,0.69189453,-0.0154418945,0.6913452,1.9375,-4.765625,-1.046875
616,0.67749023,-0.059387207,0.6473999,4.5,-2.359375,-1.0625
617,0.6875,0.03729248,0.73773193,-0.890625,-0.109375,1.8125
618,0.609375,-0.07598877,0.7328491,-1.859375,-0.328125,1.765625
619,0.7849121,-0.07501221,0.8200073,-5.0,8.140625,2.3125
620,0.7746582,-0.07354736,0.71307373,5.53125,-10.046875,0.90625
621,0.7836914,0.024353027,0.7514038,2.65625,10.09375,4.09375
622,0.6464844,-0.020812988,0.70843506,2.515625,-2.875,8.1875
623,0.6640625,-0.08721924,0.73309326,3.328125,-0.875,3.5
624,0.6870117,-0.09649658,0.70892334,4.40625,-1.078125,2.265625
625,0.74194336,-0.04864502,0.68914795,-0.890625,0.046875,0.546875
626,0.6940918,-0.027404785,0.7387085,0.203125,0.25,3.3125
627,0.6491699,0.008239746,0.7704468,0.359375,-2.03125,1.65625
628,0.6940918,-0.01763916,0.727478,-0.265625,-1.34375,-1.609375
629,0.72387695,-0.038879395,0.7123413,2.1875,-1.03125,-0.546875
630,0.7438965,-0.04547119,0.7892456,6.328125,2.75,0.34375
631,0.6850586,-0.07232666,0.744812,2.3125,0.390625,3.875
632,0.6760254,-0.05230713,0.72772217,-0.34375,-0.25,1.0
633,0.6867676,-0.058410645,0.7260132,-1.078125,-0.109375,-0.25
634,0.720459,-0.08135986,0.77264404,-3.46875,2.234375,0.21875
635,0.7294922,-0.06524658,0.78411865,-9.984375,0.578125,-2.734375
636,0.6503906,-0.015197754,0.70526123,-15.546875,-3.203125,-1.375
637,0.6484375,0.038269043,0.664978,1.796875,-5.421875,-7.9375
638,0.7434082,0.0079956055,0.7015991,3.171875,2.34375,-3.171875
639,0.75805664,-0.03765869,0.6828003,1.234375,-0.5,2.0625
640,0.70288086,-0.065979004,0.6803589,1.515625,1.640625,-3.625
641,0.7258301,-0.055236816,0.72821045,2.953125,0.359375,-3.53125
642,0.6972656,-0.124816895,0.75115967,0.75,-1.640625,0.0625
643,0.7570801,-0.078430176,0.72210693,-3.578125,2.921875,-2.0
644,0.75,-0.046936035,0.75897217,0.890625,-3.703125,-0.640625
645,0.72802734,-0.035217285,0.7003784,-0.6875,1.453125,0.484375
646,0.7441406,-0.018859863,0.7279663,-1.53125,4.078125,0.984375
647,0.7126465,-0.031799316,0.7640991,3.96875,1.828125,2.265625
648,0.7775879,-0.11138916,0.7357788,1.078125,12.40625,3.25
649,0.6989746,-0.04034424,0.7091675,-1.640625,-3.40625,9.0625
650,0.6567383,-0.003479004,0.6300659,1.296875,-1.0625,2.25
651,0.81518555,-0.07330322,0.7597046,0.84375,12.71875,3.046875
652,0.7651367,-0.08892822,0.8065796,0.578125,-7.046875,5.328125
653,0.6599121,-0.03253174,0.7164917,-2.90625,-16.09375,0.4375
654,0.7077637,0.005554199,0.64642334,-4.078125,-5.53125,-3.0625
655,0.6789551,0.0038452148,0.64349365,-0.5625,-1.359375,-2.625
656,0.7011719,-0.0012817383,0.7289429,-1.125,-1.53125,-1.828125
657,0.6315918,-0.011047363,0.66815186,0.96875,-3.84375,-2.53125
658,0.6855469,-0.05987549,0.7116089,2.5625,2.9375,-4.328125
659,0.7609863,-0.07086182,0.76361084,3.578125,0.5625,-3.015625
660,0.73779297,-0.10333252,0.7460327,-0.3125,-0.203125,-0.046875
661,0.74609375,-0.066467285,0.7416382,-0.25,-0.75,-1.328125
662,0.7861328,-0.08135986,0.73651123,1.0625,-0.046875,-0.3125
663,0.689209,-0.046447754,0.72210693,1.40625,-2.65625,1.84375
664,0.68530273,-0.06085205,0.729187,-3.046875,0.09375,-1.015625
665,0.7043457,-0.059387207,0.70770264,-1.0,1.171875,-1.703125
666,0.6906738,-0.028625488,0.7098999,2.65625,1.53125,0.6875
667,0.68969727,-0.035461426,0.7404175,-0.296875,0.109375,1.671875
668,0.72802734,-0.08892822,0.7184448,0.515625,2.5,-0.203125
669,0.7507324,-0.06060791,0.7218628,-0.21875,3.21875,0.796875
670,0.82055664,-0.12237549,0.8287964,-9.375,11.78125,3.09375
671,0.71875,-0.06695557,0.7145386,-7.65625,-1.328125,3.90625
672,0.7338867,0.008239746,0.6559448,-6.046875,0.1875,-0.984375
673,0.6789551,-0.023010254,0.6547241,-1.796875,-4.78125,0.578125
674,0.6882324,-0.004699707,0.65618896,1.859375,-3.265625,-1.328125
675,0.6940918,-0.01373291,0.6781616,5.484375,-3.859375,-1.625
676,0.72387695,-0.06573486,0.6588745,4.109375,-3.609375,-2.34375
677,0.7043457,-0.028381348,0.7230835,4.15625,-2.015625,-2.078125
678,0.70166016,-0.05645752,0.7128296,3.3125,-2.59375,-0.171875
679,0.73950195,-0.082092285,0.75457764,4.34375,-1.515625,-1.125
680,0.7463379,-0.10357666,0.76312256,6.046875,-3.5625,-0.34375
681,0.70947266,-0.077697754,0.7374878,-0.09375,-2.078125,1.0
682,0.72924805,-0.07232666,0.715271,-2.671875,1.265625,-0.09375
683,0.7363281,-0.04840088,0.73358154,0.453125,-1.09375,0.90625
684,0.66064453,-0.05670166,0.6691284,0.359375,-1.1875,1.109375
685,0.74438477,-0.05596924,0.73480225,-0.671875,1.9375,-2.921875
686,0.7246094,-0.066711426,0.72821045,-0.875,0.578125,4.59375
687,0.6750488,-0.07354736,0.727478,0.046875,0.1875,-0.234375
688,0.7375488,-0.085754395,0.7550659,-2.5625,-0.5,-1.78125
689,0.75683594,-0.086242676,0.7345581,-7.875,0.09375,-1.015625
690,0.67700195,-0.04864502,0.7350464,-3.9375,-3.53125,1.125
691,0.6882324,-0.05255127,0.7418823,-0.8125,0.375,1.609375
692,0.70947266,-0.06768799,0.7782593,-2.296875,1.984375,2.390625
693,0.6611328,0.00018310547,0.6515503,3.328125,-6.046875,1.09375
694,0.68188477,0.012878418,0.6376343,8.625,-1.015625,-2.765625
695,0.7817383,-0.06549072,0.7062378,8.40625,1.703125,0.421875
696,0.7807617,-0.062072754,0.7472534,2.71875,6.046875,1.046875
697,0.65478516,-0.09552002,0.6791382,1.890625,-1.046875,0.828125
698,0.76464844,-0.12530518,0.7369995,2.8125,5.359375,1.046875
699,0.73876953,-0.074279785,0.71258545,3.0625,-1.234375,2.3125
700,0.7199707,-0.04937744,0.68621826,-0.984375,-1.828125,0.3125
701,0.78100586,-0.07501221,0.6906128,0.421875,-0.515625,3.1875
702,0.7167969,-0.023742676,0.7501831,4.859375,-2.84375,6.1875
703,0.58740234,-0.039367676,0.7243042,-1.46875,-5.671875,1.03125
704,0.6906738,-0.09283447,0.73309326,1.875,-1.3125,-0.03125
705,0.7319336,-0.05303955,0.7338257,-1.171875,0.390625,-1.875
706,0.69091797,-0.059631348,0.6959839,-3.8125,-0.84375,0.109375
707,0.73535156,-0.09039307,0.7391968,0.0625,2.375,-0.578125
708,0.72314453,-0.09088135,0.7435913,-1.6875,3.40625,-0.5625
709,0.71899414,-0.09503174,0.77923584,-2.890625,6.046875,3.125
710,0.7385254,-0.09552002,0.7423706,-6.59375,-0.5,2.796875
711,0.72094727,-0.081848145,0.71673584,-6.0,1.28125,0.796875
712,0.68359375,-0.0064086914,0.7086792,-1.203125,-6.859375,3.46875
713,0.67993164,-0.0015258789,0.6798706,0.03125,-9.28125,1.3125
714,0.6767578,-0.04058838,0.5910034,15.265625,-8.96875,1.578125
715,0.767334,-0.0064086914,0.66082764,6.90625,8.375,-3.828125
716,0.7607422,-0.030822754,0.65423584,0.625,1.1875,-3.15625
717,0.75219727,-0.14263916,0.7418823,-2.1875,7.765625,4.4375
718,0.6982422,-0.07672119,0.7518921,2.546875,-2.0,2.1875
719,0.73876953,-0.07354736,0.68621826,0.375,1.890625,0.515625
720,0.87280273,-0.085510254,0.7352905,-5.3125,5.453125,3.703125
721,0.76416016,-0.04864502,0.7206421,-0.453125,-3.875,4.5
722,0.6455078,-0.054504395,0.6976929,-2.25,-5.078125,-0.3125
723,0.68359375,-0.093811035,0.7062378,0.953125,-1.109375,0.53125
724,0.71655273,0.00018310547,0.746521,-0.421875,-2.28125,-1.40625
725,0.66748047,-0.042053223,0.6889038,-0.59375,-0.640625,1.90625
726,0.7109375,-0.054504395,0.7184448,-0.5,0.125,-0.34375
727,0.73828125,-0.042785645,0.7382202,-3.609375,0.015625,0.578125
728,0.65063477,-0.04107666,0.71795654,-1.953125,-1.71875,-0.90625
729,0.7739258,-0.040100098,0.71990967,-1.296875,1.90625,-1.734375
730,0.7451172,-0.054992676,0.70843506,0.625,-0.8125,0.75
731,0.7524414,-0.04547119,0.71673584,-1.328125,-1.734375,1.140625
732,0.751709,-0.06451416,0.7640991,-3.421875,-3.109375,2.015625
733,0.6660156,-0.062316895,0.74823,-3.5625,-5.21875,0.75
734,0.654541,0.0045776367,0.6432495,1.984375,-2.1875,-3.03125
735,0.77197266,0.007751465,0.7111206,-4.359375,2.78125,-0.796875
736,0.704834,-0.055236816,0.743103,-1.765625,0.921875,2.984375
737,0.65771484,-0.024719238,0.7033081,2.9375,-0.390625,0.84375
738,0.72680664,-0.04425049,0.75213623,3.296875,-0.296875,-0.421875
739,0.6711426,-0.046936035,0.73480225,2.609375,-1.078125,-2.453125
740,0.642334,-0.023742676,0.74212646,5.328125,1.484375,-5.5
741,0.7397461,-0.074523926,0.7536011,3.53125,5.09375,-0.234375
742,0.7922363,-0.11627197,0.75408936,-2.828125,-3.359375,1.5
743,0.8430176,-0.06402588,0.6119995,-1.4375,0.484375,-0.4375
744,0.8598633,-0.02154541,0.6117554,-4.390625,8.15625,0.96875
745,0.7397461,0.04949951,0.6950073,4.078125,-1.140625,4.28125
746,0.6401367,-0.03692627,0.7904663,-2.984375,-0.90625,3.125
747,0.7109375,-0.105529785,0.70892334,1.421875,-4.40625,0.046875
748,0.73461914,-0.054992676,0.6864624,-1.59375,-0.796875,-4.078125
749,0.73168945,-0.035461426,0.73114014,-5.0,-3.078125,-0.5625
750,0.65527344,-0.04547119,0.73431396,0.390625,-4.6875,2.25
751,0.7192383,-0.03765869,0.72698975,-0.65625,-1.1875,-0.40625
752,0.71118164,-0.031311035,0.7484741,-0.40625,-1.3125,3.203125
753,0.7055664,-0.006164551,0.7145386,0.65625,-0.5625,0.15625
754,0.72631836,-0.04449463,0.72698975,-0.40625,0.328125,0.734375
755,0.7458496,-0.030822754,0.75335693,0.703125,0.515625,1.5
756,0.685791,-0.04815674,0.7206421,0.46875,-2.515625,-0.171875
757,0.69506836,-0.054992676,0.72332764,0.328125,-1.96875,-1.921875
758,0.7026367,-0.06500244,0.7682495,0.28125,-0.3125,-1.546875
759,0.72094727,-0.06329346,0.7999878,-1.734375,0.78125,0.390625
