sample_no,accel_x,accel_y,accel_z,gyro_x,gyro_y,gyro_z
0,-0.8173828,-0.042541504,0.6664429,-0.984375,-0.5625,-0.640625
1,-0.81591797,-0.026916504,0.6703491,-1.0,-0.765625,-0.625
2,-0.8000488,-0.0335083,0.6815796,-0.21875,-1.53125,-0.5
3,-0.8391113,-0.042053223,0.6691284,-0.703125,-1.5,0.03125
4,-0.8276367,-0.035461426,0.6557007,-1.46875,0.125,0.609375
5,-0.8288574,-0.028381348,0.65374756,-0.328125,-0.53125,-0.046875
6,-0.81518555,-0.028869629,0.6456909,-0.03125,0.109375,0.3125
7,-0.826416,-0.02935791,0.6598511,-0.5625,0.03125,0.53125
8,-0.81689453,-0.02545166,0.65448,-0.125,-0.15625,0.71875
9,-0.83862305,-0.03741455,0.65496826,-0.15625,-0.859375,0.203125
10,-0.8366699,-0.026672363,0.65838623,-0.75,-0.671875,-0.375
11,-0.8359375,-0.027404785,0.6588745,-1.046875,0.0625,-0.234375
12,-0.842041,-0.031311035,0.68621826,0.609375,0.34375,1.40625
13,-0.8383789,-0.04498291,0.6503296,0.21875,-0.078125,1.0
14,-0.82421875,-0.028869629,0.65545654,0.1875,-0.8125,-0.3125
15,-0.83325195,-0.04449463,0.666687,0.734375,-1.390625,-0.21875
16,-0.8310547,-0.027893066,0.6520386,-0.546875,-1.609375,-1.109375
17,-0.82910156,-0.015197754,0.6535034,-0.578125,-0.65625,-0.53125
18,-0.83325195,-0.01373291,0.65179443,0.546875,-0.609375,0.453125
19,-0.826416,-0.026428223,0.65448,1.046875,-0.53125,0.875
20,-0.83081055,-0.035461426,0.6430054,0.59375,-0.5625,0.9375
21,-0.8261719,-0.027893066,0.6478882,-0.265625,-0.15625,0.4375
22,-0.8391113,-0.03277588,0.65130615,0.046875,-0.28125,0.296875
23,-0.8256836,-0.036193848,0.6581421,0.0625,-0.25,0.09375
24,-0.84033203,-0.027648926,0.6588745,-0.46875,-0.390625,-0.15625
25,-0.8334961,-0.017150879,0.6622925,-0.15625,-0.546875,0.15625
26,-0.8261719,-0.02130127,0.6593628,0.109375,-0.28125,0.3125
27,-0.8234863,-0.030334473,0.6508179,0.328125,-0.703125,0.59375
28,-0.82666016,-0.03277588,0.6478882,0.15625,-0.78125,0.203125
29,-0.83203125,-0.028625488,0.6564331,0.0,-0.84375,0.171875
30,-0.83569336,-0.027404785,0.64398193,-0.453125,-0.703125,0.296875
31,-0.8503418,-0.031311035,0.66522217,0.46875,-0.703125,0.625
32,-0.8256836,-0.03668213,0.65130615,-0.015625,-0.015625,0.421875
33,-0.84106445,-0.0010375977,0.66815186,-0.578125,-0.671875,0.078125
34,-0.828125,-0.037902832,0.6647339,0.9375,-0.984375,0.65625
35,-0.829834,-0.032287598,0.65423584,0.046875,-0.875,0.328125
36,-0.8305664,-0.029846191,0.65374756,0.8125,-0.890625,0.234375
37,-0.82128906,-0.026916504,0.64642334,-0.90625,-0.46875,-0.21875
38,-0.83569336,-0.022033691,0.65496826,-0.28125,-0.46875,0.625
39,-0.8449707,-0.026916504,0.64520264,0.078125,-0.421875,0.296875
40,-0.842041,-0.032043457,0.6486206,0.359375,0.0,0.390625
41,-0.845459,-0.04058838,0.6613159,0.6875,0.0,0.796875
42,-0.8178711,-0.018859863,0.6469116,-0.703125,0.6875,0.109375
43,-0.8312988,-0.027893066,0.65618896,0.515625,-0.125,0.21875
44,-0.8227539,-0.03692627,0.65740967,-0.140625,-0.5,0.359375
45,-0.83154297,-0.034484863,0.6605835,-0.3125,-0.328125,0.234375
46,-0.83203125,-0.024719238,0.66033936,0.203125,-0.59375,-0.109375
47,-0.8339844,-0.035217285,0.6642456,0.078125,-0.671875,0.296875
48,-0.8300781,-0.02960205,0.65911865,-0.1875,-0.6875,0.375
49,-0.83862305,-0.031066895,0.651062,-0.015625,-0.625,0.46875
50,-0.84228516,-0.031799316,0.65618896,0.296875,-0.328125,0.25
51,-0.8310547,-0.026672363,0.6552124,0.359375,0.328125,0.40625
52,-0.82128906,-0.02130127,0.65423584,-0.3125,-0.03125,-0.203125
53,-0.8286133,-0.027648926,0.66204834,0.109375,-0.671875,0.171875
54,-0.8269043,-0.03326416,0.6613159,0.203125,-0.75,0.453125
55,-0.828125,-0.032287598,0.6552124,0.109375,-0.34375,0.0
56,-0.84375,-0.038391113,0.66156006,0.984375,-1.5625,0.359375
57,-0.8190918,-0.032287598,0.64715576,0.015625,-0.5625,-0.296875
58,-0.8330078,-0.03277588,0.6520386,0.453125,-0.9375,0.125
59,-0.83203125,-0.034240723,0.64715576,0.25,-1.171875,0.03125
60,-0.82788086,-0.031066895,0.6532593,0.09375,-1.21875,0.109375
61,-0.84033203,-0.026428223,0.65374756,0.453125,-0.71875,0.6875
62,-0.8417969,-0.034973145,0.65667725,0.640625,-0.671875,0.359375
63,-0.83691406,-0.04083252,0.6547241,0.1875,-0.53125,0.046875
64,-0.8249512,-0.035949707,0.6522827,-0.171875,-0.859375,-0.1875
65,-0.84228516,-0.029846191,0.6481323,-0.359375,-0.671875,0.0
66,-0.8227539,-0.024963379,0.6415405,-0.390625,-0.390625,-0.15625
67,-0.83984375,-0.041809082,0.65960693,0.828125,-1.203125,0.0
68,-0.83984375,-0.039367676,0.6547241,-0.65625,0.234375,0.484375
69,-0.83325195,-0.020080566,0.6473999,-1.421875,-0.03125,0.28125
70,-0.8273926,-0.0256958,0.65179443,0.765625,-0.25,0.71875
71,-0.84106445,-0.04815674,0.66033936,1.1875,-0.9375,0.515625
72,-0.83251953,-0.043273926,0.65423584,0.234375,-0.671875,-0.15625
73,-0.83618164,-0.03741455,0.651062,-0.765625,-0.875,-0.3125
74,-0.826416,-0.023010254,0.64349365,-0.546875,-1.15625,-0.078125
75,-0.8359375,-0.024475098,0.65496826,0.515625,-0.59375,0.34375
76,-0.84375,-0.03692627,0.6522827,1.046875,-0.296875,0.25
77,-0.83447266,-0.03643799,0.6473999,0.109375,-0.046875,0.109375
78,-0.8251953,-0.03717041,0.6430054,-0.484375,0.359375,-0.15625
79,-0.8317871,-0.03253174,0.64520264,-0.984375,-0.390625,-0.109375
80,-0.8317871,-0.027160645,0.6473999,-0.6875,0.015625,0.015625
81,-0.8354492,-0.031799316,0.6576538,1.015625,-0.203125,0.6875
82,-0.82421875,-0.035461426,0.65179443,0.5,-0.828125,0.171875
83,-0.8347168,-0.024719238,0.6478882,-1.1875,-0.78125,-0.28125
84,-0.8305664,-0.031555176,0.6598511,0.59375,-0.546875,0.53125
85,-0.82836914,-0.032287598,0.6520386,-0.390625,-0.953125,0.078125
86,-0.829834,-0.018859863,0.6515503,-0.125,-0.671875,0.09375
87,-0.83569336,-0.027893066,0.649353,0.359375,-0.234375,0.5625
88,-0.8286133,-0.026428223,0.6559448,0.421875,-0.28125,0.3125
89,-0.8371582,-0.035217285,0.6664429,0.40625,-0.53125,0.203125
90,-0.8234863,-0.033996582,0.65252686,-0.375,-0.3125,0.34375
91,-0.82543945,-0.019592285,0.65838623,-0.625,-0.34375,0.015625
92,-0.8339844,-0.022521973,0.65448,0.234375,-0.53125,0.109375
93,-0.83618164,-0.027404785,0.6564331,0.421875,-0.828125,0.125
94,-0.83496094,-0.026672363,0.6586304,0.578125,-0.53125,0.484375
95,-0.83984375,-0.031311035,0.6539917,0.296875,-0.0625,0.5625
96,-0.83251953,-0.02911377,0.65545654,0.015625,-0.546875,0.234375
97,-0.8300781,-0.035705566,0.65057373,-0.28125,-0.453125,-0.15625
98,-0.8317871,-0.024475098,0.6552124,-0.3125,-0.296875,-0.015625
99,-0.8359375,-0.023254395,0.6588745,-0.03125,-0.296875,0.0625
100,-0.8395996,-0.027160645,0.65545654,0.609375,-0.6875,0.46875
101,-0.82373047,-0.033996582,0.6564331,0.546875,-0.296875,0.28125
102,-0.8288574,-0.02911377,0.6491089,-0.421875,-0.734375,-0.0625
103,-0.82714844,-0.024475098,0.6498413,-0.59375,-0.9375,-0.171875
104,-0.8359375,-0.024963379,0.6508179,-0.609375,-0.234375,-0.0625
105,-0.84106445,-0.03326416,0.6637573,0.765625,-0.1875,0.875
106,-0.82714844,-0.029846191,0.6559448,0.171875,-0.59375,0.25
107,-0.84106445,-0.023742676,0.649353,-0.90625,-0.453125,0.265625
108,-0.83203125,-0.03277588,0.6503296,0.234375,-0.859375,0.515625
109,-0.8251953,-0.036193848,0.65423584,-0.125,-0.328125,0.328125
110,-0.83984375,-0.034973145,0.6610718,-0.078125,-0.21875,0.015625
111,-0.82836914,-0.028381348,0.6557007,-0.578125,-0.25,0.34375
112,-0.83325195,-0.0178833,0.6532593,-0.578125,-0.34375,0.15625
113,-0.8391113,-0.03302002,0.6557007,0.796875,-0.515625,0.625
114,-0.8339844,-0.038879395,0.65838623,0.1875,-0.78125,0.015625
115,-0.82836914,-0.023254395,0.65057373,-0.375,-0.9375,-0.28125
116,-0.82836914,-0.018127441,0.6559448,-0.828125,-0.34375,-0.21875
117,-0.8312988,-0.02178955,0.65179443,0.21875,-0.421875,0.625
118,-0.83740234,-0.032043457,0.6571655,0.890625,-0.515625,0.6875
119,-0.8364258,-0.03692627,0.65789795,0.578125,-0.78125,0.453125
120,-0.8366699,-0.026916504,0.6547241,-0.125,-0.625,0.078125
121,-0.83691406,-0.033996582,0.6532593,-0.5,-0.296875,0.0625
122,-0.84033203,-0.029846191,0.6559448,-0.328125,-0.21875,-0.125
123,-0.826416,-0.0256958,0.65545654,-0.21875,0.25,-0.046875
124,-0.84643555,-0.022521973,0.6691284,0.53125,-1.109375,0.71875
125,-0.826416,-0.024719238,0.65423584,-0.1875,-0.40625,0.21875
126,-0.83203125,-0.019592285,0.65789795,0.078125,-0.65625,0.234375
127,-0.8334961,-0.034484863,0.6557007,0.984375,-0.828125,0.640625
128,-0.83862305,-0.03717041,0.6547241,0.328125,-0.78125,0.171875
129,-0.8371582,-0.023498535,0.6520386,-0.28125,-0.703125,-0.34375
130,-0.82836914,-0.027648926,0.6481323,-0.203125,-0.171875,-0.03125
131,-0.8417969,-0.026428223,0.65008545,-0.390625,-0.015625,0.65625
132,-0.83496094,-0.03277588,0.6491089,0.703125,-0.59375,1.109375
133,-0.8305664,-0.031799316,0.6535034,1.0625,-0.65625,0.78125
134,-0.828125,-0.028137207,0.65374756,0.484375,-0.921875,0.203125
135,-0.8312988,-0.038635254,0.66033936,0.359375,-0.6875,0.1875
136,-0.83862305,-0.034240723,0.65545654,-0.484375,-0.390625,0.0
137,-0.83081055,-0.020324707,0.6481323,-0.734375,-0.453125,-0.1875
138,-0.8305664,-0.026672363,0.6498413,0.578125,-0.46875,0.375
139,-0.83618164,-0.032043457,0.6588745,1.140625,-0.8125,0.296875
140,-0.8276367,-0.03765869,0.6466675,-0.46875,-0.609375,-0.328125
141,-0.826416,-0.028869629,0.65057373,-1.046875,-0.28125,-0.046875
142,-0.845459,-0.042053223,0.65130615,0.609375,-0.375,0.6875
143,-0.8288574,-0.047912598,0.6547241,0.3125,-0.359375,0.265625
144,-0.8286133,-0.022521973,0.6469116,-1.0625,-0.546875,-0.453125
145,-0.83374023,-0.02520752,0.6498413,-0.25,-0.296875,0.375
146,-0.8342285,-0.047424316,0.65740967,1.375,-0.015625,1.046875
147,-0.8461914,-0.039855957,0.66033936,0.984375,-1.296875,0.5625
148,-0.82177734,-0.034729004,0.64886475,-0.078125,-0.890625,-0.359375
149,-0.842041,-0.03668213,0.65301514,-0.453125,-0.875,-0.171875
150,-0.8286133,-0.03741455,0.65667725,0.03125,-0.5625,-0.078125
151,-0.8376465,-0.03692627,0.65374756,-0.609375,-0.5,-0.25
152,-0.83813477,-0.030334473,0.6539917,-0.078125,-0.640625,0.1875
153,-0.8347168,-0.029846191,0.649353,-0.015625,-0.625,-0.015625
154,-0.8300781,-0.032043457,0.6522827,-0.0625,-0.953125,-0.09375
155,-0.8347168,-0.030578613,0.6503296,0.609375,-1.1875,0.59375
156,-0.83251953,-0.038635254,0.6478882,0.3125,-0.96875,-0.09375
157,-0.83374023,-0.034729004,0.6469116,0.375,-1.125,-0.3125
158,-0.83569336,-0.04498291,0.6466675,0.03125,-1.265625,-0.375
159,-0.8388672,-0.019836426,0.64764404,-1.078125,-1.1875,-0.703125
160,-0.8322754,-0.013977051,0.6425171,-0.546875,-0.78125,-0.1875
161,-0.845459,-0.034729004,0.65374756,0.875,-0.75,1.03125
162,-0.83618164,-0.033996582,0.64349365,0.46875,-0.796875,0.203125
163,-0.8347168,-0.033996582,0.6461792,-0.21875,-0.640625,-0.359375
164,-0.84716797,-0.026672363,0.6481323,-0.296875,-0.484375,0.375
165,-0.8442383,-0.03253174,0.64227295,-0.15625,-0.5,0.40625
166,-0.8417969,-0.024963379,0.6473999,0.09375,-0.640625,-0.046875
167,-0.8378906,-0.028869629,0.63812256,-0.078125,-0.34375,0.03125
168,-0.8469238,-0.02935791,0.6461792,0.15625,-0.78125,0.171875
169,-0.8300781,-0.031555176,0.6444702,0.015625,-0.140625,-0.015625
170,-0.85498047,-0.022277832,0.6605835,0.15625,-1.296875,0.390625
171,-0.83032227,-0.031555176,0.6395874,-0.3125,-0.4375,0.109375
172,-0.84399414,-0.025939941,0.64105225,0.21875,-0.359375,-0.078125
173,-0.83203125,-0.02960205,0.6430054,0.53125,-0.5625,0.28125
174,-0.8371582,-0.03277588,0.64471436,-0.0625,-0.875,0.28125
175,-0.84155273,-0.02545166,0.649353,-0.40625,-0.59375,0.109375
176,-0.8391113,-0.02911377,0.63616943,-0.6875,-0.78125,0.21875
177,-0.8469238,-0.0256958,0.63861084,0.40625,-0.328125,0.265625
178,-0.84716797,-0.032287598,0.6425171,0.96875,-0.296875,0.578125
179,-0.8359375,-0.03326416,0.6359253,-0.234375,-0.328125,0.203125
180,-0.8378906,-0.02935791,0.63861084,-0.59375,-0.09375,0.3125
181,-0.84594727,-0.04449463,0.6552124,1.171875,-0.578125,0.71875
182,-0.84155273,-0.031555176,0.6456909,0.15625,-0.671875,-0.09375
183,-0.84375,-0.030822754,0.6437378,-0.328125,-0.390625,-0.171875
184,-0.8366699,-0.024719238,0.63934326,-0.609375,-0.28125,0.03125
185,-0.83935547,-0.024963379,0.6425171,0.375,-0.4375,0.421875
186,-0.8449707,-0.034729004,0.6454468,0.78125,-0.734375,0.390625
187,-0.83618164,-0.034240723,0.6437378,0.3125,-0.484375,0.15625
188,-0.84521484,-0.028625488,0.6378784,0.078125,-0.1875,0.078125
189,-0.8449707,-0.03643799,0.6473999,0.296875,-0.296875,0.234375
190,-0.83325195,-0.024719238,0.63983154,-0.4375,-0.28125,-0.140625
191,-0.84375,-0.025939941,0.6491089,0.328125,-0.578125,0.203125
192,-0.83618164,-0.03765869,0.6415405,0.328125,-0.125,0.609375
193,-0.84594727,-0.024475098,0.65838623,0.484375,-1.1875,0.34375
194,-0.83447266,-0.0335083,0.6473999,-0.34375,-0.578125,0.15625
195,-0.8364258,-0.027648926,0.6378784,-0.765625,-0.390625,-0.234375
196,-0.842041,-0.034484863,0.64959717,0.75,-0.546875,0.328125
197,-0.8457031,-0.03765869,0.64837646,0.703125,-0.6875,0.390625
198,-0.84643555,-0.026428223,0.6366577,-0.515625,-0.609375,-0.15625
199,-0.84399414,-0.035217285,0.64764404,-0.53125,-0.671875,-0.046875
200,-0.8391113,-0.03326416,0.6415405,-0.515625,-0.296875,0.234375
201,-0.8479004,-0.02960205,0.6503296,0.390625,-0.53125,0.453125
202,-0.83251953,-0.024230957,0.6469116,0.21875,-0.34375,0.5
203,-0.8432617,-0.025939941,0.6430054,0.328125,-0.453125,0.28125
204,-0.83740234,-0.04498291,0.64593506,0.1875,-0.578125,0.21875
205,-0.8378906,-0.034729004,0.64056396,-0.890625,-0.546875,-0.4375
206,-0.84277344,-0.028625488,0.6456909,-0.390625,-0.484375,0.015625
207,-0.84277344,-0.02911377,0.6442261,0.609375,-0.0625,0.5
208,-0.8430176,-0.03326416,0.65008545,0.828125,-0.375,0.40625
209,-0.84472656,-0.036193848,0.6412964,0.390625,-0.640625,0.25
210,-0.83984375,-0.030578613,0.65252686,0.390625,-0.71875,0.09375
211,-0.8444824,-0.034240723,0.6264038,-0.015625,-0.171875,0.171875
212,-0.83569336,-0.03277588,0.6449585,0.921875,-0.34375,-0.390625
213,-0.83813477,-0.027404785,0.64886475,0.640625,-0.171875,0.28125
214,-0.8383789,-0.035461426,0.638855,0.4375,-0.421875,0.546875
215,-0.8376465,-0.0413208,0.64715576,0.34375,-0.421875,0.109375
216,-0.8334961,-0.029846191,0.638855,-0.5,0.078125,-0.3125
217,-0.85131836,-0.03717041,0.6481323,-0.21875,-0.78125,0.46875
218,-0.83032227,-0.028381348,0.6466675,0.0625,0.125,0.296875
219,-0.8461914,-0.029846191,0.64642334,0.375,-0.53125,0.296875
220,-0.83691406,-0.04083252,0.6293335,0.53125,-0.296875,0.015625
221,-0.8522949,-0.03277588,0.6312866,0.265625,-0.59375,-0.578125
222,-0.8310547,-0.02960205,0.6581421,1.78125,0.328125,-0.1875
223,-0.8413086,-0.034484863,0.649353,0.828125,0.03125,0.265625
224,-0.8405762,-0.030578613,0.6539917,0.5625,-0.59375,0.53125
225,-0.8417969,-0.037902832,0.6522827,0.765625,-0.875,0.71875
226,-0.8354492,-0.038146973,0.6378784,0.4375,-0.4375,0.15625
227,-0.85058594,-0.038391113,0.65301514,1.21875,-0.84375,0.40625
228,-0.8273926,-0.032287598,0.6347046,-0.453125,-0.265625,-0.4375
229,-0.8405762,-0.035217285,0.65057373,0.90625,-0.703125,0.5
230,-0.84228516,-0.038146973,0.64642334,0.03125,-0.484375,0.390625
231,-0.83203125,-0.028625488,0.6444702,-0.734375,-0.578125,-0.125
232,-0.84594727,-0.038635254,0.6347046,-0.296875,-0.96875,-0.015625
233,-0.83813477,-0.039123535,0.6642456,0.21875,-0.296875,0.390625
234,-0.8400879,-0.039367676,0.6559448,0.46875,-0.09375,0.6875
235,-0.8342285,-0.030578613,0.6491089,-0.28125,-0.828125,-0.09375
236,-0.83862305,-0.020568848,0.65545654,-0.703125,-0.515625,0.046875
237,-0.83496094,-0.034240723,0.6586304,-0.09375,-0.4375,0.109375
238,-0.8347168,-0.03692627,0.66156006,0.296875,-0.125,0.6875
239,-0.83374023,-0.039367676,0.6622925,0.453125,-0.40625,0.609375
240,-0.82373047,-0.030578613,0.6454468,-0.4375,-0.484375,0.1875
241,-0.8273926,-0.024963379,0.65423584,-0.546875,-0.609375,-0.015625
242,-0.8273926,-0.034240723,0.6586304,0.15625,-0.515625,0.25
243,-0.8359375,-0.030578613,0.6618042,0.078125,-0.6875,0.25
244,-0.8352051,-0.031311035,0.6491089,0.140625,-0.640625,0.15625
245,-0.83618164,-0.031555176,0.65130615,0.234375,-0.265625,0.359375
246,-0.82714844,-0.035949707,0.65667725,-0.09375,-0.078125,0.3125
247,-0.8327637,-0.035217285,0.6552124,-0.40625,-0.359375,-0.015625
248,-0.8305664,-0.028869629,0.65667725,-0.328125,-0.6875,-0.03125
249,-0.82836914,-0.028625488,0.65960693,-0.34375,-0.296875,0.046875
250,-0.8330078,-0.02130127,0.65130615,-0.40625,-0.296875,0.265625
251,-0.83935547,-0.041809082,0.6552124,0.90625,-0.40625,0.5625
252,-0.8293457,-0.046203613,0.65179443,0.28125,0.015625,0.109375
253,-0.8425293,-0.040100098,0.65374756,-0.046875,-1.046875,-0.015625
254,-0.81811523,-0.032287598,0.64520264,-0.625,0.03125,0.078125
255,-0.8383789,-0.035217285,0.65789795,0.28125,-0.609375,0.53125
256,-0.828125,-0.04058838,0.6600952,0.21875,-0.8125,0.1875
257,-0.82543945,-0.032043457,0.65496826,-0.265625,-0.609375,0.046875
258,-0.8327637,-0.029846191,0.65838623,-0.0625,-0.390625,-0.078125
259,-0.8322754,-0.026428223,0.65496826,-0.421875,-0.3125,0.171875
260,-0.83251953,-0.030090332,0.65545654,0.046875,-0.390625,0.171875
261,-0.8378906,-0.03302002,0.6557007,0.234375,-0.40625,0.4375
262,-0.8330078,-0.028869629,0.6539917,-0.484375,-0.375,0.15625
263,-0.83618164,-0.031555176,0.6569214,0.15625,-0.828125,0.078125
264,-0.8300781,-0.02911377,0.6552124,-0.1875,-1.078125,-0.265625
265,-0.8339844,-0.030090332,0.6547241,0.296875,-1.546875,-0.03125
266,-0.8327637,-0.038391113,0.66326904,0.328125,-0.28125,0.421875
267,-0.84155273,-0.035949707,0.649353,-0.34375,0.84375,0.75
268,-0.83251953,-0.031555176,0.64959717,-0.046875,-0.3125,0.421875
269,-0.83203125,-0.035949707,0.6522827,-0.40625,-0.4375,0.140625
270,-0.8300781,-0.03765869,0.651062,-0.21875,-0.59375,-0.171875
271,-0.8288574,-0.019104004,0.6486206,-0.21875,-0.78125,-0.078125
272,-0.8300781,-0.028381348,0.6605835,0.03125,0.046875,0.671875
273,-0.83813477,-0.0335083,0.65301514,0.203125,-0.0625,0.65625
274,-0.8359375,-0.043029785,0.6508179,0.53125,-0.671875,0.3125
275,-0.8273926,-0.036193848,0.64764404,-0.390625,0.015625,-0.40625
276,-0.8461914,-0.03668213,0.6581421,-0.1875,-0.828125,0.234375
277,-0.8222656,-0.028137207,0.6535034,-0.6875,0.015625,-0.140625
278,-0.83984375,-0.034240723,0.6625366,0.703125,-0.46875,0.5625
279,-0.8276367,-0.035705566,0.6552124,0.9375,-0.90625,0.21875
280,-0.829834,-0.038879395,0.64715576,-0.5,-0.578125,-0.359375
281,-0.83032227,-0.02545166,0.6559448,-0.875,-0.34375,-0.1875
282,-0.8286133,-0.026184082,0.6552124,-0.1875,-0.21875,0.3125
283,-0.83569336,-0.028137207,0.6588745,0.671875,-0.390625,0.5
284,-0.8354492,-0.039123535,0.65667725,0.75,-0.75,0.484375
285,-0.8310547,-0.027404785,0.65130615,-0.203125,-0.515625,0.078125
286,-0.8359375,-0.03765869,0.6508179,-0.0625,-0.84375,-0.203125
287,-0.83032227,-0.039367676,0.6486206,0.03125,-1.53125,-0.71875
288,-0.83447266,-0.028137207,0.64959717,0.40625,-1.296875,-0.265625
289,-0.83496094,-0.023254395,0.6522827,0.53125,-0.921875,0.5625
290,-0.8251953,-0.028137207,0.6503296,0.59375,-0.96875,-0.09375
291,-0.82421875,-0.026428223,0.65057373,0.484375,-1.4375,-0.171875
292,-0.83154297,-0.040100098,0.65252686,1.125,-1.96875,0.078125
293,-0.8395996,-0.03302002,0.64349365,-0.171875,-0.546875,0.046875
294,-0.8469238,-0.027648926,0.6359253,-0.421875,0.390625,-0.046875
295,-0.84521484,-0.035705566,0.6466675,-0.234375,0.15625,0.40625
296,-0.84033203,-0.0256958,0.6503296,-0.234375,0.265625,0.46875
297,-0.8430176,-0.027160645,0.65448,0.34375,-0.0625,0.453125
298,-0.8312988,-0.032043457,0.65057373,0.296875,0.25,0.171875
299,-0.8395996,-0.024230957,0.6676636,0.328125,-1.21875,0.1875
300,-0.83203125,-0.04058838,0.6442261,-0.375,-0.765625,0.140625
301,-0.83325195,-0.028137207,0.6481323,-0.328125,-0.828125,-0.453125
302,-0.8395996,-0.043273926,0.65374756,0.453125,-0.75,0.078125
303,-0.8359375,-0.03375244,0.6478882,-0.59375,-0.734375,-0.109375
304,-0.8388672,-0.01739502,0.64642334,-0.953125,-0.640625,-0.359375
305,-0.84106445,-0.029846191,0.6403198,-0.390625,-1.046875,0.109375
306,-0.8425293,-0.028381348,0.64715576,0.1875,-0.8125,0.265625
307,-0.84765625,-0.026916504,0.6454468,0.484375,-1.125,0.171875
308,-0.83569336,-0.03375244,0.64959717,0.328125,-0.546875,0.484375
309,-0.83691406,-0.03668213,0.6449585,1.078125,-1.09375,0.125
310,-0.82177734,-0.031555176,0.64593506,0.046875,-1.8125,-0.59375
311,-0.83984375,-0.03375244,0.651062,-0.421875,-1.421875,-0.375
312,-0.8466797,-0.027648926,0.6454468,-0.21875,-1.046875,0.0
313,-0.84472656,-0.026428223,0.6449585,-0.140625,-0.59375,0.203125
314,-0.84521484,-0.024230957,0.6442261,0.609375,-0.734375,0.171875
315,-0.8413086,-0.023742676,0.64349365,0.421875,-0.53125,-0.046875
316,-0.83862305,-0.02935791,0.6400757,-0.25,-0.546875,-0.203125
317,-0.83569336,-0.028137207,0.64398193,-0.5625,-0.40625,0.046875
318,-0.84155273,-0.028137207,0.6430054,-0.46875,-0.109375,0.25
319,-0.8383789,-0.022766113,0.6461792,-0.03125,-0.0625,0.515625
320,-0.8461914,-0.035217285,0.6454468,0.375,-0.34375,0.421875
321,-0.8269043,-0.032043457,0.63983154,0.140625,-0.09375,-0.015625
322,-0.85180664,-0.026916504,0.6473999,0.390625,-1.4375,0.3125
323,-0.8286133,-0.026428223,0.63153076,-0.234375,-0.625,-0.171875
324,-0.84765625,-0.03253174,0.64520264,-0.046875,-1.0625,-0.25
325,-0.83984375,-0.031311035,0.6486206,0.265625,-0.875,0.28125
326,-0.84228516,-0.02545166,0.63739014,-0.640625,-0.640625,-0.015625
327,-0.84716797,-0.015197754,0.6442261,-0.28125,-0.5,0.203125
328,-0.84814453,-0.022521973,0.6281128,0.328125,-0.125,0.875
329,-0.8366699,-0.026916504,0.6383667,1.703125,-1.0,1.078125
330,-0.85913086,-0.04815674,0.6430054,1.421875,-2.09375,0.796875
331,-0.842041,-0.03717041,0.63812256,-0.125,-1.015625,0.09375
332,-0.8569336,-0.028625488,0.6359253,0.171875,-0.859375,-0.078125
333,-0.85131836,-0.034973145,0.6298218,0.40625,-0.4375,0.375
334,-0.8486328,-0.036193848,0.638855,0.046875,-0.0625,0.046875
335,-0.84716797,-0.02545166,0.62371826,0.9375,0.34375,0.171875
336,-0.8347168,-0.032287598,0.63494873,0.515625,-0.140625,0.359375
337,-0.845459,-0.02545166,0.6383667,-1.15625,-0.421875,-0.1875
338,-0.8474121,-0.021057129,0.6444702,-0.765625,-0.5,0.265625
339,-0.8442383,-0.025939941,0.6378784,0.546875,-0.328125,0.84375
340,-0.8405762,-0.027404785,0.649353,1.21875,-0.59375,0.515625
341,-0.8376465,-0.031066895,0.64227295,0.546875,-0.734375,0.1875
342,-0.8330078,-0.030090332,0.63983154,-0.53125,-0.875,-0.171875
343,-0.8383789,-0.023010254,0.64764404,-0.671875,-0.671875,-0.21875
344,-0.8457031,-0.012268066,0.6366577,-0.34375,-0.8125,0.21875
345,-0.85058594,-0.020812988,0.638855,0.140625,-0.46875,0.640625
346,-0.8347168,-0.029846191,0.64056396,1.34375,-0.453125,0.75
347,-0.84814453,-0.035217285,0.63812256,0.453125,-0.6875,0.40625
348,-0.84936523,-0.034729004,0.6415405,-0.109375,-0.640625,0.296875
349,-0.8330078,-0.026672363,0.63739014,-0.609375,-0.390625,-0.328125
350,-0.8405762,-0.023986816,0.64349365,-0.765625,-0.359375,-0.265625
351,-0.8388672,-0.016174316,0.63934326,-0.671875,0.1875,0.453125
352,-0.83984375,-0.028625488,0.64642334,0.90625,-0.265625,0.546875
353,-0.8330078,-0.026184082,0.63323975,-0.234375,0.0625,-0.125
354,-0.84399414,-0.035949707,0.6420288,0.359375,-1.359375,0.40625
355,-0.8347168,-0.026916504,0.6305542,-1.078125,-0.046875,-0.6875
356,-0.8474121,-0.028869629,0.65057373,0.34375,-0.5625,-0.140625
357,-0.83569336,-0.03302002,0.63934326,-0.109375,-0.40625,0.296875
358,-0.8339844,-0.015930176,0.6322632,-0.9375,-0.546875,0.078125
359,-0.84521484,-0.020324707,0.64715576,0.0625,-0.640625,0.609375
360,-0.8432617,-0.027404785,0.64642334,1.015625,-0.5625,0.921875
361,-0.85009766,-0.040100098,0.6466675,1.46875,-1.046875,0.3125
362,-0.8354492,-0.03253174,0.637146,-0.015625,-0.703125,-0.390625
363,-0.8347168,-0.022277832,0.63446045,-1.140625,-0.265625,0.078125
364,-0.85180664,-0.030578613,0.64764404,-0.28125,-0.0625,0.796875
365,-0.8408203,-0.02935791,0.63934326,0.390625,-0.53125,0.171875
366,-0.84399414,-0.026672363,0.6415405,-0.203125,-0.53125,0.25
367,-0.845459,-0.0256958,0.6390991,-0.03125,-0.546875,0.28125
368,-0.8395996,-0.02911377,0.63861084,0.21875,-0.40625,0.484375
369,-0.84399414,-0.039611816,0.6376343,0.234375,-0.421875,0.25
370,-0.8371582,-0.034973145,0.6347046,0.15625,-0.390625,0.34375
371,-0.8474121,-0.028625488,0.6425171,-0.1875,-0.25,-0.078125
372,-0.842041,-0.022033691,0.63275146,-0.6875,-0.265625,-0.046875
373,-0.8430176,-0.020080566,0.6415405,-0.421875,-0.15625,0.21875
374,-0.8276367,-0.023498535,0.6364136,-0.140625,0.4375,0.375
375,-0.8654785,-0.043273926,0.6547241,2.078125,-1.203125,1.171875
376,-0.82910156,-0.035949707,0.638855,0.203125,-0.390625,0.0625
377,-0.85302734,-0.026672363,0.64227295,-0.15625,-0.96875,-0.234375
378,-0.8444824,-0.03643799,0.6491089,0.4375,-0.625,0.65625
379,-0.84033203,-0.02960205,0.6329956,-0.65625,-0.171875,0.140625
380,-0.8364258,-0.024719238,0.63494873,0.609375,-0.78125,0.03125
381,-0.84521484,-0.027893066,0.64276123,-0.53125,-0.625,0.34375
382,-0.8562012,-0.026916504,0.64837646,0.15625,-0.546875,0.578125
383,-0.83691406,-0.037902832,0.63153076,0.1875,-0.453125,0.15625
384,-0.83203125,-0.023986816,0.6210327,-1.0625,0.0,-0.6875
385,-0.8354492,-0.020812988,0.63397217,-0.828125,-0.375,-0.09375
386,-0.8405762,-0.02911377,0.6408081,-0.140625,-0.21875,0.296875
387,-0.8425293,-0.02935791,0.6442261,0.0,-0.28125,0.21875
388,-0.8581543,-0.037902832,0.6437378,0.203125,-0.1875,0.828125
389,-0.8400879,-0.04107666,0.6351929,-0.125,0.046875,0.21875
390,-0.8383789,-0.039123535,0.6334839,-0.625,-0.078125,-0.53125
391,-0.8457031,-0.018371582,0.64593506,-1.25,-0.625,-0.078125
392,-0.826416,-0.023986816,0.6415405,-0.390625,0.15625,0.484375
393,-0.8508301,-0.03277588,0.64471436,1.296875,-0.25,0.84375
394,-0.8376465,-0.035217285,0.638855,0.96875,-0.625,0.65625
395,-0.84716797,-0.03277588,0.63690186,-0.5,-0.703125,-0.25
396,-0.8388672,-0.025939941,0.637146,-0.828125,-0.671875,-0.078125
397,-0.83935547,-0.026428223,0.64276123,-0.421875,-0.0625,0.484375
398,-0.8444824,-0.026916504,0.64715576,0.859375,-0.5,0.65625
399,-0.83862305,-0.03741455,0.6420288,0.640625,-0.640625,0.46875
400,-0.8347168,-0.02154541,0.63568115,-0.375,-0.640625,0.234375
401,-0.8508301,-0.024230957,0.64105225,-0.09375,-0.84375,0.1875
402,-0.83740234,-0.03302002,0.6454468,0.15625,-0.703125,0.28125
403,-0.85180664,-0.0256958,0.64276123,0.234375,-0.671875,-0.03125
404,-0.84399414,-0.026184082,0.6390991,0.125,-0.546875,0.109375
405,-0.84106445,-0.030090332,0.6390991,0.328125,-0.390625,0.515625
406,-0.8413086,-0.03253174,0.6408081,0.15625,-0.5625,0.015625
407,-0.842041,-0.032043457,0.638855,-0.515625,-0.484375,-0.234375
408,-0.84375,-0.0256958,0.6329956,-0.296875,-0.171875,0.140625
409,-0.8457031,-0.024230957,0.6442261,0.125,-0.484375,0.40625
410,-0.845459,-0.026184082,0.63861084,0.4375,-0.203125,0.515625
411,-0.8405762,-0.019592285,0.64056396,0.125,-0.46875,0.546875
412,-0.8408203,-0.04083252,0.63494873,0.203125,-0.875,0.53125
413,-0.8359375,-0.028381348,0.63934326,-0.46875,-0.28125,-0.328125
414,-0.84765625,-0.037902832,0.6478882,0.703125,-0.515625,0.1875
415,-0.8466797,-0.026672363,0.6342163,-0.046875,-0.46875,0.1875
416,-0.8405762,-0.018859863,0.6415405,0.015625,-0.8125,0.1875
417,-0.84521484,-0.022277832,0.6395874,0.15625,-0.65625,0.109375
418,-0.842041,-0.02960205,0.63934326,1.078125,-0.4375,0.75
419,-0.8515625,-0.04449463,0.64959717,1.390625,-0.828125,0.5625
420,-0.8378906,-0.033996582,0.6305542,-0.328125,-0.140625,-0.015625
421,-0.8449707,-0.022766113,0.6376343,-0.765625,-0.3125,-0.265625
422,-0.8383789,-0.035705566,0.64520264,0.25,-0.234375,0.203125
423,-0.8405762,-0.030578613,0.63201904,-0.125,-0.578125,0.0625
424,-0.84716797,-0.022277832,0.6378784,-0.34375,-0.484375,-0.203125
425,-0.8469238,-0.027893066,0.6366577,-0.203125,-0.1875,0.34375
426,-0.8395996,-0.022277832,0.6400757,0.625,-0.015625,0.546875
427,-0.8479004,-0.046691895,0.6378784,0.546875,-0.390625,0.5625
428,-0.84277344,-0.035217285,0.6383667,-0.390625,-0.40625,-0.3125
429,-0.8376465,-0.028381348,0.633728,-1.015625,-0.328125,-0.34375
430,-0.84350586,-0.013000488,0.63323975,-0.453125,-0.34375,-0.046875
431,-0.85839844,-0.03717041,0.6444702,2.0,-0.28125,0.78125
432,-0.8371582,-0.031799316,0.633728,1.5,-0.234375,-0.140625
433,-0.83618164,-0.03643799,0.6312866,-0.015625,-1.4375,-0.25
434,-0.83569336,-0.018127441,0.6322632,-0.171875,-0.546875,-0.140625
435,-0.85375977,-0.031066895,0.64105225,1.765625,-0.546875,1.125
436,-0.84594727,-0.044006348,0.6390991,1.78125,-0.296875,0.578125
437,-0.8330078,-0.03326416,0.63031006,0.765625,-0.09375,0.46875
438,-0.85131836,-0.04522705,0.64398193,0.609375,-0.484375,0.640625
439,-0.8371582,-0.0413208,0.6359253,-0.53125,0.171875,0.3125
440,-0.85058594,-0.046447754,0.6473999,0.078125,-0.65625,0.0
441,-0.84228516,-0.035705566,0.6415405,-0.359375,-0.125,-0.078125
442,-0.85180664,-0.03692627,0.6420288,0.125,-0.296875,0.265625
443,-0.8339844,-0.043029785,0.637146,1.1875,-0.4375,0.65625
444,-0.84033203,-0.043273926,0.6412964,1.0625,-0.890625,0.15625
445,-0.8405762,-0.04425049,0.6317749,1.234375,-0.859375,-0.078125
446,-0.84814453,-0.042297363,0.638855,0.015625,-0.578125,0.359375
447,-0.83935547,-0.03643799,0.63397217,0.796875,-0.1875,0.125
448,-0.84375,-0.05230713,0.63861084,0.28125,-0.6875,0.15625
449,-0.83569336,-0.02935791,0.6415405,-0.953125,-0.1875,-0.25
450,-0.8625488,-0.04449463,0.6449585,0.328125,0.140625,0.40625
451,-0.8383789,-0.034729004,0.6310425,-0.15625,-0.1875,0.015625
452,-0.8210449,-0.035705566,0.6378784,0.1875,0.0625,-0.46875
453,-0.8371582,-0.036193848,0.63616943,-0.6875,-0.21875,-0.265625
454,-0.85546875,-0.032043457,0.6432495,0.21875,-0.671875,0.78125
455,-0.8310547,-0.025939941,0.63616943,0.5625,-0.359375,0.71875
456,-0.85131836,-0.045715332,0.64959717,2.21875,-0.8125,0.765625
457,-0.8442383,-0.062072754,0.6395874,1.328125,-0.625,1.0
458,-0.8376465,-0.042785645,0.6256714,-0.75,-0.71875,-0.453125
459,-0.8449707,-0.042785645,0.6305542,-0.890625,-0.71875,-0.6875
460,-0.84594727,-0.031799316,0.6378784,-1.171875,-0.53125,0.3125
461,-0.85546875,-0.029846191,0.6522827,0.421875,0.109375,0.5
462,-0.8457031,-0.03741455,0.6415405,2.328125,-0.3125,1.0625
463,-0.82714844,-0.026184082,0.63201904,1.046875,-0.6875,-0.03125
464,-0.8256836,-0.042053223,0.64227295,-0.015625,-0.5625,0.03125
465,-0.83374023,-0.044006348,0.64056396,-0.515625,-1.640625,1.859375
466,-0.8635254,-0.05718994,0.6359253,-0.96875,-1.890625,0.359375
467,-0.85498047,-0.04937744,0.6347046,-0.171875,-1.328125,-0.328125
468,-0.857666,-0.045715332,0.63153076,1.0,-0.71875,0.953125
469,-0.8486328,-0.042785645,0.6351929,1.515625,-0.6875,0.875
470,-0.84472656,-0.05645752,0.63568115,0.1875,-0.734375,0.0625
471,-0.84594727,-0.050598145,0.6322632,-0.25,-0.21875,-0.15625
472,-0.829834,-0.03741455,0.62249756,-0.5625,-0.390625,-0.046875
473,-0.84399414,-0.036193848,0.6317749,0.109375,-0.828125,0.3125
474,-0.83813477,-0.045959473,0.6329956,0.734375,-0.375,0.828125
475,-0.8469238,-0.03741455,0.64349365,0.890625,-1.09375,1.0
476,-0.8520508,-0.050842285,0.63275146,0.453125,-0.609375,0.625
477,-0.85839844,-0.058898926,0.63153076,0.5625,-0.703125,0.125
478,-0.84643555,-0.046936035,0.63275146,-0.171875,-0.5,-0.09375
479,-0.8405762,-0.05206299,0.6310425,-1.234375,-0.109375,0.046875
480,-0.8461914,-0.031066895,0.6312866,-0.609375,-0.171875,0.265625
481,-0.84399414,-0.03326416,0.635437,0.875,-0.578125,0.765625
482,-0.84643555,-0.06109619,0.6342163,1.46875,-0.578125,0.59375
483,-0.84936523,-0.05596924,0.63201904,0.875,-0.75,0.25
484,-0.8491211,-0.050842285,0.6234741,-0.1875,-0.46875,0.265625
485,-0.85498047,-0.053527832,0.63397217,-0.171875,-0.1875,0.40625
486,-0.84814453,-0.061584473,0.6351929,0.546875,-0.109375,0.515625
487,-0.84033203,-0.05328369,0.6351929,0.015625,-0.5625,0.109375
488,-0.84155273,-0.04058838,0.6273804,-1.65625,-0.3125,-0.4375
489,-0.8510742,-0.038879395,0.63153076,-0.5,-0.34375,0.296875
490,-0.8408203,-0.025939941,0.6383667,-0.484375,-0.015625,0.171875
491,-0.8376465,-0.04083252,0.63983154,0.359375,-0.515625,0.78125
492,-0.8527832,-0.038146973,0.6403198,-0.46875,-0.15625,0.109375
493,-0.8486328,-0.02545166,0.6351929,-0.765625,-0.15625,0.140625
494,-0.85131836,-0.033996582,0.6400757,-0.203125,-0.3125,0.390625
495,-0.8371582,-0.03375244,0.64349365,0.484375,-0.046875,0.40625
496,-0.8449707,-0.016906738,0.64886475,0.78125,-1.03125,0.4375
497,-0.83740234,-0.036193848,0.6342163,-0.015625,-0.921875,0.5625
498,-0.84033203,-0.03302002,0.63153076,-0.125,-0.3125,-0.171875
499,-0.8425293,-0.038879395,0.6378784,0.890625,-0.5,0.28125
500,-0.84375,-0.045715332,0.633728,-0.75,-0.140625,-0.296875
501,-0.8466797,-0.025939941,0.6351929,-1.0625,-0.6875,-0.125
502,-0.842041,-0.018371582,0.6364136,-0.78125,-0.421875,-0.21875
503,-0.84936523,-0.030578613,0.63739014,0.28125,-0.234375,0.546875
504,-0.85595703,-0.031799316,0.6408081,1.265625,-0.546875,1.046875
505,-0.84155273,-0.035217285,0.63690186,0.515625,-0.453125,0.421875
506,-0.8330078,-0.027893066,0.63690186,0.0,-0.578125,-0.140625
507,-0.8376465,-0.032287598,0.6359253,-0.5625,-0.328125,-0.03125
508,-0.8503418,-0.028381348,0.6395874,-0.796875,-0.375,0.125
509,-0.85302734,-0.024963379,0.6378784,0.265625,-0.46875,0.40625
510,-0.8408203,-0.032043457,0.6364136,0.53125,-0.53125,0.21875
511,-0.83935547,-0.024963379,0.63201904,-0.875,-0.359375,-0.140625
512,-0.83984375,-0.03741455,0.6342163,-0.234375,-0.59375,0.5625
513,-0.83813477,-0.034240723,0.6415405,-0.015625,-0.53125,0.484375
514,-0.8466797,-0.03302002,0.63446045,0.875,-0.6875,0.75
515,-0.83691406,-0.03668213,0.63983154,0.375,-0.421875,-0.0625
516,-0.83618164,-0.027893066,0.62957764,-0.734375,-0.046875,-0.265625
517,-0.84472656,-0.026184082,0.6432495,-0.765625,-0.890625,0.25
518,-0.8378906,-0.0335083,0.63568115,0.734375,-0.359375,0.453125
519,-0.8588867,-0.04840088,0.64520264,2.0,-0.890625,0.8125
520,-0.82836914,-0.042297363,0.6256714,0.015625,-0.59375,-0.34375
521,-0.8425293,-0.03302002,0.63446045,-1.609375,-0.625,-0.5625
522,-0.84472656,-0.0154418945,0.6317749,-1.203125,-0.453125,0.234375
523,-0.85668945,-0.035217285,0.6359253,0.296875,-0.328125,0.875
524,-0.8496094,-0.047912598,0.6449585,1.453125,-0.390625,0.609375
525,-0.8413086,-0.033996582,0.6334839,0.328125,-0.78125,0.0
526,-0.8413086,-0.037902832,0.6325073,-1.015625,-0.546875,-0.34375
527,-0.845459,-0.032043457,0.6376343,0.078125,-0.5625,0.3125
528,-0.84643555,-0.035461426,0.6408081,0.53125,-0.703125,0.25
529,-0.8425293,-0.032043457,0.6430054,-0.046875,-0.78125,-0.4375
530,-0.8486328,-0.020080566,0.6334839,-0.640625,-0.828125,-0.0625
531,-0.85009766,-0.02520752,0.6378784,0.453125,-0.546875,0.75
532,-0.84521484,-0.034240723,0.6310425,1.59375,-0.6875,0.609375
533,-0.8432617,-0.04522705,0.6412964,0.65625,-0.546875,0.15625
534,-0.8469238,-0.034240723,0.63861084,-0.46875,-0.46875,0.015625
535,-0.84936523,-0.03741455,0.6376343,-0.4375,-0.453125,0.328125
536,-0.84472656,-0.031066895,0.62786865,-0.015625,-0.203125,0.125
537,-0.84350586,-0.023986816,0.63079834,-0.1875,-0.203125,0.0
538,-0.8510742,-0.037902832,0.64178467,0.25,-0.84375,0.359375
539,-0.8442383,-0.026428223,0.63031006,-0.09375,-0.609375,0.28125
540,-0.8532715,-0.040100098,0.64178467,1.640625,-0.96875,0.5625
541,-0.83813477,-0.04888916,0.6288452,-0.03125,-0.625,-0.140625
542,-0.85668945,-0.024230957,0.6264038,-1.421875,-0.59375,-0.09375
543,-0.85058594,-0.02960205,0.6256714,0.203125,-0.15625,0.390625
544,-0.8466797,-0.027648926,0.6322632,-0.09375,0.15625,0.5
545,-0.85546875,-0.039855957,0.6403198,1.828125,-0.5625,0.859375
546,-0.8469238,-0.038879395,0.63079834,0.375,-0.265625,0.5
547,-0.845459,-0.033996582,0.62786865,-0.53125,-0.59375,-0.46875
548,-0.8442383,-0.035217285,0.6364136,-0.640625,-0.453125,-0.296875
549,-0.8520508,-0.031555176,0.6342163,-5.046875,3.625,-2.640625
550,-0.842041,0.0021362305,0.6503296,-0.203125,2.671875,1.921875
551,-0.8466797,-0.051818848,0.6378784,1.75,3.015625,1.71875
552,-0.7922363,-0.019348145,0.63983154,-1.1875,-0.59375,-3.5
553,-0.8239746,0.010192871,0.6227417,-1.15625,-1.375,-2.546875
554,-0.8203125,0.0065307617,0.6347046,0.046875,-0.453125,0.375
555,-0.842041,-0.016662598,0.6329956,2.234375,-2.8125,2.578125
556,-0.8417969,-0.039611816,0.6400757,3.734375,-3.953125,1.34375
557,-0.83813477,-0.030578613,0.6569214,2.875,-3.65625,-0.546875
558,-0.8378906,-0.057434082,0.6520386,0.421875,-1.6875,-0.203125
559,-0.8474121,-0.042785645,0.6481323,-1.25,-0.515625,0.140625
560,-0.8527832,-0.03326416,0.63494873,-1.28125,-1.484375,-0.328125
561,-0.8532715,-0.043273926,0.6442261,-0.171875,-1.140625,-0.03125
562,-0.84228516,-0.032287598,0.63568115,0.265625,-1.0625,0.5
563,-0.84936523,-0.031799316,0.637146,-0.453125,-0.375,0.234375
564,-0.8408203,-0.033996582,0.63934326,-0.375,-0.40625,0.3125
565,-0.8366699,-0.023986816,0.6473999,-0.84375,-1.078125,0.125
566,-0.8417969,-0.018371582,0.63616943,-0.640625,-0.859375,0.515625
567,-0.84472656,-0.039855957,0.6364136,-0.015625,0.0,0.9375
568,-0.86499023,-0.040100098,0.6395874,-0.25,-0.015625,0.53125
569,-0.8547363,-0.03668213,0.6420288,-0.34375,-0.265625,0.203125
570,-0.8334961,-0.02911377,0.63031006,-1.203125,-0.0625,-0.328125
571,-0.8347168,-0.012023926,0.6264038,-1.359375,0.203125,-0.296875
572,-0.842041,-0.018127441,0.6329956,-0.40625,-0.109375,0.640625
573,-0.85180664,-0.02545166,0.6478882,1.265625,-0.53125,0.84375
574,-0.84277344,-0.042541504,0.64227295,0.546875,-0.734375,0.578125
575,-0.8413086,-0.026672363,0.6317749,-0.234375,-1.046875,-0.421875
576,-0.8376465,-0.032287598,0.6376343,-0.6875,-0.6875,-0.203125
577,-0.8461914,-0.007873535,0.6430054,-0.484375,-0.75,0.03125
578,-0.83984375,-0.028137207,0.63568115,0.078125,-0.5,0.296875
579,-0.8408203,-0.019348145,0.63739014,0.5,-0.6875,0.234375
580,-0.8496094,-0.037902832,0.6415405,1.421875,-0.96875,0.96875
581,-0.83691406,-0.03765869,0.63201904,-0.078125,-0.9375,0.046875
582,-0.8486328,-0.024719238,0.63153076,-0.90625,-0.78125,-0.4375
583,-0.84375,-0.028137207,0.63934326,-0.140625,-0.4375,-0.125
584,-0.8449707,-0.033996582,0.633728,0.40625,-0.28125,0.640625
585,-0.85131836,-0.038391113,0.64276123,1.21875,-0.625,0.859375
586,-0.8408203,-0.02130127,0.63275146,0.125,-0.546875,0.34375
587,-0.8417969,-0.024963379,0.63739014,-0.1875,-0.796875,0.125
588,-0.84228516,-0.032287598,0.63275146,-0.34375,-0.5625,-0.09375
589,-0.8359375,-0.01373291,0.6376343,-0.65625,-0.25,-0.125
590,-0.8535156,-0.035461426,0.63568115,0.796875,-0.484375,0.921875
591,-0.8405762,-0.03375244,0.63616943,0.078125,-0.078125,0.546875
592,-0.8564453,-0.035949707,0.6376343,0.375,-0.765625,0.5
593,-0.842041,-0.020812988,0.62908936,-0.671875,-0.5,-0.46875
594,-0.84814453,-0.035705566,0.6412964,-0.296875,-0.1875,-0.046875
595,-0.8479004,-0.02154541,0.635437,0.25,-0.296875,-0.03125
596,-0.83691406,-0.034973145,0.6359253,0.4375,-0.28125,0.28125
597,-0.8342285,-0.017150879,0.6334839,-0.171875,-0.234375,0.40625
598,-0.8461914,-0.030578613,0.6359253,-0.3125,-0.953125,0.65625
599,-0.84472656,-0.026428223,0.6276245,-0.578125,-0.40625,-0.0625
600,-0.8654785,-0.04107666,0.6564331,1.203125,-0.34375,0.40625
601,-0.84106445,-0.04156494,0.6378784,-0.0625,-0.28125,-0.109375
602,-0.83935547,-0.02130127,0.6317749,-1.578125,-0.234375,-0.953125
603,-0.84765625,-0.013000488,0.63739014,-0.125,-0.53125,0.125
604,-0.8479004,-0.027648926,0.6420288,0.90625,-0.4375,1.5625
605,-0.8522949,-0.039367676,0.64471436,1.40625,-0.734375,0.578125
606,-0.8474121,-0.034240723,0.6378784,0.5625,-0.375,0.234375
607,-0.8432617,-0.035705566,0.63616943,-0.296875,-0.15625,0.125
608,-0.83984375,-0.03643799,0.6390991,-0.296875,-0.59375,-0.046875
609,-0.84228516,-0.021057129,0.6415405,-0.71875,-0.609375,-0.5
610,-0.85302734,-0.028869629,0.63812256,0.484375,-0.84375,0.546875
611,-0.84936523,-0.023010254,0.6325073,0.78125,-0.671875,0.8125
612,-0.8515625,-0.028869629,0.637146,2.046875,-0.765625,0.734375
613,-0.84155273,0.0038452148,0.6547241,-1.796875,0.625,0.203125
614,-0.8286133,-0.020324707,0.6486206,1.046875,0.0,0.578125
615,-0.82714844,-0.030578613,0.64837646,2.421875,-1.421875,0.234375
616,-0.82543945,-0.03668213,0.64886475,1.046875,-1.484375,-0.109375
617,-0.82714844,-0.03375244,0.6522827,-0.953125,-0.359375,0.078125
618,-0.84521484,-0.028869629,0.6498413,-1.625,0.078125,0.09375
619,-0.8479004,-0.02935791,0.66741943,-0.828125,-0.34375,-0.09375
620,-0.8483887,-0.00592041,0.65252686,-1.234375,-0.984375,-0.140625
621,-0.8432617,-0.023742676,0.64520264,0.84375,-0.453125,0.8125
622,-0.8178711,-0.022277832,0.6532593,0.546875,-0.03125,0.359375
623,-0.826416,-0.034240723,0.64178467,-0.34375,0.046875,0.359375
624,-0.8305664,-0.03717041,0.6469116,-0.6875,-0.875,0.484375
625,-0.8186035,-0.020568848,0.6444702,-1.265625,-0.3125,-0.5
626,-0.83374023,-0.019836426,0.6622925,0.46875,0.109375,0.078125
627,-0.8408203,-0.035949707,0.6618042,0.5625,-0.578125,0.90625
628,-0.8474121,-0.022033691,0.65374756,-0.65625,-0.21875,0.359375
629,-0.8383789,-0.019836426,0.6456909,-0.671875,-0.421875,-0.140625
630,-0.8327637,-0.023498535,0.6508179,-0.296875,-0.40625,0.078125
631,-0.82543945,-0.028381348,0.65789795,0.265625,0.0,0.046875
632,-0.8256836,-0.02178955,0.651062,-0.15625,-0.046875,0.078125
633,-0.8293457,-0.0134887695,0.65057373,-0.453125,-0.234375,0.25
634,-0.82470703,-0.028137207,0.64837646,0.796875,-0.28125,0.890625
635,-0.82543945,-0.030822754,0.6732788,0.796875,0.953125,0.953125
636,-0.83032227,-0.05670166,0.6754761,-0.078125,-0.8125,1.15625
637,-0.83569336,-0.02960205,0.66741943,-2.390625,-2.171875,0.296875
638,-0.8532715,-0.020324707,0.6376343,-2.59375,-1.65625,0.390625
639,-0.8391113,-0.0025024414,0.6281128,-0.890625,-0.421875,0.890625
640,-0.84472656,-0.02935791,0.6498413,1.734375,-0.046875,0.640625
641,-0.8276367,-0.026184082,0.64349365,0.828125,0.5625,0.34375
642,-0.84033203,-0.016662598,0.6503296,0.265625,-0.28125,0.359375
643,-0.8391113,-0.03326416,0.6535034,-0.421875,-0.4375,0.140625
644,-0.8532715,-0.01763916,0.66619873,0.5,-0.765625,-0.0625
645,-0.83325195,-0.026916504,0.64959717,0.359375,0.03125,-0.046875
646,-0.8256836,-0.023498535,0.6576538,0.28125,0.171875,-0.03125
647,-0.8154297,-0.027160645,0.66326904,0.875,0.265625,0.59375
648,-0.8273926,-0.0256958,0.65374756,-0.296875,-0.859375,-0.046875
649,-0.8334961,-0.008605957,0.65618896,-0.796875,-0.75,-0.21875
650,-0.8391113,-0.023010254,0.6559448,0.390625,-0.765625,0.84375
651,-0.8469238,-0.04083252,0.64837646,1.875,-0.484375,1.515625
652,-0.8388672,-0.04547119,0.6586304,1.078125,-0.75,0.90625
653,-0.83374023,-0.031066895,0.63983154,-0.5,-0.703125,0.65625
654,-0.8190918,-0.02178955,0.6432495,-0.390625,-0.125,0.15625
655,-0.82250977,-0.028869629,0.6605835,0.421875,-0.296875,0.296875
656,-0.8286133,-0.035949707,0.66619873,0.25,-0.171875,0.859375
657,-0.83251953,-0.026184082,0.6557007,-0.234375,-0.609375,0.34375
658,-0.8312988,-0.028625488,0.6564331,0.203125,-1.046875,0.03125
659,-0.828125,-0.035217285,0.6547241,0.375,-0.796875,-0.03125
660,-0.8391113,-0.038146973,0.651062,0.015625,-0.15625,0.4375
661,-0.8371582,-0.027160645,0.6478882,0.046875,-0.265625,0.359375
662,-0.8288574,-0.030334473,0.64715576,0.421875,-0.09375,0.484375
663,-0.8400879,-0.034484863,0.6571655,0.78125,-0.421875,0.34375
664,-0.8276367,-0.04034424,0.6539917,0.875,0.078125,0.4375
665,-0.8249512,-0.0335083,0.6420288,-0.703125,-0.046875,-0.109375
666,-0.8276367,-0.031066895,0.6571655,-0.78125,-1.234375,-0.078125
667,-0.8322754,-0.030822754,0.6598511,-0.140625,-0.234375,0.0625
668,-0.8339844,-0.038146973,0.65423584,1.5,-0.6875,0.359375
669,-0.8359375,-0.043518066,0.65057373,0.25,-1.078125,0.265625
670,-0.8310547,-0.027648926,0.6415405,-0.671875,-0.671875,0.03125
671,-0.83691406,-0.027648926,0.6449585,-0.109375,-0.96875,-0.078125
672,-0.83374023,-0.036193848,0.6491089,0.71875,-0.953125,0.109375
673,-0.8376465,-0.03765869,0.66522217,0.796875,-0.625,0.125
674,-0.8334961,-0.035949707,0.65057373,0.1875,-1.109375,0.0625
675,-0.83374023,-0.030822754,0.6430054,-0.625,-1.734375,-0.46875
676,-0.8444824,-0.043762207,0.6473999,-0.015625,-2.265625,-1.03125
677,-0.8354492,-0.037902832,0.6442261,0.25,-2.234375,-1.21875
678,-0.8371582,-0.026184082,0.63568115,0.109375,-2.515625,-1.140625
679,-0.8269043,-0.0178833,0.63275146,-0.640625,-1.78125,-1.0625
680,-0.8376465,-0.02178955,0.64056396,0.453125,-1.5625,-0.234375
681,-0.84350586,-0.043029785,0.6532593,1.671875,-1.125,0.484375
682,-0.85009766,-0.03741455,0.64398193,0.671875,-0.71875,0.203125
683,-0.8486328,-0.019836426,0.6395874,-0.625,-0.65625,-0.484375
684,-0.84375,-0.026916504,0.63446045,-0.46875,-0.171875,-0.1875
685,-0.85058594,-0.026428223,0.64178467,0.15625,-0.59375,0.140625
686,-0.83447266,-0.02911377,0.6310425,-0.390625,-0.25,0.09375
687,-0.85180664,-0.025939941,0.6286011,0.609375,-0.875,-0.6875
688,-0.84033203,-0.035705566,0.6415405,-0.328125,0.578125,-1.140625
689,-0.85058594,-0.03375244,0.6432495,0.140625,-0.375,-0.015625
690,-0.8276367,-0.012756348,0.6390991,-0.5625,0.3125,-0.46875
691,-0.8449707,-0.0154418945,0.6437378,-0.046875,0.296875,0.5625
692,-0.83813477,-0.02545166,0.6376343,1.0625,0.671875,1.46875
693,-0.8469238,-0.030334473,0.6491089,1.4375,-0.15625,1.46875
694,-0.8347168,-0.043762207,0.64520264,0.84375,-0.875,0.109375
695,-0.8430176,-0.039123535,0.6498413,-0.625,-0.828125,-0.125
696,-0.81591797,-0.01739502,0.6325073,-1.078125,-0.515625,0.21875
697,-0.84472656,-0.021057129,0.63323975,0.265625,-1.296875,1.078125
698,-0.85375977,-0.022033691,0.64471436,1.5,-1.265625,0.984375
699,-0.8457031,-0.03668213,0.6430054,1.09375,-0.625,0.328125
700,-0.84106445,-0.02911377,0.6329956,0.25,-0.421875,0.125
701,-0.84399414,-0.030090332,0.6415405,0.640625,-1.09375,0.734375
702,-0.8430176,-0.03765869,0.6395874,0.484375,-1.1875,0.359375
703,-0.82714844,-0.007385254,0.6466675,-0.484375,-1.375,-0.40625
704,-0.86376953,-0.033996582,0.62542725,-0.515625,-1.625,0.859375
705,-0.8227539,-0.025939941,0.6119995,-0.171875,1.359375,-0.375
706,-0.8469238,-0.03765869,0.63616943,3.984375,1.125,0.75
707,-0.84350586,-0.02911377,0.6132202,1.203125,1.265625,-0.46875
708,-0.8215332,-0.006652832,0.6535034,-1.09375,0.265625,-2.265625
709,-0.8708496,-0.05206299,0.6671753,1.171875,-0.4375,0.578125
710,-0.84155273,-0.02154541,0.6486206,0.640625,-0.421875,1.0625
711,-0.829834,-0.039855957,0.6569214,1.34375,-1.359375,2.109375
712,-0.82592773,-0.05255127,0.6310425,-0.296875,-1.15625,0.96875
713,-0.84716797,-0.040100098,0.6239624,-0.6875,-1.25,0.15625
714,-0.8405762,-0.054016113,0.6466675,-0.53125,0.21875,-0.453125
715,-0.8312988,-0.023010254,0.64105225,-1.25,-0.21875,-0.015625
716,-0.86572266,-0.0178833,0.64715576,-0.140625,0.09375,0.65625
717,-0.8376465,-0.021057129,0.64520264,0.359375,-0.3125,1.078125
718,-0.85839844,-0.03375244,0.6395874,1.8125,-1.25,1.328125
719,-0.8430176,-0.054016113,0.6432495,1.84375,-0.703125,0.671875
720,-0.84033203,-0.061584473,0.63983154,-0.296875,-0.828125,0.40625
721,-0.8215332,-0.023742676,0.63861084,-0.546875,-0.625,-0.03125
722,-0.8391113,-0.035949707,0.64471436,0.359375,-0.953125,0.796875
723,-0.8430176,-0.042541504,0.6425171,-0.265625,0.0625,1.46875
724,-0.8317871,-0.027404785,0.6359253,-1.25,1.0,1.078125
725,-0.7915039,0.005065918,0.63201904,-1.6875,1.578125,2.578125
726,-0.8796387,-0.05718994,0.64837646,1.75,-2.046875,3.640625
727,-0.8745117,-0.08135986,0.6522827,2.109375,-1.578125,1.09375
728,-0.85009766,-0.066223145,0.6539917,0.765625,-0.53125,-0.796875
729,-0.8342285,-0.039855957,0.63153076,-0.921875,0.828125,0.03125
730,-0.83325195,-0.04058838,0.6444702,-0.046875,0.171875,0.375
731,-0.8273926,-0.053771973,0.64715576,-0.59375,-0.4375,0.328125
732,-0.83691406,-0.050109863,0.64276123,-0.390625,-1.046875,-0.359375
733,-0.83984375,-0.0491333,0.638855,0.265625,-1.515625,-0.421875
734,-0.8400879,-0.037902832,0.64105225,-0.21875,-0.515625,-0.140625
735,-0.8564453,-0.053771973,0.6466675,1.6875,-0.734375,0.625
736,-0.85009766,-0.062561035,0.6466675,1.734375,-0.609375,0.875
737,-0.82836914,-0.058410645,0.64056396,-0.34375,-0.59375,-0.140625
738,-0.83740234,-0.053527832,0.6325073,-1.3125,-0.765625,-0.59375
739,-0.8378906,-0.03326416,0.6347046,-0.828125,-0.4375,-0.578125
740,-0.83862305,-0.046447754,0.64349365,0.75,-0.34375,0.640625
741,-0.84887695,-0.047668457,0.6403198,0.65625,-0.4375,0.578125
742,-0.8376465,-0.06011963,0.64593506,0.890625,-1.015625,0.078125
743,-0.8388672,-0.05206299,0.64520264,-0.234375,-0.984375,0.015625
744,-0.8457031,-0.054016113,0.6400757,-0.28125,-0.59375,0.140625
745,-0.8378906,-0.045959473,0.64105225,-0.046875,-0.046875,-0.15625
746,-0.8417969,-0.055236816,0.637146,0.375,-0.125,0.3125
747,-0.82958984,-0.03765869,0.64642334,-0.28125,-0.421875,-0.09375
748,-0.84399414,-0.049621582,0.6310425,-0.03125,-0.3125,0.734375
749,-0.8395996,-0.046447754,0.6329956,0.40625,-0.734375,0.0625
750,-0.8503418,-0.06890869,0.64642334,1.140625,-0.703125,0.125
751,-0.83447266,-0.050598145,0.64276123,-0.453125,-0.21875,0.046875
752,-0.8532715,-0.046447754,0.64105225,-0.484375,-0.015625,-0.15625
753,-0.83496094,-0.054748535,0.6415405,-0.390625,0.125,0.65625
754,-0.83618164,-0.03765869,0.6378784,-0.65625,-0.484375,0.140625
755,-0.8413086,-0.054504395,0.6408081,0.484375,-0.171875,0.40625
756,-0.8417969,-0.05230713,0.6415405,-0.1875,-0.0625,0.421875
757,-0.83984375,-0.050842285,0.6420288,1.015625,0.015625,0.5625
758,-0.84399414,-0.047912598,0.6383667,0.109375,-0.875,0.921875
759,-0.8293457,-0.057678223,0.65911865,-0.734375,-0.21875,-0.953125
