sample_no,accel_x,accel_y,accel_z,gyro_x,gyro_y,gyro_z
0,0.17529297,-0.94976807,-0.14434814,-0.421875,0.640625,-0.53125
1,0.17822266,-0.94000244,-0.15362549,-0.734375,1.078125,-0.375
2,0.1875,-0.9463501,-0.15240479,-0.640625,1.5625,-0.65625
3,0.17797852,-0.9487915,-0.1609497,-1.125,1.734375,-1.34375
4,0.17529297,-0.9404907,-0.15557861,0.390625,2.296875,-0.953125
5,0.17675781,-0.94122314,-0.16461182,0.765625,2.03125,-0.625
6,0.17700195,-0.9365845,-0.16363525,0.578125,1.78125,-0.578125
7,0.17089844,-0.95391846,-0.16412354,0.21875,1.5,-0.15625
8,0.171875,-0.9500122,-0.16607666,-0.78125,1.28125,-0.84375
9,0.1743164,-0.94854736,-0.16070557,-0.109375,1.328125,-0.609375
10,0.17285156,-0.9495239,-0.1572876,-0.171875,1.140625,-0.71875
11,0.17749023,-0.94659424,-0.15802002,-0.625,1.296875,-1.15625
12,0.1784668,-0.9480591,-0.15802002,0.0,1.203125,-0.921875
13,0.17797852,-0.944397,-0.1560669,0.5625,1.171875,-0.796875
14,0.1796875,-0.93878174,-0.15655518,1.109375,1.125,-0.84375
15,0.18286133,-0.9529419,-0.15679932,0.921875,1.546875,-0.78125
16,0.17675781,-0.9492798,-0.14849854,2.015625,1.46875,-0.84375
17,0.17993164,-0.9612427,-0.16778564,0.265625,2.390625,-0.640625
18,0.1652832,-0.9512329,-0.15802002,0.6875,1.046875,-0.296875
19,0.16870117,-0.9495239,-0.17388916,-1.375,1.984375,-0.53125
20,0.18432617,-0.95196533,-0.17828369,-1.625,1.328125,-0.953125
21,0.15991211,-0.9439087,-0.15631104,-0.015625,0.984375,-0.765625
22,0.16625977,-0.94781494,-0.16314697,-0.421875,1.046875,-0.78125
23,0.18408203,-0.94976807,-0.1729126,-0.21875,1.3125,-0.828125
24,0.1850586,-0.9536743,-0.16461182,-0.09375,1.390625,-1.140625
25,0.171875,-0.9529419,-0.15509033,0.765625,1.15625,-1.0625
26,0.18066406,-0.9434204,-0.16168213,0.875,0.921875,-1.0
27,0.17211914,-0.9390259,-0.16558838,-0.640625,0.453125,-1.296875
28,0.15527344,-0.960022,-0.16046143,-0.0625,0.984375,-0.921875
29,0.15966797,-0.9512329,-0.1572876,0.5,1.59375,-0.78125
30,0.15722656,-0.9492798,-0.15997314,0.234375,1.65625,-0.296875
31,0.18164062,-0.95196533,-0.16021729,0.484375,1.75,-0.59375
32,0.16992188,-0.95025635,-0.16485596,-0.4375,2.234375,-0.453125
33,0.17285156,-0.9463501,-0.16046143,0.171875,1.671875,-0.375
34,0.17089844,-0.9512329,-0.16143799,0.359375,1.625,-0.34375
35,0.17163086,-0.9492798,-0.16583252,0.109375,1.703125,-0.4375
36,0.1706543,-0.9402466,-0.16680908,-0.453125,1.671875,-0.484375
37,0.1772461,-0.95025635,-0.16265869,0.03125,1.484375,-0.296875
38,0.16235352,-0.9475708,-0.15509033,0.140625,1.78125,-0.34375
39,0.16967773,-0.94659424,-0.16412354,0.296875,1.71875,-0.46875
40,0.16894531,-0.9434204,-0.16192627,-0.140625,1.40625,-0.59375
41,0.16918945,-0.9536743,-0.16998291,-0.75,1.5,-0.375
42,0.18066406,-0.9475708,-0.15875244,-0.390625,1.578125,-1.03125
43,0.1665039,-0.94659424,-0.16485596,-0.46875,1.3125,-0.3125
44,0.18066406,-0.9483032,-0.15924072,-0.953125,1.90625,-0.78125
45,0.16748047,-0.94976807,-0.16412354,-0.453125,1.125,-0.46875
46,0.17333984,-0.94732666,-0.16143799,-0.3125,1.328125,-1.046875
47,0.171875,-0.95196533,-0.16021729,-0.34375,1.921875,-0.6875
48,0.17260742,-0.9495239,-0.1609497,0.53125,1.703125,-0.921875
49,0.17553711,-0.940979,-0.15777588,1.78125,1.5,-0.765625
50,0.16259766,-0.94317627,-0.15484619,0.34375,1.578125,-0.5
51,0.15209961,-0.96099854,-0.16217041,-0.890625,1.234375,-0.03125
52,0.1640625,-0.9495239,-0.16046143,-0.90625,1.53125,-0.328125
53,0.16894531,-0.93829346,-0.1609497,-0.1875,1.5,-0.375
54,0.17822266,-0.94610596,-0.15826416,0.4375,2.34375,-0.390625
55,0.18310547,-0.94854736,-0.16802979,1.0,1.125,-1.109375
56,0.18701172,-0.9487915,-0.17340088,0.4375,1.28125,-1.328125
57,0.16674805,-0.9483032,-0.16802979,-0.0625,1.53125,-1.171875
58,0.16796875,-0.9475708,-0.16168213,0.0625,1.359375,-1.09375
59,0.16064453,-0.95880127,-0.15997314,-0.65625,1.59375,-0.71875
60,0.16552734,-0.9507446,-0.16705322,-0.859375,1.59375,-0.53125
61,0.16772461,-0.9534302,-0.16314697,-0.828125,1.59375,-0.578125
62,0.1652832,-0.9505005,-0.16290283,-0.78125,1.71875,-0.5625
63,0.16845703,-0.95269775,-0.1609497,-0.046875,1.578125,-0.703125
64,0.16870117,-0.94610596,-0.16021729,0.125,1.34375,-0.8125
65,0.16210938,-0.9439087,-0.15509033,0.140625,1.65625,-0.578125
66,0.17089844,-0.95147705,-0.14801025,0.703125,1.390625,-0.59375
67,0.17358398,-0.94854736,-0.15924072,0.03125,1.609375,-0.546875
68,0.17944336,-0.9522095,-0.16583252,-0.640625,1.25,-0.46875
69,0.16455078,-0.95880127,-0.14605713,0.53125,1.265625,-0.328125
70,0.16967773,-0.95440674,-0.16046143,0.296875,1.578125,-0.5
71,0.16577148,-0.944397,-0.15997314,0.0625,1.84375,-0.515625
72,0.17211914,-0.9505005,-0.1572876,0.078125,1.796875,-0.453125
73,0.17456055,-0.94976807,-0.16363525,0.859375,1.6875,-0.734375
74,0.16430664,-0.9429321,-0.1675415,0.265625,1.71875,-0.359375
75,0.16821289,-0.94366455,-0.16925049,0.390625,1.484375,-0.515625
76,0.17089844,-0.95513916,-0.16021729,0.640625,1.4375,-0.421875
77,0.1706543,-0.9558716,-0.1651001,0.5625,1.65625,-0.3125
78,0.1640625,-0.9451294,-0.1663208,0.171875,1.453125,-0.625
79,0.16748047,-0.9524536,-0.15875244,1.15625,1.390625,-0.03125
80,0.171875,-0.9500122,-0.16778564,0.09375,1.625,-0.453125
81,0.17041016,-0.9470825,-0.16998291,0.53125,1.640625,-0.4375
82,0.16821289,-0.944397,-0.16656494,0.234375,1.640625,-0.65625
83,0.16894531,-0.9434204,-0.16973877,0.125,1.390625,-0.53125
84,0.17456055,-0.9507446,-0.17022705,-0.015625,1.6875,-0.5625
85,0.16503906,-0.9429321,-0.16827393,0.0625,1.515625,-0.4375
86,0.171875,-0.94195557,-0.17047119,-0.234375,1.6875,-0.359375
87,0.16333008,-0.94903564,-0.1729126,0.015625,1.109375,-0.234375
88,0.17626953,-0.94854736,-0.17877197,-0.59375,2.03125,-0.59375
89,0.16625977,-0.9463501,-0.159729,0.8125,1.46875,-0.09375
90,0.17602539,-0.9495239,-0.17730713,0.53125,1.984375,-0.515625
91,0.1706543,-0.94659424,-0.17510986,0.359375,1.609375,-0.234375
92,0.17211914,-0.94073486,-0.16778564,1.34375,1.359375,-0.515625
93,0.18139648,-0.94244385,-0.16900635,0.671875,1.59375,-0.53125
94,0.17358398,-0.9475708,-0.17242432,0.828125,1.734375,-0.421875
95,0.17993164,-0.94415283,-0.17926025,0.25,1.515625,-1.03125
96,0.17285156,-0.94610596,-0.17266846,0.296875,2.125,-0.203125
97,0.17700195,-0.94659424,-0.17388916,0.5625,1.9375,-0.328125
98,0.16992188,-0.9390259,-0.17047119,-0.5,1.703125,-0.625
99,0.17333984,-0.95684814,-0.1741333,-0.140625,1.546875,-0.390625
100,0.16723633,-0.93951416,-0.18292236,-0.15625,1.71875,-0.625
101,0.16821289,-0.9456177,-0.17584229,0.09375,1.25,-0.65625
102,0.15893555,-0.9536743,-0.1765747,-0.28125,1.546875,-0.625
103,0.17797852,-0.9404907,-0.17852783,-0.875,1.53125,-0.703125
104,0.1694336,-0.9492798,-0.16583252,-0.84375,1.46875,-0.390625
105,0.16918945,-0.94659424,-0.17340088,-0.3125,1.609375,-0.59375
106,0.17529297,-0.94488525,-0.17242432,-0.125,1.359375,-0.53125
107,0.17700195,-0.944397,-0.17730713,0.125,1.5625,-0.765625
108,0.16357422,-0.94732666,-0.16900635,0.0625,1.484375,-0.78125
109,0.16723633,-0.9451294,-0.17047119,-0.40625,1.390625,-0.515625
110,0.1772461,-0.9380493,-0.1663208,0.171875,1.453125,-1.078125
111,0.16088867,-0.95147705,-0.17218018,0.46875,1.84375,-0.734375
112,0.1743164,-0.9402466,-0.175354,-0.28125,1.8125,-0.578125
113,0.16479492,-0.9522095,-0.16973877,0.328125,1.453125,-0.6875
114,0.16430664,-0.94195557,-0.17218018,0.359375,1.09375,-0.75
115,0.16918945,-0.9439087,-0.18292236,-0.046875,1.46875,-0.703125
116,0.16918945,-0.9456177,-0.17706299,0.546875,1.875,-0.6875
117,0.16894531,-0.9439087,-0.17022705,0.546875,1.796875,-0.515625
118,0.16430664,-0.9451294,-0.17730713,0.015625,1.765625,-0.25
119,0.17602539,-0.94244385,-0.17755127,-0.28125,1.59375,-0.46875
120,0.16918945,-0.94244385,-0.17266846,-0.15625,1.375,-0.609375
121,0.16772461,-0.9439087,-0.17974854,0.140625,1.390625,-0.59375
122,0.16577148,-0.94195557,-0.17633057,-0.203125,1.109375,-0.78125
123,0.16723633,-0.960022,-0.17120361,0.578125,1.421875,-0.46875
124,0.16430664,-0.94317627,-0.17218018,0.296875,1.578125,-0.6875
125,0.17260742,-0.94415283,-0.175354,-0.046875,1.578125,-0.609375
126,0.16137695,-0.954895,-0.16119385,0.625,1.984375,-0.484375
127,0.17016602,-0.9404907,-0.17120361,0.546875,1.484375,-0.5
128,0.17016602,-0.94366455,-0.17681885,-0.28125,1.703125,-0.265625
129,0.17773438,-0.95147705,-0.17633057,-0.09375,1.609375,-0.34375
130,0.16723633,-0.94000244,-0.18048096,0.609375,1.1875,-0.53125
131,0.16796875,-0.9546509,-0.18609619,-0.375,1.625,-0.421875
132,0.15966797,-0.9541626,-0.17047119,-0.140625,1.65625,-0.265625
133,0.17553711,-0.942688,-0.18536377,0.03125,2.015625,-0.46875
134,0.17407227,-0.942688,-0.17681885,-0.59375,1.40625,-0.609375
135,0.16748047,-0.94732666,-0.16925049,0.890625,1.359375,-0.65625
136,0.17651367,-0.93829346,-0.1807251,0.96875,1.796875,-0.484375
137,0.16601562,-0.94366455,-0.18804932,0.59375,2.015625,-0.296875
138,0.17871094,-0.94366455,-0.18023682,0.390625,1.96875,-0.3125
139,0.17041016,-0.95025635,-0.18267822,-0.46875,1.6875,-0.078125
140,0.17504883,-0.9456177,-0.18145752,0.359375,1.609375,-0.09375
141,0.17260742,-0.9348755,-0.1765747,0.125,1.8125,-0.3125
142,0.17504883,-0.94537354,-0.18829346,0.46875,1.609375,-0.375
143,0.171875,-0.9522095,-0.18414307,0.578125,1.59375,-0.59375
144,0.17822266,-0.93927,-0.1819458,0.46875,1.390625,-0.4375
145,0.1743164,-0.9451294,-0.1795044,-0.109375,1.359375,-0.796875
146,0.17749023,-0.940979,-0.19390869,-0.625,1.28125,-0.796875
147,0.17041016,-0.93829346,-0.17926025,-0.546875,1.234375,-0.625
148,0.16894531,-0.9402466,-0.17510986,-1.109375,1.5625,-0.765625
149,0.17480469,-0.94073486,-0.18511963,-1.265625,1.59375,-0.625
150,0.17358398,-0.94537354,-0.18170166,0.015625,1.390625,-0.40625
151,0.17797852,-0.94317627,-0.1873169,-0.453125,1.65625,-0.46875
152,0.16601562,-0.9495239,-0.17706299,0.484375,1.71875,-0.34375
153,0.17871094,-0.94000244,-0.1921997,-0.03125,1.6875,-0.59375
154,0.17236328,-0.9505005,-0.18585205,-0.921875,1.359375,-0.75
155,0.16748047,-0.94610596,-0.1716919,0.328125,1.3125,-0.78125
156,0.17382812,-0.9348755,-0.1807251,0.453125,1.84375,-0.28125
157,0.1694336,-0.9495239,-0.17974854,0.390625,1.953125,-0.390625
158,0.1730957,-0.94195557,-0.18243408,0.421875,1.5,-0.765625
159,0.17285156,-0.9534302,-0.18878174,0.53125,1.75,-0.328125
160,0.1730957,-0.94415283,-0.18658447,0.703125,1.71875,-0.359375
161,0.17333984,-0.944397,-0.18902588,0.125,1.640625,-0.265625
162,0.17480469,-0.94976807,-0.18023682,0.625,1.578125,-0.3125
163,0.17163086,-0.9343872,-0.18365479,0.65625,1.921875,-0.390625
164,0.1706543,-0.9434204,-0.19830322,0.421875,1.453125,-0.171875
165,0.17260742,-0.9456177,-0.18267822,0.109375,1.59375,-0.53125
166,0.17871094,-0.9348755,-0.1831665,0.234375,1.671875,-0.390625
167,0.17016602,-0.9417114,-0.1873169,0.046875,1.640625,-0.34375
168,0.17871094,-0.93878174,-0.18463135,0.234375,1.84375,-0.375
169,0.1772461,-0.93951416,-0.19195557,-0.1875,1.515625,-0.46875
170,0.17773438,-0.94000244,-0.1843872,0.578125,1.734375,-0.484375
171,0.17553711,-0.9414673,-0.19049072,-0.203125,1.46875,-0.46875
172,0.18725586,-0.93585205,-0.18414307,0.765625,1.796875,-0.4375
173,0.1652832,-0.94537354,-0.19122314,0.03125,2.125,-0.421875
174,0.18457031,-0.9397583,-0.19439697,-0.359375,1.578125,-0.6875
175,0.17138672,-0.94610596,-0.18878174,0.03125,1.34375,-0.75
176,0.16918945,-0.9470825,-0.19244385,0.3125,1.375,-0.9375
177,0.1784668,-0.9390259,-0.17999268,0.234375,1.5,-0.75
178,0.16674805,-0.94000244,-0.18609619,-0.1875,1.53125,-0.8125
179,0.16992188,-0.93878174,-0.18585205,-0.40625,1.640625,-0.53125
180,0.16601562,-0.94537354,-0.1831665,-0.25,1.359375,-0.671875
181,0.17529297,-0.944397,-0.18341064,-0.625,1.515625,-0.828125
182,0.1743164,-0.9307251,-0.18463135,-0.4375,1.296875,-0.765625
183,0.16870117,-0.9512329,-0.1897583,-0.5625,1.453125,-0.53125
184,0.17919922,-0.93927,-0.19073486,0.359375,1.65625,-0.359375
185,0.16992188,-0.9439087,-0.18951416,0.296875,1.21875,-0.4375
186,0.16967773,-0.94732666,-0.18218994,-0.109375,1.796875,-0.453125
187,0.1743164,-0.94610596,-0.19366455,-0.109375,1.84375,-0.640625
188,0.17333984,-0.93756104,-0.19171143,0.078125,1.640625,-0.578125
189,0.17773438,-0.9402466,-0.19342041,-0.234375,1.546875,-0.46875
190,0.17260742,-0.9451294,-0.18756104,0.609375,1.984375,-0.296875
191,0.16723633,-0.94073486,-0.1951294,0.21875,1.625,-0.375
192,0.17529297,-0.9487915,-0.19561768,-0.015625,1.390625,-0.359375
193,0.18261719,-0.93927,-0.19488525,-0.515625,1.96875,-0.859375
194,0.17553711,-0.9351196,-0.19171143,0.078125,1.671875,-0.59375
195,0.18017578,-0.94537354,-0.1975708,-0.15625,1.796875,-0.78125
196,0.16870117,-0.9475708,-0.18414307,0.234375,1.4375,-0.875
197,0.16723633,-0.9468384,-0.1987915,0.59375,1.21875,-0.75
198,0.18383789,-0.93414307,-0.19610596,-0.078125,1.75,-0.4375
199,0.16357422,-0.9529419,-0.18145752,0.359375,1.765625,-0.53125
200,0.17553711,-0.93707275,-0.19464111,0.71875,1.515625,-0.234375
201,0.17504883,-0.9483032,-0.1921997,0.046875,1.609375,-0.09375
202,0.18579102,-0.9378052,-0.19073486,0.171875,1.734375,-0.734375
203,0.1706543,-0.9368286,-0.19342041,0.109375,1.5,-0.40625
204,0.17285156,-0.944397,-0.19366455,0.328125,1.375,-0.3125
205,0.17773438,-0.9402466,-0.20245361,0.25,1.703125,-0.515625
206,0.17529297,-0.9402466,-0.18902588,0.0625,1.515625,-0.421875
207,0.1772461,-0.9439087,-0.18951416,0.109375,1.5625,-0.5
208,0.1784668,-0.9378052,-0.1963501,-0.3125,1.484375,-0.5625
209,0.17236328,-0.9404907,-0.19732666,-0.328125,1.28125,-0.609375
210,0.1796875,-0.940979,-0.19659424,-0.4375,1.609375,-0.609375
211,0.17236328,-0.9397583,-0.19024658,0.5625,1.59375,-0.296875
212,0.17456055,-0.9390259,-0.1963501,-0.28125,1.390625,-0.453125
213,0.17529297,-0.9421997,-0.19537354,-0.25,1.21875,-0.6875
214,0.1730957,-0.94073486,-0.19390869,-0.046875,1.578125,-0.59375
215,0.17822266,-0.93829346,-0.19244385,0.734375,1.390625,-0.34375
216,0.17626953,-0.9402466,-0.19903564,0.40625,2.25,-0.265625
217,0.18115234,-0.942688,-0.18804932,1.171875,1.390625,-0.265625
218,0.17602539,-0.93756104,-0.20269775,0.171875,1.875,-0.03125
219,0.17895508,-0.9365845,-0.20465088,0.125,1.375,-0.671875
220,0.16699219,-0.9470825,-0.19561768,0.546875,1.8125,-0.625
221,0.1809082,-0.9365845,-0.2000122,0.4375,1.46875,-0.578125
222,0.17602539,-0.9380493,-0.19586182,0.109375,1.3125,-0.703125
223,0.1796875,-0.94781494,-0.19903564,0.171875,1.390625,-0.59375
224,0.1772461,-0.9338989,-0.19537354,-0.09375,1.3125,-1.0625
225,0.1796875,-0.9404907,-0.19708252,-0.171875,1.453125,-0.625
226,0.18701172,-0.93292236,-0.2078247,0.578125,1.21875,-1.140625
227,0.17919922,-0.9319458,-0.19854736,0.953125,0.9375,-1.640625
228,0.15698242,-0.9380493,-0.2000122,0.375,0.375,-1.453125
229,0.16455078,-0.9429321,-0.18463135,-0.640625,-0.15625,-1.625
230,0.16894531,-0.9417114,-0.19464111,-0.859375,0.640625,-1.359375
231,0.17333984,-0.94415283,-0.19171143,0.078125,2.140625,-0.5625
232,0.16699219,-0.9536743,-0.18658447,-0.421875,3.1875,-0.609375
233,0.17236328,-0.92852783,-0.19903564,-0.0625,3.328125,-0.484375
234,0.18408203,-0.93707275,-0.20098877,-0.46875,2.6875,-0.359375
235,0.17260742,-0.9456177,-0.19195557,0.59375,2.828125,0.046875
236,0.18579102,-0.9590454,-0.21539307,-0.671875,2.125,0.015625
237,0.17651367,-0.9265747,-0.20025635,-0.984375,1.71875,-0.375
238,0.16894531,-0.94976807,-0.18951416,-2.1875,1.46875,-0.328125
239,0.17700195,-0.9421997,-0.20806885,-2.625,0.8125,-0.859375
240,0.17236328,-0.9336548,-0.18170166,-1.078125,1.03125,-0.9375
241,0.1616211,-0.9417114,-0.19342041,0.40625,1.59375,-0.28125
242,0.17407227,-0.940979,-0.19317627,0.21875,2.234375,-0.015625
243,0.17919922,-0.9417114,-0.20147705,-0.25,1.703125,-0.265625
244,0.17114258,-0.9487915,-0.18389893,1.75,1.484375,-0.0625
245,0.17333984,-0.9390259,-0.19171143,1.53125,1.5,-0.15625
246,0.18164062,-0.94195557,-0.18585205,0.359375,1.703125,-0.15625
247,0.16772461,-0.94366455,-0.19244385,-0.09375,1.484375,-0.234375
248,0.17138672,-0.9458618,-0.18536377,-0.453125,1.5625,-0.34375
249,0.19116211,-0.93756104,-0.18902588,0.28125,1.625,-0.34375
250,0.17138672,-0.93829346,-0.18902588,0.734375,1.5625,-0.40625
251,0.17480469,-0.93756104,-0.19293213,0.671875,2.078125,-0.21875
252,0.17529297,-0.94415283,-0.19537354,0.796875,2.25,0.15625
253,0.16967773,-0.9331665,-0.18878174,0.78125,1.609375,-0.21875
254,0.17797852,-0.9492798,-0.20098877,0.25,1.6875,-0.234375
255,0.18310547,-0.94537354,-0.20074463,0.3125,1.640625,-0.671875
256,0.16674805,-0.93341064,-0.19708252,-0.046875,1.40625,-0.421875
257,0.17553711,-0.93707275,-0.19366455,-0.09375,1.515625,-0.53125
258,0.17749023,-0.94317627,-0.20172119,0.234375,1.453125,-0.34375
259,0.1772461,-0.9373169,-0.19805908,0.40625,1.6875,-0.234375
260,0.17773438,-0.93096924,-0.19732666,0.421875,1.71875,-0.359375
261,0.17919922,-0.94195557,-0.18829346,0.4375,1.953125,-0.265625
262,0.17919922,-0.9282837,-0.19342041,0.28125,1.8125,-0.28125
263,0.17822266,-0.940979,-0.18902588,0.25,1.796875,-0.734375
264,0.16430664,-0.94195557,-0.20367432,0.078125,1.765625,-0.21875
265,0.19458008,-0.9326782,-0.21588135,-0.859375,1.78125,-0.953125
266,0.17138672,-0.94976807,-0.18463135,0.890625,1.640625,-0.109375
267,0.17260742,-0.92852783,-0.19903564,0.359375,1.8125,-0.671875
268,0.18383789,-0.93463135,-0.19927979,0.390625,1.71875,-0.265625
269,0.1743164,-0.93951416,-0.2119751,0.328125,1.4375,-0.453125
270,0.17675781,-0.94000244,-0.19537354,0.125,1.890625,-0.421875
271,0.17260742,-0.93707275,-0.20147705,0.265625,1.765625,-0.328125
272,0.19140625,-0.9336548,-0.20855713,-0.09375,2.046875,-0.3125
273,0.17114258,-0.9414673,-0.19854736,0.0625,1.640625,-0.359375
274,0.17578125,-0.94073486,-0.20123291,-0.109375,1.40625,-0.46875
275,0.18115234,-0.92852783,-0.19927979,0.53125,1.65625,-0.359375
276,0.17578125,-0.93756104,-0.20220947,0.03125,1.359375,-0.421875
277,0.1809082,-0.9468384,-0.20806885,-0.296875,1.84375,-0.390625
278,0.17944336,-0.9365845,-0.20855713,-0.234375,1.921875,-0.4375
279,0.17602539,-0.9351196,-0.19708252,0.171875,1.515625,-0.390625
280,0.18896484,-0.93536377,-0.20367432,0.0625,1.84375,-0.421875
281,0.1809082,-0.9277954,-0.20050049,0.0,1.53125,-0.609375
282,0.18066406,-0.93756104,-0.20196533,0.015625,1.359375,-0.71875
283,0.17578125,-0.94537354,-0.2078247,-0.125,1.546875,-0.796875
284,0.17675781,-0.9385376,-0.19683838,0.59375,1.28125,-0.625
285,0.18969727,-0.94366455,-0.20831299,-0.53125,2.328125,-0.828125
286,0.17114258,-0.93585205,-0.1975708,0.40625,1.375,-0.515625
287,0.17675781,-0.93756104,-0.20245361,-0.234375,1.5,-0.703125
288,0.18530273,-0.94195557,-0.20977783,-0.671875,1.75,-0.65625
289,0.16772461,-0.93927,-0.20025635,0.171875,1.53125,-0.8125
290,0.17797852,-0.92974854,-0.2000122,0.046875,1.578125,-0.59375
291,0.18237305,-0.93707275,-0.20172119,0.015625,1.875,-0.59375
292,0.18237305,-0.94903564,-0.20562744,0.109375,1.515625,-0.5625
293,0.1796875,-0.9290161,-0.20074463,-0.078125,1.984375,-0.84375
294,0.17529297,-0.9397583,-0.19976807,0.375,1.515625,-0.125
295,0.18701172,-0.9312134,-0.2119751,0.203125,1.515625,-0.546875
296,0.18041992,-0.94659424,-0.19927979,0.4375,1.828125,-0.46875
297,0.17578125,-0.9360962,-0.19659424,0.109375,1.71875,-0.453125
298,0.18701172,-0.9295044,-0.20709229,0.453125,1.28125,-0.390625
299,0.1809082,-0.9404907,-0.20196533,0.15625,1.53125,-0.5625
300,0.18530273,-0.9402466,-0.20269775,-0.46875,1.875,-0.640625
301,0.17797852,-0.9326782,-0.2041626,0.03125,1.796875,-0.703125
302,0.1784668,-0.9385376,-0.2041626,0.265625,1.46875,-0.5
303,0.17919922,-0.93536377,-0.21173096,-0.046875,1.421875,-0.75
304,0.18017578,-0.94195557,-0.19830322,-0.265625,1.328125,-0.5625
305,0.17529297,-0.9351196,-0.20196533,-0.3125,1.625,-0.734375
306,0.18432617,-0.92852783,-0.20172119,-0.296875,1.296875,-0.515625
307,0.18383789,-0.94195557,-0.20391846,0.0,1.3125,-0.765625
308,0.17871094,-0.94244385,-0.20196533,-0.078125,1.375,-0.75
309,0.17138672,-0.9380493,-0.19854736,-0.078125,0.9375,-0.390625
310,0.1899414,-0.9368286,-0.20465088,-1.03125,1.921875,-0.9375
311,0.17456055,-0.93756104,-0.190979,-0.15625,1.125,-0.296875
312,0.18652344,-0.9365845,-0.19342041,-0.140625,1.703125,-0.5625
313,0.1821289,-0.9365845,-0.20806885,-0.078125,1.375,-0.71875
314,0.16821289,-0.9417114,-0.1987915,0.265625,1.484375,-0.625
315,0.18457031,-0.93096924,-0.20611572,0.21875,1.8125,-0.375
316,0.17993164,-0.94000244,-0.19903564,0.375,1.875,-0.625
317,0.17480469,-0.9307251,-0.20831299,0.328125,1.40625,-0.421875
318,0.17651367,-0.9414673,-0.20098877,0.125,1.671875,-0.453125
319,0.18359375,-0.93585205,-0.20123291,0.984375,2.015625,-0.328125
320,0.18237305,-0.9246216,-0.20318604,0.796875,1.875,-0.265625
321,0.16967773,-0.9483032,-0.20050049,0.5,1.875,-0.078125
322,0.17895508,-0.9402466,-0.20489502,0.171875,1.859375,-0.421875
323,0.18457031,-0.93585205,-0.2078247,0.3125,1.625,-0.25
324,0.18676758,-0.944397,-0.21173096,-0.234375,1.734375,-0.375
325,0.18457031,-0.92803955,-0.21466064,0.171875,1.625,-0.65625
326,0.18139648,-0.94317627,-0.20050049,0.828125,1.859375,0.03125
327,0.17919922,-0.9331665,-0.21148682,0.203125,2.015625,-0.390625
328,0.18823242,-0.9277954,-0.21026611,-0.34375,1.640625,-0.28125
329,0.17919922,-0.94317627,-0.21270752,-0.140625,1.3125,-0.296875
330,0.17797852,-0.92926025,-0.20562744,0.15625,1.6875,-0.734375
331,0.18188477,-0.9397583,-0.20831299,0.203125,1.484375,-0.4375
332,0.18383789,-0.9402466,-0.21221924,-0.15625,1.859375,-0.671875
333,0.18310547,-0.92974854,-0.20928955,0.71875,1.671875,-0.296875
334,0.17236328,-0.93585205,-0.20440674,0.34375,1.71875,-0.25
335,0.18383789,-0.92388916,-0.20269775,0.859375,1.828125,-0.453125
336,0.18066406,-0.92633057,-0.2144165,0.625,2.09375,-0.078125
337,0.18652344,-0.94195557,-0.2156372,-0.265625,1.796875,-0.6875
338,0.17822266,-0.93951416,-0.21026611,-0.03125,1.671875,-0.609375
339,0.18237305,-0.9319458,-0.20806885,0.4375,1.703125,-0.359375
340,0.18530273,-0.9273071,-0.21661377,0.296875,1.859375,-0.203125
341,0.18188477,-0.93536377,-0.21246338,0.796875,1.953125,-0.09375
342,0.18286133,-0.9290161,-0.20562744,0.703125,1.921875,-0.28125
343,0.18334961,-0.9351196,-0.22027588,0.96875,1.875,0.453125
344,0.18676758,-0.9343872,-0.21392822,0.96875,1.21875,-0.40625
345,0.18017578,-0.9307251,-0.21026611,0.0625,1.421875,-0.703125
346,0.18237305,-0.9326782,-0.21905518,-0.34375,1.234375,-0.59375
347,0.19604492,-0.9365845,-0.21832275,0.421875,1.625,-0.15625
348,0.17773438,-0.9351196,-0.21173096,-0.140625,1.46875,-0.59375
349,0.18701172,-0.93292236,-0.21343994,-0.75,1.453125,-0.953125
350,0.18969727,-0.92926025,-0.21173096,-0.40625,1.453125,-0.796875
351,0.18603516,-0.92852783,-0.21270752,-0.484375,1.03125,-1.0
352,0.18676758,-0.92633057,-0.21466064,-0.0625,1.34375,-1.03125
353,0.18823242,-0.94317627,-0.21466064,0.3125,1.84375,-0.234375
354,0.18432617,-0.9248657,-0.21881104,0.578125,2.3125,-0.046875
355,0.1809082,-0.9348755,-0.21783447,-0.03125,3.078125,0.671875
356,0.18432617,-0.9324341,-0.21124268,-0.140625,2.703125,-0.03125
357,0.18261719,-0.9182739,-0.21612549,0.21875,2.109375,-0.296875
358,0.19506836,-0.9221802,-0.21636963,0.03125,1.875,-0.296875
359,0.17456055,-0.9343872,-0.21368408,0.359375,1.8125,-0.359375
360,0.19677734,-0.92510986,-0.22198486,0.109375,1.921875,-0.40625
361,0.18237305,-0.9378052,-0.20904541,0.6875,1.375,-0.09375
362,0.17480469,-0.9277954,-0.21539307,0.265625,1.28125,-0.6875
363,0.19750977,-0.9234009,-0.2197876,0.640625,2.1875,-0.25
364,0.18579102,-0.9368286,-0.22174072,-0.3125,1.953125,-0.515625
365,0.18164062,-0.9299927,-0.2144165,0.484375,1.953125,-0.34375
366,0.18164062,-0.93341064,-0.21246338,0.125,1.859375,-0.15625
367,0.19067383,-0.93096924,-0.22808838,0.375,1.671875,-0.359375
368,0.18554688,-0.92559814,-0.21710205,-0.859375,1.46875,-0.5
369,0.18798828,-0.93707275,-0.21343994,-0.3125,1.609375,-0.390625
370,0.19042969,-0.93170166,-0.2185669,-0.4375,1.359375,-0.875
371,0.19116211,-0.9319458,-0.22369385,0.203125,1.65625,-0.4375
372,0.1899414,-0.9246216,-0.2263794,2.046875,2.171875,-0.09375
373,0.1850586,-0.92852783,-0.22271729,2.109375,2.125,0.484375
374,0.19116211,-0.9229126,-0.21832275,2.1875,2.078125,0.125
375,0.19262695,-0.9324341,-0.22906494,1.328125,1.953125,0.25
376,0.19042969,-0.92803955,-0.23248291,0.953125,1.84375,0.015625
377,0.19262695,-0.9290161,-0.23345947,0.234375,1.671875,-0.421875
378,0.18896484,-0.9212036,-0.22735596,0.40625,1.640625,-0.765625
379,0.18798828,-0.93634033,-0.24029541,-0.15625,1.4375,-0.203125
380,0.19726562,-0.92852783,-0.23638916,-0.0625,2.765625,-0.609375
381,0.18896484,-0.9282837,-0.23077393,0.65625,2.171875,0.46875
382,0.20092773,-0.9265747,-0.24078369,-1.75,2.984375,-0.265625
383,0.19677734,-0.9378052,-0.24298096,0.0,2.96875,0.59375
384,0.17358398,-0.9277954,-0.22711182,2.28125,3.015625,0.484375
385,0.20678711,-0.90509033,-0.23492432,1.40625,3.015625,1.203125
386,0.19580078,-0.91778564,-0.237854,1.140625,2.109375,0.484375
387,0.18383789,-0.9299927,-0.24737549,1.375,2.609375,0.328125
388,0.19604492,-0.923645,-0.2432251,-0.09375,2.375,-0.84375
389,0.20263672,-0.9138794,-0.23883057,0.6875,1.3125,-0.4375
390,0.1965332,-0.9351196,-0.25030518,-0.40625,1.265625,-0.6875
391,0.19677734,-0.9194946,-0.24395752,-0.859375,1.09375,-0.625
392,0.19970703,-0.92510986,-0.23980713,-0.515625,1.625,-0.6875
393,0.20385742,-0.9290161,-0.24371338,-0.1875,1.53125,-0.1875
394,0.19458008,-0.9229126,-0.23980713,-0.046875,1.90625,-0.4375
395,0.18896484,-0.9216919,-0.24151611,0.28125,1.859375,-0.34375
396,0.19995117,-0.9221802,-0.23565674,-0.15625,1.75,-0.578125
397,0.19848633,-0.9182739,-0.24835205,0.1875,1.609375,-0.703125
398,0.18774414,-0.9248657,-0.2678833,1.0,1.78125,-0.84375
399,0.19897461,-0.93048096,-0.25860596,-1.609375,1.0,0.109375
400,0.19702148,-0.9180298,-0.2571411,-2.15625,2.046875,-0.296875
401,0.20825195,-0.9126587,-0.24615479,-0.84375,1.46875,-0.5
402,0.20776367,-0.91851807,-0.24615479,-0.859375,1.328125,-0.8125
403,0.19238281,-0.9241333,-0.23858643,0.171875,1.0625,-1.046875
404,0.19506836,-0.9277954,-0.23858643,-0.046875,1.21875,-0.3125
405,0.20361328,-0.9224243,-0.23638916,-0.21875,1.046875,-0.90625
406,0.19238281,-0.93341064,-0.23443604,-0.3125,1.46875,-0.671875
407,0.1953125,-0.92633057,-0.24151611,-0.96875,1.3125,-0.796875
408,0.19750977,-0.9295044,-0.23956299,-0.3125,1.4375,-0.53125
409,0.19726562,-0.92852783,-0.23492432,-0.6875,1.75,-0.421875
410,0.19848633,-0.9241333,-0.23272705,-0.046875,1.515625,-0.328125
411,0.20019531,-0.9221802,-0.23272705,-0.125,1.734375,-0.28125
412,0.19677734,-0.92266846,-0.22735596,0.0625,1.78125,-0.46875
413,0.19433594,-0.9192505,-0.24810791,-0.1875,1.65625,-0.421875
414,0.21142578,-0.923645,-0.24517822,-0.40625,1.625,-0.65625
415,0.18896484,-0.93096924,-0.23516846,0.453125,1.109375,-0.546875
416,0.18823242,-0.92510986,-0.23370361,-0.15625,1.3125,-0.9375
417,0.20092773,-0.9368286,-0.23736572,-0.359375,1.90625,-0.265625
418,0.19311523,-0.91851807,-0.23736572,0.15625,1.546875,-1.09375
419,0.19262695,-0.9248657,-0.22540283,0.125,1.59375,-0.609375
420,0.1940918,-0.9265747,-0.22979736,0.1875,1.625,-0.234375
421,0.203125,-0.92437744,-0.23394775,-0.375,1.453125,-0.703125
422,0.19555664,-0.9234009,-0.23809814,0.15625,1.59375,-0.484375
423,0.19555664,-0.93048096,-0.2366333,-0.25,1.640625,-0.515625
424,0.19873047,-0.9192505,-0.23370361,0.578125,1.546875,-0.5625
425,0.1965332,-0.9282837,-0.23858643,0.1875,2.015625,-0.5625
426,0.20483398,-0.93048096,-0.23809814,0.046875,1.984375,-0.5625
427,0.18969727,-0.92266846,-0.23712158,0.375,1.9375,-0.203125
428,0.20239258,-0.92633057,-0.23956299,0.234375,2.140625,-0.15625
429,0.19116211,-0.9234009,-0.23150635,-0.125,1.65625,-0.59375
430,0.19848633,-0.91729736,-0.23077393,-0.09375,1.53125,-0.53125
431,0.20825195,-0.9192505,-0.24005127,0.515625,1.78125,-0.65625
432,0.19995117,-0.9326782,-0.23150635,-0.171875,1.640625,-0.78125
433,0.20166016,-0.91900635,-0.24395752,-0.734375,1.53125,-0.671875
434,0.19238281,-0.9324341,-0.23394775,0.046875,1.265625,-0.78125
435,0.1940918,-0.928772,-0.23931885,-0.265625,1.78125,-0.703125
436,0.2006836,-0.92510986,-0.23516846,-0.390625,1.546875,-0.4375
437,0.19482422,-0.9282837,-0.23321533,-0.28125,1.671875,-0.75
438,0.2055664,-0.923645,-0.2420044,0.171875,1.859375,-0.5
439,0.19116211,-0.92193604,-0.22589111,0.515625,1.796875,-0.53125
440,0.20483398,-0.9260864,-0.23638916,-0.375,1.796875,-0.75
441,0.19580078,-0.92388916,-0.24127197,-0.484375,1.640625,-0.515625
442,0.19995117,-0.928772,-0.23614502,0.40625,1.953125,-0.125
443,0.19604492,-0.91851807,-0.24005127,0.21875,1.96875,-0.40625
444,0.19067383,-0.9221802,-0.23736572,0.34375,1.59375,-0.25
445,0.19750977,-0.9224243,-0.24005127,0.140625,1.90625,-0.40625
446,0.20019531,-0.9241333,-0.24078369,-0.171875,1.6875,-0.328125
447,0.19580078,-0.92755127,-0.23760986,-0.109375,1.734375,-0.4375
448,0.19677734,-0.93218994,-0.23956299,0.28125,1.875,-0.25
449,0.19873047,-0.91729736,-0.24102783,0.015625,1.609375,-0.09375
450,0.19482422,-0.9319458,-0.24273682,-0.859375,0.875,-0.609375
451,0.19799805,-0.93292236,-0.22833252,-1.421875,0.40625,-1.140625
452,0.19238281,-0.92510986,-0.2432251,-1.375,0.78125,-1.421875
453,0.20019531,-0.91290283,-0.2366333,-0.46875,1.25,-0.953125
454,0.18725586,-0.93707275,-0.22979736,-0.28125,0.859375,-1.109375
455,0.1899414,-0.923645,-0.23345947,-0.5625,1.015625,-1.0
456,0.19433594,-0.9258423,-0.22662354,0.0,1.234375,-0.640625
457,0.19189453,-0.9295044,-0.2300415,0.28125,1.734375,-0.359375
458,0.19213867,-0.928772,-0.2354126,0.09375,1.71875,-0.4375
459,0.19604492,-0.92193604,-0.23052979,-0.015625,1.625,-0.25
460,0.2043457,-0.92388916,-0.24029541,-0.421875,1.71875,-0.671875
461,0.19555664,-0.9248657,-0.22320557,0.125,1.703125,-0.5
462,0.19140625,-0.92510986,-0.23443604,0.078125,1.59375,0.03125
463,0.19726562,-0.92633057,-0.22418213,0.125,1.875,-0.28125
464,0.19067383,-0.9282837,-0.21929932,0.15625,1.53125,-0.8125
465,0.19238281,-0.91607666,-0.23077393,-0.375,1.328125,-0.75
466,0.19799805,-0.9282837,-0.23175049,0.234375,1.890625,-0.4375
467,0.20019531,-0.92974854,-0.23931885,0.234375,1.46875,-0.421875
468,0.20043945,-0.9224243,-0.22930908,0.21875,2.328125,-0.359375
469,0.20800781,-0.9241333,-0.22955322,0.296875,1.796875,-0.1875
470,0.1940918,-0.9175415,-0.23297119,-0.09375,1.796875,-0.09375
471,0.19970703,-0.9241333,-0.24224854,0.515625,1.734375,-0.5625
472,0.20092773,-0.9204712,-0.22393799,0.0625,1.59375,-0.84375
473,0.19555664,-0.9331665,-0.23516846,0.40625,1.828125,-0.421875
474,0.19970703,-0.9356079,-0.24151611,-0.203125,1.703125,-0.375
475,0.20214844,-0.91729736,-0.23565674,-0.046875,1.359375,-0.65625
476,0.19628906,-0.9365845,-0.23956299,-0.109375,2.109375,-0.15625
477,0.20214844,-0.91534424,-0.24615479,-0.078125,1.828125,-0.734375
478,0.19311523,-0.92437744,-0.2276001,0.265625,1.640625,-0.453125
479,0.19702148,-0.92315674,-0.23809814,-0.140625,1.109375,-0.625
480,0.2019043,-0.91851807,-0.2341919,-0.546875,1.0625,-0.703125
481,0.19995117,-0.93292236,-0.23223877,-0.390625,0.6875,-1.03125
482,0.20117188,-0.9302368,-0.2390747,-0.328125,0.765625,-1.125
483,0.2019043,-0.92315674,-0.22613525,0.5,0.015625,-2.015625
484,0.19116211,-0.91900635,-0.24298096,0.0,-0.515625,-2.65625
485,0.17944336,-0.93048096,-0.22784424,-0.78125,-0.25,-1.6875
486,0.19628906,-0.9302368,-0.2498169,-1.8125,0.8125,-0.28125
487,0.20507812,-0.9290161,-0.23590088,-0.78125,1.8125,-0.78125
488,0.19238281,-0.9212036,-0.22735596,-0.484375,1.375,-0.171875
489,0.19091797,-0.9324341,-0.22418213,-0.359375,2.328125,0.21875
490,0.19970703,-0.92803955,-0.22052002,-0.453125,2.609375,0.234375
491,0.203125,-0.92193604,-0.22320557,-0.125,3.359375,0.65625
492,0.19677734,-0.9282837,-0.22589111,0.609375,2.65625,0.0
493,0.19946289,-0.9182739,-0.22955322,0.171875,2.375,-0.3125
494,0.20141602,-0.9229126,-0.2234497,0.484375,1.703125,-0.453125
495,0.19848633,-0.93707275,-0.23272705,0.6875,2.46875,0.015625
496,0.19750977,-0.9212036,-0.23223877,0.234375,2.0625,-0.5
497,0.19702148,-0.9194946,-0.23492432,0.703125,1.984375,-0.046875
498,0.20336914,-0.9314575,-0.23321533,0.515625,2.421875,-0.15625
499,0.18798828,-0.92510986,-0.22906494,0.09375,1.609375,-0.03125
500,0.20532227,-0.9290161,-0.2354126,-0.0625,2.734375,0.265625
501,0.19799805,-0.92755127,-0.22857666,0.703125,2.171875,-0.09375
502,0.20117188,-0.9146118,-0.24517822,-0.390625,2.59375,0.0625
503,0.20043945,-0.93585205,-0.23052979,0.9375,1.78125,0.0
504,0.19506836,-0.91900635,-0.23956299,0.5,2.546875,0.453125
505,0.20288086,-0.9158325,-0.23858643,0.703125,2.359375,0.265625
506,0.2006836,-0.9295044,-0.23272705,0.125,2.28125,-0.015625
507,0.19873047,-0.92437744,-0.24249268,0.53125,2.109375,0.234375
508,0.20825195,-0.9192505,-0.23858643,1.296875,2.109375,0.15625
509,0.20629883,-0.9180298,-0.24591064,0.4375,1.890625,-0.71875
510,0.19677734,-0.9204712,-0.24298096,0.40625,1.8125,-0.3125
511,0.19042969,-0.92633057,-0.25421143,0.171875,2.140625,0.0625
512,0.20898438,-0.9170532,-0.24761963,0.671875,1.921875,-0.046875
513,0.21386719,-0.91778564,-0.2522583,0.53125,1.9375,0.28125
514,0.20336914,-0.91778564,-0.24078369,0.703125,1.953125,0.15625
515,0.2055664,-0.9168091,-0.25128174,0.125,2.078125,-0.375
516,0.21704102,-0.92803955,-0.25372314,0.46875,2.234375,0.859375
517,0.19995117,-0.91729736,-0.24420166,0.65625,2.265625,-0.15625
518,0.21166992,-0.9163208,-0.253479,0.046875,1.671875,-0.53125
519,0.21362305,-0.9170532,-0.25274658,0.171875,2.078125,0.0625
520,0.20703125,-0.91119385,-0.25079346,0.828125,1.625,-0.515625
521,0.203125,-0.9290161,-0.24737549,-0.125,1.796875,-0.53125
522,0.20654297,-0.9194946,-0.24615479,0.203125,1.796875,-0.5
523,0.2109375,-0.91192627,-0.255188,0.53125,1.890625,-0.125
524,0.2133789,-0.9246216,-0.25665283,0.46875,1.671875,-0.421875
525,0.20605469,-0.91534424,-0.25079346,0.078125,1.78125,-0.3125
526,0.21557617,-0.9180298,-0.25787354,-0.84375,2.59375,-0.84375
527,0.20678711,-0.92071533,-0.24835205,1.03125,1.984375,0.515625
528,0.21362305,-0.91290283,-0.25006104,-0.578125,1.671875,-0.40625
529,0.21118164,-0.9216919,-0.24664307,-0.234375,1.03125,-0.609375
530,0.19580078,-0.92681885,-0.25543213,0.359375,2.484375,-0.03125
531,0.22705078,-0.90753174,-0.25177002,0.0625,1.8125,-0.609375
532,0.20507812,-0.91412354,-0.24615479,-0.875,1.015625,-0.953125
533,0.21435547,-0.9155884,-0.25421143,-0.796875,1.421875,-0.65625
534,0.21777344,-0.9265747,-0.2649536,-0.15625,1.3125,-0.25
535,0.21484375,-0.913147,-0.25299072,0.015625,1.5,-0.203125
536,0.21166992,-0.9175415,-0.24713135,0.375,1.828125,-0.171875
537,0.21557617,-0.91778564,-0.25567627,0.28125,2.3125,-0.03125
538,0.21411133,-0.9155884,-0.25421143,0.421875,1.421875,-0.09375
539,0.21435547,-0.91900635,-0.25250244,0.625,2.171875,-0.234375
540,0.20263672,-0.91851807,-0.2654419,0.3125,2.25,0.015625
541,0.21508789,-0.91290283,-0.2539673,-0.703125,1.234375,-0.40625
542,0.21118164,-0.9146118,-0.2522583,0.390625,1.6875,-0.3125
543,0.21777344,-0.9109497,-0.25958252,-0.0625,1.578125,-0.1875
544,0.21777344,-0.911438,-0.2612915,0.328125,1.59375,-0.296875
545,0.22045898,-0.91119385,-0.26055908,-0.203125,1.734375,-0.796875
546,0.19580078,-0.9175415,-0.24615479,0.375,1.875,-0.21875
547,0.21484375,-0.91192627,-0.25836182,0.40625,1.953125,-0.28125
548,0.21289062,-0.9182739,-0.25323486,-0.15625,1.484375,-0.546875
549,0.20898438,-0.9092407,-0.2576294,0.453125,2.09375,-0.625
550,0.20214844,-0.9158325,-0.25152588,-0.140625,1.046875,-0.140625
551,0.2253418,-0.90582275,-0.25665283,0.515625,1.953125,-0.09375
552,0.20458984,-0.91607666,-0.2510376,0.234375,1.96875,-0.140625
553,0.23583984,-0.90631104,-0.269104,-0.671875,1.703125,-0.109375
554,0.20336914,-0.9170532,-0.24835205,-0.5625,1.109375,-0.765625
555,0.21142578,-0.9170532,-0.255188,0.5625,1.921875,-0.265625
556,0.21875,-0.9048462,-0.26104736,-0.40625,1.609375,-0.53125
557,0.21582031,-0.92193604,-0.25811768,0.59375,1.546875,-0.84375
558,0.22070312,-0.9048462,-0.25323486,0.34375,2.1875,-0.046875
559,0.20776367,-0.9168091,-0.25982666,0.40625,1.953125,-0.46875
560,0.22070312,-0.9109497,-0.25689697,1.09375,1.65625,-0.625
561,0.21899414,-0.9199829,-0.26202393,0.25,1.90625,0.0
562,0.20703125,-0.90875244,-0.26104736,-0.0625,2.125,-0.6875
563,0.22314453,-0.9187622,-0.25250244,-0.09375,1.609375,-0.890625
564,0.2109375,-0.9085083,-0.25982666,0.0625,1.515625,-0.28125
565,0.22241211,-0.92266846,-0.25738525,-0.484375,1.6875,-0.484375
566,0.22192383,-0.909729,-0.255188,0.21875,1.671875,-0.1875
567,0.21044922,-0.9026489,-0.25616455,0.4375,1.671875,-0.34375
568,0.21264648,-0.91900635,-0.25494385,0.109375,2.078125,-0.15625
569,0.20605469,-0.9104614,-0.2666626,-0.15625,1.875,-0.296875
570,0.22460938,-0.91778564,-0.24835205,0.359375,1.53125,-0.46875
571,0.22558594,-0.9116821,-0.26739502,0.25,2.171875,-0.28125
572,0.20727539,-0.90704346,-0.2576294,0.515625,1.9375,-0.25
573,0.20776367,-0.91534424,-0.27520752,-0.234375,1.578125,-0.5
574,0.234375,-0.9104614,-0.27056885,-0.1875,2.1875,-0.140625
575,0.20629883,-0.91241455,-0.25909424,-0.453125,1.65625,-0.390625
576,0.20678711,-0.91070557,-0.2649536,-0.78125,0.703125,-0.515625
577,0.21972656,-0.91607666,-0.25567627,-1.03125,1.171875,-1.015625
578,0.22143555,-0.92144775,-0.26641846,-0.6875,1.328125,-0.765625
579,0.2253418,-0.9085083,-0.2539673,-0.53125,0.984375,-1.25
580,0.21679688,-0.9151001,-0.25299072,-0.9375,0.40625,-2.09375
581,0.21484375,-0.9209595,-0.26202393,-0.484375,0.171875,-2.21875
582,0.19970703,-0.92144775,-0.25030518,-1.40625,-0.59375,-2.21875
583,0.19946289,-0.91656494,-0.253479,0.828125,1.21875,-1.3125
584,0.20336914,-0.9204712,-0.2498169,0.875,0.390625,-0.6875
585,0.19970703,-0.91729736,-0.25006104,0.265625,0.578125,-1.390625
586,0.20361328,-0.928772,-0.25079346,0.3125,1.984375,0.1875
587,0.21166992,-0.9229126,-0.26055908,0.828125,2.984375,0.234375
588,0.22583008,-0.91534424,-0.2617798,0.09375,1.90625,-0.28125
589,0.22314453,-0.91607666,-0.25616455,-0.84375,0.984375,-0.328125
590,0.20507812,-0.9158325,-0.26617432,-1.046875,1.28125,0.046875
591,0.21655273,-0.9170532,-0.2617798,-1.453125,0.75,0.203125
592,0.21606445,-0.90948486,-0.25567627,-1.765625,1.9375,0.234375
593,0.2290039,-0.92510986,-0.24127197,-0.390625,2.03125,-0.34375
594,0.20751953,-0.9026489,-0.24761963,0.625,2.328125,-0.5
595,0.21240234,-0.92022705,-0.25006104,-0.484375,1.484375,-0.21875
596,0.20996094,-0.92071533,-0.25030518,-1.390625,0.609375,-1.453125
597,0.22338867,-0.9221802,-0.25201416,-0.859375,1.71875,-0.453125
598,0.2175293,-0.92193604,-0.2341919,0.828125,1.796875,-0.796875
599,0.20605469,-0.90509033,-0.2444458,-0.09375,1.4375,-0.34375
600,0.21557617,-0.9221802,-0.2420044,-0.4375,1.96875,-0.46875
601,0.20874023,-0.92144775,-0.2498169,-0.5,1.34375,-0.640625
602,0.2121582,-0.9241333,-0.24664307,-0.6875,1.578125,-0.46875
603,0.2199707,-0.91070557,-0.23883057,-0.046875,1.296875,-0.546875
604,0.20874023,-0.9175415,-0.23638916,0.375,1.421875,-0.484375
605,0.21289062,-0.9246216,-0.24298096,-0.71875,1.328125,-0.84375
606,0.21191406,-0.9143677,-0.24835205,-1.15625,0.859375,-1.125
607,0.22363281,-0.923645,-0.23370361,-1.453125,1.328125,-0.921875
608,0.20947266,-0.9158325,-0.24298096,-0.5,1.453125,-0.875
609,0.21069336,-0.92071533,-0.23394775,-0.1875,1.296875,-0.640625
610,0.20385742,-0.9187622,-0.23883057,-0.140625,1.203125,-0.546875
611,0.203125,-0.9229126,-0.24029541,0.15625,1.640625,-0.46875
612,0.21411133,-0.92559814,-0.23052979,-0.28125,1.625,-0.59375
613,0.20483398,-0.923645,-0.24249268,-0.015625,1.703125,-0.25
614,0.20581055,-0.92388916,-0.23077393,0.125,1.421875,-0.875
615,0.22265625,-0.9168091,-0.24615479,-1.140625,1.71875,-0.59375
616,0.2121582,-0.9194946,-0.23345947,-0.6875,1.0625,-1.484375
617,0.21801758,-0.9246216,-0.22320557,-1.65625,1.1875,-1.9375
618,0.21972656,-0.91729736,-0.24371338,-2.109375,0.421875,-2.296875
619,0.19458008,-0.93218994,-0.23614502,-1.203125,1.59375,-1.671875
620,0.19799805,-0.9307251,-0.22662354,-0.609375,1.765625,-1.140625
621,0.21313477,-0.92071533,-0.2354126,-0.9375,2.0625,-0.40625
622,0.20532227,-0.9241333,-0.23077393,-0.78125,1.421875,-0.828125
623,0.1875,-0.9234009,-0.22808838,-0.46875,1.40625,-0.453125
624,0.20703125,-0.9234009,-0.23712158,-0.078125,2.34375,-0.484375
625,0.20947266,-0.9199829,-0.22662354,1.015625,1.609375,-0.40625
626,0.20996094,-0.92755127,-0.23199463,0.5625,2.046875,-0.28125
627,0.19970703,-0.9224243,-0.22784424,1.140625,1.796875,-0.3125
628,0.21826172,-0.9258423,-0.22613525,0.84375,2.171875,-0.0625
629,0.20678711,-0.923645,-0.23638916,1.515625,1.609375,0.078125
630,0.203125,-0.9324341,-0.2288208,0.109375,2.125,-0.015625
631,0.21386719,-0.9182739,-0.22686768,0.109375,2.265625,-0.078125
632,0.20727539,-0.91363525,-0.23052979,1.71875,2.234375,0.265625
633,0.21777344,-0.92974854,-0.24493408,0.859375,2.21875,-0.015625
634,0.19458008,-0.91729736,-0.2354126,1.0625,2.0,-0.0625
635,0.20996094,-0.91241455,-0.23077393,0.40625,2.578125,-0.015625
636,0.20288086,-0.91851807,-0.22296143,0.25,1.09375,-0.828125
637,0.19970703,-0.9170532,-0.2456665,0.0625,1.671875,-0.546875
638,0.2163086,-0.9248657,-0.24078369,-0.734375,1.875,-0.5
639,0.19311523,-0.9277954,-0.23956299,-0.234375,1.375,-1.109375
640,0.20922852,-0.92437744,-0.23590088,0.40625,2.171875,0.046875
641,0.2006836,-0.92388916,-0.23712158,0.0,1.5625,-0.65625
642,0.20336914,-0.9258423,-0.24078369,1.015625,2.390625,-0.21875
643,0.20727539,-0.9192505,-0.23687744,1.296875,2.359375,0.203125
644,0.20996094,-0.90948486,-0.24346924,0.671875,2.375,-0.328125
645,0.21166992,-0.9277954,-0.24615479,0.359375,1.984375,-0.546875
646,0.20288086,-0.91412354,-0.23858643,1.21875,1.75,-0.234375
647,0.21508789,-0.92193604,-0.24395752,1.3125,2.53125,0.21875
648,0.20361328,-0.92315674,-0.25323486,-0.296875,1.15625,-0.28125
649,0.21899414,-0.9116821,-0.24884033,0.53125,1.890625,-0.484375
650,0.20629883,-0.92315674,-0.24493408,0.421875,1.671875,-0.421875
651,0.20947266,-0.90997314,-0.25323486,-0.53125,1.046875,-0.453125
652,0.20043945,-0.92315674,-0.24029541,0.640625,1.515625,-0.578125
653,0.21679688,-0.9216919,-0.25323486,-0.109375,1.5,0.0625
654,0.2043457,-0.91851807,-0.24078369,-0.09375,0.484375,-1.234375
655,0.20996094,-0.91656494,-0.24737549,0.6875,1.578125,-0.046875
656,0.21240234,-0.9138794,-0.24493408,-0.046875,2.15625,-0.171875
657,0.20361328,-0.9163208,-0.25128174,-0.640625,1.671875,-0.625
658,0.22436523,-0.913147,-0.25689697,0.0625,1.6875,-0.234375
659,0.20483398,-0.9307251,-0.23931885,0.390625,2.359375,-0.34375
660,0.20703125,-0.9036255,-0.25006104,0.171875,1.953125,-0.59375
661,0.21899414,-0.9116821,-0.25299072,0.109375,2.3125,0.171875
662,0.20654297,-0.91778564,-0.25372314,0.71875,2.34375,0.046875
663,0.21411133,-0.9163208,-0.23492432,0.484375,1.9375,0.359375
664,0.20996094,-0.9175415,-0.24957275,0.140625,1.71875,-0.25
665,0.22314453,-0.91241455,-0.24713135,0.546875,2.125,-0.59375
666,0.21557617,-0.90753174,-0.25372314,0.296875,1.84375,0.171875
667,0.21459961,-0.92193604,-0.2559204,0.140625,2.0625,0.015625
668,0.21484375,-0.9192505,-0.2444458,0.921875,1.78125,-0.640625
669,0.21728516,-0.9116821,-0.25323486,-0.359375,1.703125,-0.390625
670,0.21484375,-0.91290283,-0.2546997,-0.421875,2.640625,-0.359375
671,0.20751953,-0.9204712,-0.2522583,-0.109375,2.28125,-0.21875
672,0.22192383,-0.9234009,-0.25665283,0.203125,1.28125,-0.296875
673,0.20922852,-0.9043579,-0.24884033,-0.453125,0.34375,-0.671875
674,0.21948242,-0.9221802,-0.25006104,-0.6875,0.328125,-1.03125
675,0.21069336,-0.92510986,-0.25006104,-0.796875,0.171875,-2.0
676,0.22460938,-0.9104614,-0.24835205,-0.84375,-0.59375,-2.0625
677,0.21020508,-0.92510986,-0.23980713,2.234375,1.28125,-1.453125
678,0.19799805,-0.9260864,-0.25494385,2.390625,2.21875,-0.578125
679,0.20751953,-0.9104614,-0.255188,0.765625,1.15625,-0.90625
680,0.21484375,-0.9221802,-0.26617432,0.09375,1.03125,-0.234375
681,0.20800781,-0.92755127,-0.2576294,-0.796875,0.703125,-0.78125
682,0.2055664,-0.9221802,-0.26031494,-1.953125,0.75,-0.6875
683,0.21875,-0.8999634,-0.25250244,-2.8125,1.21875,-0.71875
684,0.21142578,-0.9314575,-0.24005127,-1.640625,1.21875,-0.75
685,0.2133789,-0.89727783,-0.24176025,-1.34375,1.28125,-0.65625
686,0.22094727,-0.9060669,-0.24420166,-0.28125,1.78125,-0.390625
687,0.20947266,-0.9282837,-0.24639893,-0.34375,1.375,0.0
688,0.20532227,-0.92022705,-0.2390747,0.078125,1.53125,-0.421875
689,0.20898438,-0.91607666,-0.24029541,-0.015625,2.109375,-0.140625
690,0.20654297,-0.92144775,-0.24053955,0.34375,1.390625,-0.46875
691,0.21313477,-0.9229126,-0.24493408,-0.65625,1.25,-0.59375
692,0.20996094,-0.9170532,-0.24151611,-0.59375,1.328125,-0.5625
693,0.21289062,-0.92071533,-0.23687744,-0.40625,1.15625,-0.5625
694,0.21801758,-0.9168091,-0.23516846,-0.4375,1.328125,-0.21875
695,0.21313477,-0.9168091,-0.23394775,0.078125,1.59375,-0.53125
696,0.21826172,-0.91851807,-0.24127197,0.890625,1.8125,-0.640625
697,0.21801758,-0.9158325,-0.2510376,-0.1875,1.640625,-0.4375
698,0.20776367,-0.91973877,-0.24420166,0.546875,1.453125,-0.59375
699,0.2097168,-0.9277954,-0.2468872,0.65625,2.1875,-0.109375
700,0.21289062,-0.9038696,-0.24371338,0.5625,2.734375,-0.453125
701,0.21704102,-0.92315674,-0.24884033,0.0,2.421875,-0.171875
702,0.20751953,-0.923645,-0.23834229,0.5,2.296875,-0.46875
703,0.21777344,-0.91534424,-0.23590088,0.578125,2.328125,-0.109375
704,0.22021484,-0.91070557,-0.2498169,0.15625,2.015625,-0.5
705,0.20678711,-0.92144775,-0.24664307,0.265625,1.5,-0.125
706,0.21704102,-0.9204712,-0.24737549,0.265625,2.21875,-0.15625
707,0.20825195,-0.90948486,-0.24053955,0.4375,1.296875,-0.671875
708,0.21069336,-0.911438,-0.24395752,-0.359375,1.328125,-0.53125
709,0.21435547,-0.9209595,-0.24127197,0.21875,2.03125,-0.421875
710,0.20922852,-0.9180298,-0.24176025,0.15625,1.65625,-0.25
711,0.21728516,-0.9109497,-0.25079346,0.1875,1.59375,-0.625
712,0.21972656,-0.9199829,-0.24908447,0.484375,2.140625,-0.0625
713,0.20898438,-0.91485596,-0.2510376,0.46875,1.984375,-0.203125
714,0.22314453,-0.91290283,-0.2576294,-0.046875,1.5625,-0.75
715,0.2211914,-0.91973877,-0.23590088,0.765625,1.640625,-0.234375
716,0.21118164,-0.91241455,-0.253479,0.265625,2.28125,-0.484375
717,0.21166992,-0.9143677,-0.23956299,1.046875,1.515625,-0.359375
718,0.21069336,-0.90875244,-0.25567627,0.1875,2.296875,-0.546875
719,0.22509766,-0.9126587,-0.24908447,-1.125,1.25,-1.078125
720,0.20117188,-0.9351196,-0.24615479,-0.1875,1.78125,-0.3125
721,0.21191406,-0.91119385,-0.24932861,0.46875,2.078125,-0.875
722,0.22338867,-0.9060669,-0.25152588,0.265625,1.828125,-0.0625
723,0.2109375,-0.92437744,-0.25006104,0.046875,1.3125,-0.421875
724,0.20629883,-0.9116821,-0.24078369,0.203125,2.4375,-0.53125
725,0.21875,-0.91241455,-0.25006104,0.28125,2.015625,-0.390625
726,0.2253418,-0.9072876,-0.25177002,0.6875,2.421875,-0.421875
727,0.20458984,-0.91778564,-0.24078369,0.8125,1.0625,-0.265625
728,0.21484375,-0.9182739,-0.25909424,0.125,2.203125,-0.1875
729,0.2175293,-0.92315674,-0.25079346,0.53125,1.75,-0.578125
730,0.21411133,-0.91607666,-0.25738525,-0.171875,1.515625,-0.28125
731,0.2277832,-0.9216919,-0.25445557,0.65625,2.546875,-0.5
732,0.2055664,-0.91119385,-0.24713135,-0.296875,1.640625,-0.046875
733,0.21484375,-0.91412354,-0.24957275,0.421875,1.65625,-0.46875
734,0.21899414,-0.913147,-0.25567627,-0.109375,1.109375,-0.6875
735,0.22094727,-0.9060669,-0.24761963,-1.234375,0.703125,-1.546875
736,0.21948242,-0.91119385,-0.24517822,-0.984375,0.71875,-1.75
737,0.21923828,-0.9199829,-0.24615479,-0.375,0.234375,-2.453125
738,0.22021484,-0.9126587,-0.23760986,1.265625,1.125,-2.5625
739,0.1965332,-0.9146118,-0.23370361,1.125,1.96875,-1.171875
740,0.20019531,-0.9229126,-0.24957275,2.265625,0.40625,-0.828125
741,0.21264648,-0.91973877,-0.25299072,3.328125,2.96875,-1.078125
742,0.21264648,-0.9163208,-0.25909424,2.828125,2.796875,-0.609375
743,0.19384766,-0.89971924,-0.27301025,1.59375,0.109375,-1.0
744,0.21118164,-0.9155884,-0.27056885,-1.6875,1.171875,-0.546875
745,0.2055664,-0.93048096,-0.26617432,-1.34375,1.625,0.015625
746,0.22363281,-0.9077759,-0.26885986,-2.734375,0.46875,-0.796875
747,0.20239258,-0.9067993,-0.25616455,-2.0,0.484375,-0.765625
748,0.19873047,-0.9224243,-0.23931885,-1.828125,1.1875,-0.640625
749,0.21386719,-0.9031372,-0.24810791,-0.21875,2.046875,-0.40625
750,0.21801758,-0.9102173,-0.25811768,0.15625,1.3125,0.015625
751,0.21191406,-0.909729,-0.25738525,-0.3125,1.328125,-0.421875
752,0.1928711,-0.9192505,-0.24932861,0.796875,1.515625,0.34375
753,0.20898438,-0.9229126,-0.25030518,1.1875,1.734375,0.09375
754,0.21386719,-0.91778564,-0.26593018,0.125,1.96875,0.0625
755,0.2133789,-0.9209595,-0.25323486,-1.3125,1.578125,-0.40625
756,0.22241211,-0.90948486,-0.25006104,-0.4375,1.890625,-0.4375
757,0.2097168,-0.91241455,-0.25250244,-0.859375,1.796875,0.015625
758,0.22192383,-0.91070557,-0.26348877,0.03125,1.453125,-0.78125
759,0.21875,-0.9143677,-0.25250244,0.40625,1.3125,-0.421875
760,0.21240234,-0.9204712,-0.2576294,-0.125,1.484375,-0.171875
761,0.21777344,-0.9126587,-0.25445557,0.28125,1.21875,-0.484375
762,0.20800781,-0.90826416,-0.25323486,-0.515625,1.4375,-1.03125
763,0.21850586,-0.92315674,-0.25543213,-1.0625,1.828125,-0.4375
764,0.21850586,-0.9053345,-0.2559204,-0.5625,1.5625,-0.984375
765,0.2211914,-0.91534424,-0.2539673,-0.375,1.765625,-0.484375
766,0.21777344,-0.9187622,-0.2498169,-0.890625,1.15625,-0.84375
767,0.21826172,-0.90093994,-0.24786377,-0.5,1.765625,-0.625
