sample_no,accel_x,accel_y,accel_z,gyro_x,gyro_y,gyro_z
0,0.45996094,-0.15045166,-0.831604,0.0,0.65625,-0.640625
1,0.45483398,-0.14508057,-0.8291626,-0.03125,1.484375,-0.390625
2,0.4519043,-0.15020752,-0.82891846,0.078125,1.75,-0.25
3,0.44335938,-0.14971924,-0.8225708,0.234375,0.984375,-0.59375
4,0.45288086,-0.14556885,-0.8303833,0.1875,1.515625,-0.59375
5,0.45092773,-0.14630127,-0.82647705,0.21875,1.3125,-0.625
6,0.453125,-0.14678955,-0.82818604,0.625,2.140625,-0.53125
7,0.45117188,-0.13970947,-0.8386841,0.671875,2.28125,-0.390625
8,0.44750977,-0.14849854,-0.8250122,0.609375,2.078125,-0.609375
9,0.45239258,-0.14312744,-0.831604,0.21875,1.859375,-0.875
10,0.45654297,-0.13824463,-0.82769775,0.671875,2.390625,-0.765625
11,0.44848633,-0.14801025,-0.8171997,1.109375,3.265625,-0.65625
12,0.44799805,-0.14019775,-0.8364868,0.84375,3.578125,-0.6875
13,0.44604492,-0.14459229,-0.83843994,0.859375,3.546875,-0.5625
14,0.44799805,-0.14361572,-0.8418579,0.390625,2.359375,-0.640625
15,0.44482422,-0.14093018,-0.83551025,-0.515625,0.984375,-0.46875
16,0.44970703,-0.14434814,-0.83013916,-0.546875,1.015625,-0.296875
17,0.45458984,-0.14385986,-0.83966064,0.03125,1.859375,-0.1875
18,0.45117188,-0.14434814,-0.83135986,0.0625,1.453125,-0.234375
19,0.44628906,-0.1416626,-0.8320923,0.328125,1.78125,-0.25
20,0.44702148,-0.14312744,-0.84454346,-0.03125,1.828125,-0.46875
21,0.44726562,-0.13922119,-0.83258057,-0.453125,1.078125,-0.625
22,0.4506836,-0.14361572,-0.8284302,0.09375,1.78125,-0.53125
23,0.44384766,-0.14508057,-0.8335571,-0.1875,1.796875,-0.75
24,0.4465332,-0.14605713,-0.8296509,-0.390625,1.109375,-0.640625
25,0.44921875,-0.13458252,-0.83795166,-0.453125,0.921875,-0.609375
26,0.45141602,-0.14385986,-0.8262329,-0.203125,1.390625,-0.6875
27,0.45117188,-0.14068604,-0.81988525,0.921875,2.9375,-0.484375
28,0.4482422,-0.1428833,-0.8381958,0.671875,2.890625,-0.578125
29,0.44604492,-0.14117432,-0.83380127,1.34375,3.09375,-0.46875
30,0.44335938,-0.13946533,-0.84039307,1.75,2.625,-0.265625
31,0.4453125,-0.13165283,-0.8328247,1.78125,3.0,-0.40625
32,0.44189453,-0.13604736,-0.8464966,0.90625,2.734375,-0.53125
33,0.44311523,-0.13677979,-0.8442993,0.328125,1.5,-0.78125
34,0.4477539,-0.13018799,-0.8411255,-0.484375,0.9375,-0.796875
35,0.44702148,-0.12896729,-0.8374634,-0.390625,0.59375,-0.671875
36,0.44262695,-0.13336182,-0.8362427,0.203125,1.421875,-0.4375
37,0.44433594,-0.12994385,-0.8406372,0.234375,2.0,-0.359375
38,0.4465332,-0.13604736,-0.833313,0.78125,2.390625,-0.359375
39,0.44091797,-0.13043213,-0.8364868,0.5625,1.8125,-0.4375
40,0.44726562,-0.13214111,-0.8440552,-0.03125,1.4375,-0.5
41,0.44140625,-0.12994385,-0.8389282,0.15625,1.734375,-0.515625
42,0.44140625,-0.13287354,-0.8418579,-0.796875,0.96875,-0.671875
43,0.44433594,-0.13214111,-0.833313,-0.46875,1.359375,-0.671875
44,0.44067383,-0.12945557,-0.835022,-0.25,1.421875,-0.65625
45,0.44726562,-0.12750244,-0.84039307,0.125,1.046875,-0.5
46,0.4440918,-0.13433838,-0.8418579,0.296875,0.734375,-0.375
47,0.44506836,-0.13189697,-0.83673096,0.5,0.828125,-0.484375
48,0.45043945,-0.13116455,-0.8428345,0.34375,1.765625,-0.5
49,0.44262695,-0.13433838,-0.8501587,0.34375,2.09375,-0.5
50,0.44140625,-0.12579346,-0.83258057,0.28125,1.75,-0.671875
51,0.44921875,-0.13311768,-0.84503174,0.21875,1.84375,-0.484375
52,0.44262695,-0.13018799,-0.83428955,0.0,1.75,-0.59375
53,0.44726562,-0.128479,-0.8460083,-0.0625,1.6875,-0.578125
54,0.44458008,-0.1326294,-0.83721924,-0.296875,1.328125,-0.59375
55,0.44970703,-0.1362915,-0.8418579,-0.078125,1.453125,-0.578125
56,0.44848633,-0.12652588,-0.8411255,0.125,2.015625,-0.59375
57,0.44067383,-0.12677002,-0.8364868,0.390625,2.1875,-0.578125
58,0.44018555,-0.13287354,-0.83673096,0.375,2.171875,-0.578125
59,0.4465332,-0.13018799,-0.8440552,0.5625,1.84375,-0.640625
60,0.4440918,-0.12701416,-0.83966064,0.71875,2.078125,-0.78125
61,0.4453125,-0.13018799,-0.83599854,0.546875,2.03125,-0.8125
62,0.43701172,-0.12701416,-0.84332275,0.53125,2.109375,-0.78125
63,0.4416504,-0.12384033,-0.8440552,0.578125,1.921875,-0.578125
64,0.44140625,-0.12628174,-0.8394165,0.0,1.875,-0.703125
65,0.4428711,-0.12579346,-0.8460083,-0.046875,1.921875,-0.625
66,0.44384766,-0.13214111,-0.8442993,0.453125,1.90625,-0.578125
67,0.44262695,-0.12872314,-0.8399048,-0.234375,1.40625,-0.703125
68,0.4404297,-0.124816895,-0.84088135,0.3125,1.84375,-0.546875
69,0.43896484,-0.12677002,-0.8435669,-0.203125,1.578125,-0.65625
70,0.44335938,-0.117492676,-0.8440552,-0.265625,0.75,-0.515625
71,0.43969727,-0.128479,-0.8447876,-0.421875,0.84375,-0.546875
72,0.4428711,-0.12017822,-0.8411255,-0.53125,0.46875,-0.640625
73,0.44311523,-0.12286377,-0.8352661,-0.109375,0.71875,-0.796875
74,0.43725586,-0.124572754,-0.8374634,0.28125,1.671875,-0.59375
75,0.44604492,-0.12213135,-0.8335571,0.5,1.71875,-0.515625
76,0.4465332,-0.12188721,-0.8526001,0.5625,2.625,-0.46875
77,0.43945312,-0.12530518,-0.83184814,1.046875,2.8125,-0.59375
78,0.4428711,-0.11871338,-0.8533325,0.515625,2.59375,-0.265625
79,0.4428711,-0.11578369,-0.83795166,-0.109375,1.6875,-0.5
80,0.44262695,-0.12237549,-0.84869385,-0.171875,1.515625,-0.515625
81,0.44311523,-0.12237549,-0.8357544,-0.140625,1.4375,-0.609375
82,0.43823242,-0.12530518,-0.8496704,-0.265625,1.390625,-0.625
83,0.4399414,-0.12042236,-0.8394165,-0.0625,1.5,-0.640625
84,0.43823242,-0.121154785,-0.8345337,0.21875,1.890625,-0.625
85,0.43603516,-0.12213135,-0.833313,0.21875,2.140625,-0.421875
86,0.43530273,-0.12017822,-0.8440552,0.203125,2.21875,-0.640625
87,0.44091797,-0.121154785,-0.83599854,0.3125,2.4375,-0.734375
88,0.44213867,-0.12359619,-0.85479736,0.453125,2.40625,-0.484375
89,0.43798828,-0.11627197,-0.8508911,0.546875,1.765625,-0.46875
90,0.4362793,-0.120666504,-0.84161377,0.109375,1.46875,-0.546875
91,0.4345703,-0.11968994,-0.84991455,-0.078125,1.375,-0.625
92,0.43774414,-0.11773682,-0.8377075,0.234375,1.984375,-0.4375
93,0.43701172,-0.12359619,-0.8447876,-0.78125,1.359375,-0.875
94,0.43579102,-0.12359619,-0.8467407,-0.078125,1.875,-0.53125
95,0.43286133,-0.12579346,-0.8435669,0.03125,2.078125,-0.5625
96,0.43652344,-0.12432861,-0.84552,0.296875,2.1875,-0.578125
97,0.43896484,-0.113098145,-0.8430786,0.28125,1.90625,-0.546875
98,0.43823242,-0.1182251,-0.84698486,-0.0625,1.40625,-0.53125
99,0.43798828,-0.12017822,-0.84259033,0.203125,1.5625,-0.625
100,0.43652344,-0.117248535,-0.84820557,0.1875,1.578125,-0.578125
101,0.43432617,-0.11968994,-0.84381104,0.09375,1.421875,-0.65625
102,0.43847656,-0.117492676,-0.8399048,0.078125,1.921875,-0.734375
103,0.43652344,-0.116760254,-0.84210205,0.453125,2.609375,-0.65625
104,0.43188477,-0.11846924,-0.8464966,0.59375,3.015625,-0.421875
105,0.4333496,-0.11798096,-0.8464966,0.21875,2.40625,-0.46875
106,0.43798828,-0.11798096,-0.84747314,0.25,2.109375,-0.640625
107,0.43237305,-0.117004395,-0.84869385,0.515625,2.046875,-0.5625
108,0.4333496,-0.11871338,-0.8533325,0.390625,1.84375,-0.65625
109,0.43310547,-0.11968994,-0.85284424,0.453125,1.3125,-0.484375
110,0.43139648,-0.11138916,-0.8545532,0.296875,1.171875,-0.546875
111,0.44018555,-0.12164307,-0.8484497,-0.171875,1.4375,-0.53125
112,0.4350586,-0.11798096,-0.83917236,-0.0625,1.75,-0.640625
113,0.4411621,-0.12042236,-0.84747314,-0.296875,1.453125,-0.75
114,0.43969727,-0.1194458,-0.84625244,-0.21875,1.359375,-0.625
115,0.44213867,-0.1182251,-0.8442993,-0.59375,1.15625,-0.625
116,0.43725586,-0.11968994,-0.83917236,0.296875,1.875,-0.609375
117,0.43188477,-0.11090088,-0.8533325,0.34375,2.34375,-0.515625
118,0.44140625,-0.11212158,-0.84820557,0.578125,2.34375,-0.453125
119,0.43554688,-0.11212158,-0.84698486,0.59375,2.1875,-0.53125
120,0.43554688,-0.117492676,-0.8389282,0.21875,1.46875,-0.640625
121,0.43603516,-0.11138916,-0.8411255,0.328125,1.578125,-0.59375
122,0.44140625,-0.117248535,-0.85162354,-0.296875,1.390625,-0.75
123,0.43847656,-0.112854004,-0.84747314,-0.015625,1.40625,-0.421875
124,0.43847656,-0.11260986,-0.8496704,-0.03125,1.71875,-0.53125
125,0.43432617,-0.11187744,-0.84942627,-0.03125,1.78125,-0.453125
126,0.4428711,-0.11065674,-0.85821533,0.125,1.796875,-0.546875
127,0.43725586,-0.11065674,-0.8491821,0.09375,1.828125,-0.5625
128,0.44213867,-0.108947754,-0.84991455,0.203125,1.953125,-0.5
129,0.43896484,-0.11114502,-0.8389282,0.1875,1.78125,-0.640625
130,0.4362793,-0.11212158,-0.84161377,0.0,1.875,-0.5625
131,0.43701172,-0.117492676,-0.84747314,-0.125,1.734375,-0.703125
132,0.43847656,-0.11236572,-0.84820557,-0.234375,1.421875,-0.5625
133,0.43920898,-0.11602783,-0.8484497,-0.015625,1.515625,-0.390625
134,0.43017578,-0.11187744,-0.8508911,-0.109375,1.703125,-0.6875
135,0.43408203,-0.11456299,-0.84552,0.1875,1.59375,-0.5625
136,0.43896484,-0.112854004,-0.8533325,-0.21875,1.609375,-0.46875
137,0.4375,-0.12042236,-0.84259033,0.0625,1.578125,-0.5
138,0.43676758,-0.113342285,-0.8442993,0.1875,1.84375,-0.515625
139,0.43676758,-0.11578369,-0.8496704,-0.390625,1.5625,-0.734375
140,0.4296875,-0.11065674,-0.84576416,0.03125,1.640625,-0.546875
141,0.4350586,-0.11578369,-0.84332275,0.09375,1.96875,-0.53125
142,0.43798828,-0.113342285,-0.8484497,0.171875,2.0625,-0.53125
143,0.43530273,-0.11383057,-0.8513794,0.0,1.71875,-0.484375
144,0.43701172,-0.11212158,-0.8545532,-0.03125,1.484375,-0.53125
145,0.43554688,-0.11505127,-0.8464966,-0.015625,1.5,-0.484375
146,0.43725586,-0.11529541,-0.84869385,0.265625,1.421875,-0.734375
147,0.43701172,-0.10992432,-0.84381104,-0.03125,1.546875,-0.59375
148,0.43603516,-0.11480713,-0.84552,-0.09375,1.609375,-0.453125
149,0.43774414,-0.11212158,-0.83966064,-0.375,1.53125,-0.40625
150,0.43359375,-0.11993408,-0.84381104,-0.0625,1.59375,-0.515625
151,0.4362793,-0.11920166,-0.8430786,-0.1875,1.59375,-0.546875
152,0.44189453,-0.11480713,-0.8501587,-0.1875,1.640625,-0.71875
153,0.43481445,-0.117492676,-0.84259033,-0.109375,1.609375,-0.59375
154,0.43554688,-0.11529541,-0.84088135,-0.015625,1.828125,-0.484375
155,0.4387207,-0.11627197,-0.8452759,0.109375,1.71875,-0.515625
156,0.43847656,-0.10797119,-0.8364868,0.140625,1.75,-0.609375
157,0.43896484,-0.109680176,-0.83795166,0.078125,1.765625,-0.5625
158,0.43896484,-0.11212158,-0.8394165,0.15625,1.96875,-0.453125
159,0.44140625,-0.11383057,-0.8467407,0.40625,1.703125,-0.46875
160,0.43188477,-0.11065674,-0.8508911,0.09375,1.984375,-0.609375
161,0.42993164,-0.11236572,-0.84039307,-0.140625,1.421875,-0.46875
162,0.43823242,-0.11016846,-0.84991455,0.0625,1.4375,-0.5625
163,0.43920898,-0.11212158,-0.8521118,-0.734375,1.25,-0.75
164,0.43798828,-0.109436035,-0.8394165,-0.390625,1.625,-0.703125
165,0.43701172,-0.11383057,-0.84088135,-0.15625,1.859375,-0.59375
166,0.4440918,-0.11383057,-0.8477173,-0.234375,1.609375,-0.578125
167,0.44384766,-0.11236572,-0.8496704,-0.09375,1.78125,-0.625
168,0.4362793,-0.1116333,-0.8579712,-0.40625,1.515625,-0.609375
169,0.43701172,-0.11651611,-0.84625244,-0.546875,1.515625,-0.59375
170,0.43798828,-0.11407471,-0.848938,-0.21875,1.734375,-0.59375
171,0.4345703,-0.11529541,-0.8440552,-0.09375,1.734375,-0.53125
172,0.4416504,-0.121398926,-0.84381104,0.21875,1.859375,-0.375
173,0.4362793,-0.11187744,-0.84576416,0.296875,1.734375,-0.390625
174,0.44067383,-0.109191895,-0.83966064,0.359375,1.875,-0.46875
175,0.43798828,-0.11138916,-0.84820557,0.078125,1.890625,-0.59375
176,0.43432617,-0.11138916,-0.84869385,0.078125,1.78125,-0.703125
177,0.4362793,-0.11480713,-0.850647,-0.0625,1.453125,-0.6875
178,0.43652344,-0.11187744,-0.8413696,-0.234375,1.34375,-0.59375
179,0.43798828,-0.11871338,-0.8447876,-0.359375,1.390625,-0.53125
180,0.43481445,-0.113098145,-0.8484497,-0.15625,1.421875,-0.625
181,0.4362793,-0.11260986,-0.8479614,-0.015625,1.390625,-0.359375
182,0.43554688,-0.108947754,-0.848938,-0.09375,1.296875,-0.546875
183,0.43725586,-0.11505127,-0.8447876,-0.46875,1.25,-0.46875
184,0.4404297,-0.11016846,-0.8526001,-0.34375,0.96875,-0.5625
185,0.43701172,-0.11627197,-0.8345337,-0.328125,1.109375,-0.609375
186,0.43725586,-0.11895752,-0.83551025,-0.0625,1.234375,-0.5
187,0.43823242,-0.10650635,-0.84259033,-0.171875,1.546875,-0.46875
188,0.4387207,-0.109436035,-0.8413696,-0.75,0.890625,-0.625
189,0.44018555,-0.11920166,-0.83795166,-0.21875,1.421875,-0.46875
190,0.43701172,-0.1182251,-0.84259033,-0.046875,1.671875,-0.640625
191,0.44018555,-0.12188721,-0.8447876,0.0,1.84375,-0.5
192,0.4494629,-0.11578369,-0.84942627,0.015625,1.75,-0.53125
193,0.43579102,-0.109191895,-0.8435669,-0.09375,1.265625,-0.625
194,0.44311523,-0.120666504,-0.83966064,0.09375,1.359375,-0.46875
195,0.44702148,-0.11383057,-0.84088135,-0.078125,1.234375,-0.671875
196,0.44482422,-0.11212158,-0.8411255,-0.171875,1.109375,-0.640625
197,0.44677734,-0.12042236,-0.8386841,0.171875,1.828125,-0.71875
198,0.44482422,-0.113342285,-0.84088135,0.15625,1.875,-0.4375
199,0.44873047,-0.11260986,-0.8413696,0.3125,1.953125,-0.65625
200,0.44189453,-0.10797119,-0.83966064,-0.15625,1.453125,-0.578125
201,0.43969727,-0.10992432,-0.84210205,-0.03125,1.625,-0.546875
202,0.44262695,-0.11016846,-0.83795166,-0.140625,1.40625,-0.625
203,0.44506836,-0.11480713,-0.8381958,-0.140625,1.625,-0.75
204,0.43896484,-0.1194458,-0.84332275,-0.484375,1.296875,-0.640625
205,0.44335938,-0.11651611,-0.84161377,-0.421875,1.34375,-0.484375
206,0.44458008,-0.117004395,-0.83843994,-0.125,1.65625,-0.484375
207,0.4411621,-0.11651611,-0.848938,0.078125,2.125,-0.609375
208,0.44384766,-0.11529541,-0.8430786,-0.0625,2.015625,-0.5
209,0.44433594,-0.11846924,-0.8452759,-0.09375,1.828125,-0.59375
210,0.43579102,-0.11431885,-0.8340454,-0.171875,1.59375,-0.546875
211,0.4428711,-0.11993408,-0.8401489,-0.03125,1.453125,-0.546875
212,0.4477539,-0.11578369,-0.8364868,-0.53125,1.625,-0.84375
213,0.4399414,-0.11846924,-0.8418579,0.3125,1.984375,-0.640625
214,0.43945312,-0.11553955,-0.8435669,0.28125,2.1875,-0.515625
215,0.45214844,-0.11773682,-0.847229,0.359375,1.9375,-0.484375
216,0.4326172,-0.11578369,-0.83477783,0.109375,1.671875,-0.703125
217,0.4333496,-0.10992432,-0.8518677,-0.203125,1.46875,-0.71875
218,0.44091797,-0.113098145,-0.8452759,-0.171875,1.15625,-0.59375
219,0.4345703,-0.10845947,-0.8501587,-0.46875,0.765625,-0.640625
220,0.43798828,-0.120910645,-0.8440552,-0.484375,1.109375,-0.5625
221,0.43554688,-0.12286377,-0.8442993,-0.203125,1.515625,-0.65625
222,0.44189453,-0.12359619,-0.84820557,0.03125,1.484375,-0.34375
223,0.45043945,-0.11798096,-0.8413696,0.0625,1.921875,-0.5
224,0.44702148,-0.11968994,-0.83721924,-0.5,1.359375,-0.703125
225,0.44384766,-0.12042236,-0.8442993,-0.3125,1.390625,-0.640625
226,0.44213867,-0.1182251,-0.8428345,-0.375,1.265625,-0.71875
227,0.44140625,-0.11968994,-0.83843994,-0.140625,1.046875,-0.640625
228,0.4477539,-0.11505127,-0.83843994,-0.296875,1.0625,-0.65625
229,0.44311523,-0.12188721,-0.8406372,-0.15625,1.71875,-0.6875
230,0.44873047,-0.12237549,-0.8394165,-0.3125,1.578125,-0.71875
231,0.44677734,-0.124572754,-0.8401489,-0.53125,1.4375,-0.734375
232,0.44921875,-0.12042236,-0.8401489,-0.5,1.0625,-0.796875
233,0.44848633,-0.12017822,-0.8418579,-0.5,1.3125,-0.65625
234,0.45263672,-0.117492676,-0.835022,-0.03125,1.421875,-0.625
235,0.44067383,-0.11529541,-0.84332275,-0.1875,1.640625,-0.59375
236,0.44262695,-0.124816895,-0.8386841,-0.03125,2.203125,-0.796875
237,0.45654297,-0.12384033,-0.8377075,0.421875,2.765625,-0.609375
238,0.4555664,-0.12310791,-0.84552,0.03125,2.328125,-0.484375
239,0.45239258,-0.11480713,-0.8411255,-0.3125,1.65625,-0.625
240,0.44921875,-0.120666504,-0.8406372,-0.46875,1.015625,-0.46875
241,0.44506836,-0.12554932,-0.83062744,-0.65625,0.859375,-0.46875
242,0.4482422,-0.12506104,-0.8320923,0.109375,1.78125,-0.484375
243,0.45166016,-0.12774658,-0.83599854,0.421875,2.078125,-0.609375
244,0.4482422,-0.1260376,-0.83843994,0.28125,1.890625,-0.59375
245,0.4543457,-0.12042236,-0.8352661,0.078125,1.640625,-0.640625
246,0.45239258,-0.124572754,-0.8381958,-0.15625,1.453125,-0.578125
247,0.4477539,-0.12188721,-0.84259033,0.078125,1.75,-0.625
248,0.4482422,-0.12750244,-0.83184814,0.09375,1.53125,-0.515625
249,0.45458984,-0.13409424,-0.8374634,-0.203125,1.671875,-0.5
250,0.453125,-0.12432861,-0.8335571,-0.390625,1.03125,-0.515625
251,0.4494629,-0.12408447,-0.8335571,-0.328125,1.0625,-0.65625
252,0.45825195,-0.12896729,-0.84088135,-0.578125,1.125,-0.65625
253,0.45507812,-0.12872314,-0.83428955,-0.1875,1.171875,-0.625
254,0.45239258,-0.12384033,-0.8328247,-0.5625,1.03125,-0.796875
255,0.46020508,-0.12432861,-0.83013916,-0.515625,1.34375,-0.75
256,0.4489746,-0.1260376,-0.8242798,-0.375,1.484375,-0.765625
257,0.44726562,-0.12921143,-0.8257446,-0.171875,1.71875,-0.546875
258,0.45532227,-0.12872314,-0.8335571,-0.171875,2.0,-0.578125
259,0.46191406,-0.13214111,-0.8311157,0.015625,2.015625,-0.6875
260,0.45532227,-0.12506104,-0.84259033,-0.265625,1.59375,-0.671875
261,0.4519043,-0.13360596,-0.8413696,-0.296875,1.6875,-0.78125
262,0.45581055,-0.13433838,-0.81427,-0.5625,1.484375,-0.609375
263,0.46191406,-0.13580322,-0.82940674,0.265625,2.109375,-0.375
264,0.45751953,-0.13287354,-0.8308716,0.8125,2.578125,-0.453125
265,0.46044922,-0.13409424,-0.8377075,0.515625,2.421875,-0.671875
266,0.45117188,-0.13360596,-0.83551025,0.296875,1.765625,-0.6875
267,0.46118164,-0.13287354,-0.8286743,-0.25,1.46875,-0.625
268,0.45703125,-0.13458252,-0.83599854,-0.078125,1.734375,-0.90625
269,0.4650879,-0.12750244,-0.83135986,-0.3125,1.28125,-0.640625
270,0.45874023,-0.1260376,-0.8311157,-0.078125,1.34375,-0.453125
271,0.4621582,-0.1338501,-0.8362427,-0.234375,1.6875,-0.59375
272,0.4489746,-0.13775635,-0.8230591,0.125,1.671875,-0.5
273,0.4580078,-0.1362915,-0.8345337,0.015625,1.6875,-0.671875
274,0.46777344,-0.13409424,-0.83380127,-0.453125,1.5625,-0.734375
275,0.45629883,-0.13287354,-0.82696533,-0.078125,1.65625,-0.65625
276,0.45336914,-0.13214111,-0.8345337,-0.125,1.765625,-0.4375
277,0.45385742,-0.13604736,-0.831604,0.078125,1.703125,-0.578125
278,0.4506836,-0.1350708,-0.8323364,0.109375,1.546875,-0.4375
279,0.46240234,-0.13311768,-0.8323364,0.1875,1.453125,-0.578125
280,0.4650879,-0.13726807,-0.8352661,0.28125,1.296875,-0.609375
281,0.46264648,-0.13555908,-0.8272095,-0.09375,1.3125,-0.734375
282,0.45898438,-0.1326294,-0.8291626,0.03125,1.203125,-0.59375
283,0.4597168,-0.13287354,-0.82159424,-0.09375,1.140625,-0.53125
284,0.45751953,-0.12823486,-0.83135986,0.09375,1.46875,-0.546875
285,0.46118164,-0.13311768,-0.82940674,0.125,1.625,-0.5625
286,0.45874023,-0.13287354,-0.8272095,0.0625,1.53125,-0.625
287,0.46166992,-0.13555908,-0.82769775,-0.09375,1.5,-0.71875
288,0.46606445,-0.13677979,-0.8335571,-0.09375,1.359375,-0.59375
289,0.4658203,-0.13311768,-0.8272095,0.03125,1.375,-0.59375
290,0.46362305,-0.13433838,-0.8220825,-0.078125,1.59375,-0.578125
291,0.46557617,-0.1375122,-0.829895,0.046875,1.4375,-0.609375
292,0.4597168,-0.13238525,-0.82354736,-0.09375,1.515625,-0.640625
293,0.46142578,-0.1362915,-0.8267212,-0.21875,1.59375,-0.6875
294,0.46166992,-0.13092041,-0.8291626,-0.046875,1.515625,-0.390625
295,0.46289062,-0.13726807,-0.82940674,-0.046875,1.875,-0.703125
296,0.46240234,-0.13726807,-0.833313,-0.28125,1.625,-0.625
297,0.45654297,-0.13311768,-0.82354736,-0.046875,1.859375,-0.5
298,0.46655273,-0.13165283,-0.8250122,-0.03125,2.03125,-0.515625
299,0.45947266,-0.13433838,-0.83013916,-0.234375,1.75,-0.6875
300,0.4580078,-0.13336182,-0.8328247,-0.09375,1.828125,-0.578125
301,0.45996094,-0.13092041,-0.82403564,0.03125,1.78125,-0.6875
302,0.45874023,-0.13531494,-0.82598877,0.59375,1.953125,-0.46875
303,0.46118164,-0.13677979,-0.8245239,0.515625,2.171875,-0.484375
304,0.46044922,-0.13238525,-0.8374634,0.6875,2.625,-0.421875
305,0.46191406,-0.13238525,-0.83795166,1.15625,3.25,-0.0625
306,0.45214844,-0.12823486,-0.8323364,1.53125,3.6875,-0.125
307,0.45507812,-0.13189697,-0.84381104,0.609375,3.859375,-0.234375
308,0.45361328,-0.12799072,-0.8442993,0.765625,3.515625,-0.34375
309,0.45214844,-0.11993408,-0.8467407,0.3125,2.71875,-0.515625
310,0.45288086,-0.12896729,-0.8345337,0.203125,2.8125,-0.59375
311,0.44580078,-0.12701416,-0.84161377,0.53125,3.640625,-0.609375
312,0.44433594,-0.1296997,-0.8291626,-0.359375,1.015625,-0.515625
313,0.44262695,-0.13189697,-0.82891846,1.484375,2.75,-0.1875
314,0.44262695,-0.11846924,-0.8369751,1.71875,3.390625,0.078125
315,0.44726562,-0.12823486,-0.8574829,1.515625,3.296875,-0.03125
316,0.4423828,-0.12164307,-0.8464966,0.359375,1.484375,-0.4375
317,0.43823242,-0.12237549,-0.83428955,0.0625,1.140625,-0.453125
318,0.44213867,-0.124816895,-0.82647705,0.546875,1.453125,-0.65625
319,0.44311523,-0.12432861,-0.8369751,0.484375,1.625,-0.609375
320,0.44213867,-0.12530518,-0.84161377,-0.078125,1.375,-0.671875
321,0.44458008,-0.11773682,-0.8435669,0.109375,1.65625,-0.4375
322,0.44140625,-0.1182251,-0.84039307,0.34375,1.734375,-0.390625
323,0.4440918,-0.12237549,-0.84503174,0.34375,2.09375,-0.328125
324,0.44311523,-0.12164307,-0.85113525,0.359375,2.015625,-0.484375
325,0.43676758,-0.12335205,-0.8435669,0.390625,1.9375,-0.484375
326,0.4453125,-0.12237549,-0.8423462,0.21875,1.59375,-0.546875
327,0.44384766,-0.12188721,-0.84503174,0.015625,1.515625,-0.625
328,0.44213867,-0.11968994,-0.8460083,-0.0625,1.6875,-0.515625
329,0.43603516,-0.11383057,-0.83966064,-0.125,1.125,-0.546875
330,0.43969727,-0.12408447,-0.8335571,-0.109375,1.3125,-0.484375
331,0.4453125,-0.11993408,-0.85235596,-0.203125,1.71875,-0.59375
332,0.44140625,-0.12017822,-0.8399048,0.09375,1.65625,-0.4375
333,0.44335938,-0.11846924,-0.84210205,-0.09375,1.53125,-0.53125
334,0.44360352,-0.11895752,-0.8447876,-0.09375,1.625,-0.734375
335,0.44873047,-0.11627197,-0.84503174,0.328125,1.984375,-0.53125
336,0.44189453,-0.11920166,-0.8374634,0.109375,1.890625,-0.421875
337,0.44360352,-0.117248535,-0.8460083,0.21875,1.828125,-0.4375
338,0.4404297,-0.112854004,-0.8479614,0.0625,1.640625,-0.34375
339,0.4416504,-0.10992432,-0.8255005,0.125,1.46875,-0.53125
340,0.43920898,-0.1182251,-0.84039307,0.234375,1.828125,-0.515625
341,0.4411621,-0.12261963,-0.84210205,0.09375,1.5625,-0.765625
342,0.44213867,-0.11505127,-0.84503174,0.171875,1.5,-0.390625
343,0.44262695,-0.117492676,-0.848938,0.171875,1.78125,-0.515625
344,0.43969727,-0.11651611,-0.8418579,0.171875,1.71875,-0.5
345,0.44384766,-0.11602783,-0.8413696,0.078125,1.734375,-0.4375
346,0.44384766,-0.11090088,-0.8479614,0.046875,1.59375,-0.5
347,0.44311523,-0.11480713,-0.8543091,0.109375,1.46875,-0.4375
348,0.44213867,-0.113098145,-0.84161377,-0.203125,1.765625,-0.65625
349,0.44213867,-0.11553955,-0.8291626,-0.0625,1.75,-0.59375
350,0.43969727,-0.11602783,-0.84820557,0.34375,1.609375,-0.375
351,0.4428711,-0.11553955,-0.8574829,0.015625,1.234375,-0.453125
352,0.44433594,-0.113342285,-0.84552,0.578125,1.296875,-0.375
353,0.44482422,-0.11602783,-0.83795166,-0.234375,1.078125,-0.46875
354,0.44140625,-0.113586426,-0.83795166,-0.015625,1.578125,-0.546875
355,0.4440918,-0.1194458,-0.8406372,0.25,2.015625,-0.578125
356,0.44189453,-0.11602783,-0.83966064,-0.046875,1.859375,-0.609375
357,0.44311523,-0.113342285,-0.8381958,-0.109375,1.53125,-0.546875
358,0.44433594,-0.109191895,-0.84869385,-0.046875,1.640625,-0.53125
359,0.44628906,-0.11773682,-0.85357666,0.015625,1.90625,-0.640625
360,0.44726562,-0.116760254,-0.85162354,0.203125,1.953125,-0.578125
361,0.44433594,-0.11651611,-0.8430786,-0.171875,1.71875,-0.609375
362,0.4501953,-0.11553955,-0.8345337,0.078125,1.625,-0.390625
363,0.43823242,-0.113342285,-0.83477783,0.046875,1.578125,-0.375
364,0.44555664,-0.11456299,-0.83966064,0.28125,1.625,-0.375
365,0.44482422,-0.108947754,-0.84820557,0.03125,1.40625,-0.5625
366,0.44140625,-0.11212158,-0.84698486,-0.09375,1.46875,-0.671875
367,0.44921875,-0.11236572,-0.8477173,-0.078125,1.640625,-0.703125
368,0.44311523,-0.11456299,-0.83966064,-0.109375,1.59375,-0.578125
369,0.44213867,-0.113098145,-0.8401489,-0.28125,1.34375,-0.671875
370,0.44311523,-0.11529541,-0.83380127,-0.0625,1.21875,-0.546875
371,0.44580078,-0.11114502,-0.8467407,0.03125,1.484375,-0.5
372,0.44799805,-0.109436035,-0.84259033,-0.09375,1.453125,-0.484375
373,0.4404297,-0.113586426,-0.84576416,-0.09375,1.53125,-0.484375
374,0.45361328,-0.11968994,-0.84039307,-0.234375,1.59375,-0.546875
375,0.45239258,-0.11138916,-0.84942627,-0.03125,1.703125,-0.6875
376,0.44970703,-0.11529541,-0.84576416,-0.578125,1.546875,-0.875
377,0.44848633,-0.11529541,-0.8357544,-0.34375,1.65625,-0.640625
378,0.4453125,-0.1182251,-0.84381104,-0.359375,1.8125,-0.546875
379,0.4453125,-0.12237549,-0.84991455,-1.0,1.46875,-0.84375
380,0.4477539,-0.11578369,-0.8381958,-1.109375,1.09375,-0.84375
381,0.44604492,-0.11895752,-0.84039307,-0.953125,0.953125,-0.6875
382,0.44580078,-0.12286377,-0.8484497,-0.421875,1.375,-0.53125
383,0.44848633,-0.12774658,-0.83966064,0.078125,1.796875,-0.59375
384,0.44384766,-0.12188721,-0.83258057,-0.0625,1.765625,-0.609375
385,0.44726562,-0.11212158,-0.8394165,0.265625,1.765625,-0.46875
386,0.44433594,-0.11968994,-0.8394165,0.171875,1.65625,-0.5
387,0.44921875,-0.11407471,-0.8435669,0.25,1.625,-0.46875
388,0.4560547,-0.11431885,-0.84625244,-0.203125,1.109375,-0.453125
389,0.45141602,-0.12017822,-0.8386841,-0.484375,1.046875,-0.578125
390,0.4477539,-0.11895752,-0.8401489,-0.421875,1.390625,-0.765625
391,0.4494629,-0.11553955,-0.8413696,-0.671875,1.046875,-0.625
392,0.453125,-0.11871338,-0.835022,-0.8125,1.171875,-0.6875
393,0.44995117,-0.12017822,-0.8399048,-0.6875,1.25,-0.890625
394,0.45385742,-0.1272583,-0.8369751,-0.515625,1.40625,-0.609375
395,0.4572754,-0.12042236,-0.833313,-0.671875,1.203125,-0.640625
396,0.45092773,-0.12188721,-0.8447876,-0.53125,1.125,-0.734375
397,0.45385742,-0.12408447,-0.8362427,-0.609375,1.140625,-0.5625
398,0.4572754,-0.12652588,-0.83966064,-0.390625,1.328125,-0.578125
399,0.45263672,-0.12799072,-0.83380127,-0.109375,1.390625,-0.59375
400,0.45874023,-0.1272583,-0.8340454,-0.296875,1.46875,-0.71875
401,0.4572754,-0.12701416,-0.8328247,0.015625,1.375,-0.5
402,0.45776367,-0.12506104,-0.83673096,-0.5,1.421875,-0.71875
403,0.45361328,-0.13018799,-0.8345337,-0.015625,1.359375,-0.671875
404,0.44848633,-0.1260376,-0.8335571,-0.296875,1.171875,-0.6875
405,0.45458984,-0.12774658,-0.82525635,-0.140625,1.859375,-0.59375
406,0.46142578,-0.12774658,-0.8413696,0.1875,2.125,-0.5625
407,0.45410156,-0.12432861,-0.833313,0.234375,1.875,-0.4375
408,0.4567871,-0.1194458,-0.8374634,0.0,1.875,-0.84375
409,0.44726562,-0.12750244,-0.8394165,-0.234375,1.453125,-0.6875
410,0.45483398,-0.12799072,-0.84552,-0.296875,1.734375,-0.75
411,0.45581055,-0.12896729,-0.8364868,-0.3125,1.84375,-0.640625
412,0.46313477,-0.12677002,-0.8284302,-0.390625,1.5625,-0.59375
413,0.45507812,-0.128479,-0.829895,-0.28125,1.5,-0.578125
414,0.45483398,-0.13165283,-0.8364868,-0.140625,1.65625,-0.546875
415,0.46020508,-0.13043213,-0.84088135,-0.546875,1.5,-0.734375
416,0.45581055,-0.12701416,-0.8296509,-0.625,1.265625,-0.671875
417,0.453125,-0.12628174,-0.8362427,-0.6875,0.875,-0.765625
418,0.4567871,-0.13140869,-0.8284302,-0.53125,1.09375,-0.8125
419,0.4572754,-0.1272583,-0.82598877,-0.34375,1.34375,-0.765625
420,0.46362305,-0.12921143,-0.82818604,0.015625,1.609375,-0.609375
421,0.4555664,-0.12994385,-0.829895,-0.140625,1.640625,-0.546875
422,0.45410156,-0.13067627,-0.8303833,-0.0625,1.59375,-0.53125
423,0.46777344,-0.13336182,-0.83673096,0.140625,1.65625,-0.59375
424,0.44848633,-0.13458252,-0.82940674,-0.171875,1.578125,-0.65625
425,0.45874023,-0.12408447,-0.829895,0.0,1.515625,-0.46875
426,0.45776367,-0.13238525,-0.8323364,-0.125,1.828125,-0.53125
427,0.453125,-0.12945557,-0.8311157,-0.078125,1.59375,-0.609375
428,0.46264648,-0.13140869,-0.8362427,0.078125,1.9375,-0.25
429,0.45507812,-0.12701416,-0.83795166,-0.296875,1.546875,-0.703125
430,0.4572754,-0.13531494,-0.835022,0.125,1.53125,-0.546875
431,0.46142578,-0.13555908,-0.83917236,-0.484375,1.328125,-0.921875
432,0.45874023,-0.13482666,-0.82232666,-0.125,1.578125,-0.5625
433,0.46289062,-0.128479,-0.8381958,0.125,1.53125,-0.4375
434,0.45825195,-0.12554932,-0.84210205,-0.03125,1.734375,-0.546875
435,0.4567871,-0.1362915,-0.8303833,-0.0625,1.75,-0.625
436,0.46191406,-0.13873291,-0.8323364,-0.375,1.640625,-0.796875
437,0.4567871,-0.13555908,-0.83843994,-0.25,1.765625,-0.734375
438,0.45703125,-0.13165283,-0.831604,-0.140625,1.46875,-0.796875
439,0.45361328,-0.13214111,-0.8352661,-0.296875,1.546875,-0.515625
440,0.45751953,-0.12750244,-0.83135986,-0.109375,1.5,-0.421875
441,0.453125,-0.13092041,-0.831604,-0.140625,1.375,-0.59375
442,0.46411133,-0.13677979,-0.82891846,0.03125,1.625,-0.46875
443,0.46142578,-0.13726807,-0.8311157,-0.21875,1.53125,-0.75
444,0.4645996,-0.13311768,-0.82891846,-0.046875,1.53125,-0.53125
445,0.4609375,-0.13043213,-0.82818604,-0.453125,1.265625,-0.71875
446,0.4580078,-0.12945557,-0.8335571,-0.375,1.140625,-0.78125
447,0.4584961,-0.1350708,-0.8401489,-0.96875,0.765625,-0.828125
448,0.4716797,-0.14874268,-0.82232666,0.53125,1.859375,-0.578125
449,0.4724121,-0.14508057,-0.8220825,0.828125,2.109375,-0.40625
450,0.46948242,-0.13946533,-0.83135986,0.046875,2.125,-0.78125
451,0.4716797,-0.14141846,-0.8147583,0.203125,1.40625,-0.5625
452,0.47045898,-0.14117432,-0.8296509,0.0,1.515625,-0.53125
453,0.46923828,-0.14141846,-0.82281494,-0.328125,1.296875,-0.765625
454,0.47460938,-0.14630127,-0.81915283,0.046875,1.28125,-0.546875
455,0.47192383,-0.1428833,-0.8233032,0.015625,1.625,-0.515625
456,0.46972656,-0.14215088,-0.8184204,-0.21875,1.09375,-0.5
457,0.47216797,-0.14752197,-0.8184204,-0.125,1.28125,-0.625
458,0.4724121,-0.14581299,-0.80841064,-0.265625,1.234375,-0.59375
459,0.47631836,-0.15142822,-0.815979,0.109375,1.796875,-0.59375
460,0.4741211,-0.13946533,-0.8225708,0.03125,1.609375,-0.625
461,0.47338867,-0.14337158,-0.81744385,0.1875,1.8125,-0.5
462,0.47436523,-0.14678955,-0.8218384,0.078125,1.59375,-0.546875
463,0.47265625,-0.14093018,-0.8233032,0.09375,1.65625,-0.578125
464,0.47338867,-0.1416626,-0.8242798,0.0625,1.671875,-0.421875
465,0.47436523,-0.14630127,-0.82476807,0.140625,1.796875,-0.578125
466,0.47583008,-0.14801025,-0.8233032,0.203125,2.078125,-0.5625
467,0.47216797,-0.13970947,-0.82159424,0.078125,1.65625,-0.640625
468,0.47436523,-0.14483643,-0.8208618,-0.09375,1.3125,-0.65625
469,0.46435547,-0.1416626,-0.82110596,0.078125,1.296875,-0.578125
470,0.4753418,-0.13873291,-0.8233032,0.1875,0.78125,-0.703125
471,0.4753418,-0.14337158,-0.82159424,0.140625,0.96875,-0.65625
472,0.4711914,-0.13970947,-0.8233032,0.125,1.046875,-0.78125
473,0.47045898,-0.1453247,-0.8220825,0.34375,1.453125,-0.6875
474,0.46948242,-0.14117432,-0.8208618,0.140625,1.4375,-0.75
475,0.4777832,-0.14581299,-0.8279419,-0.09375,1.65625,-0.609375
476,0.47314453,-0.14874268,-0.8267212,0.125,1.71875,-0.5625
477,0.47460938,-0.13775635,-0.8164673,0.0,1.765625,-0.71875
478,0.47338867,-0.14434814,-0.8140259,-0.109375,1.703125,-0.59375
479,0.46801758,-0.14141846,-0.82110596,0.34375,1.96875,-0.421875
480,0.47802734,-0.13531494,-0.82769775,0.1875,2.109375,-0.515625
481,0.47094727,-0.1362915,-0.82940674,0.015625,2.03125,-0.671875
482,0.4724121,-0.14630127,-0.8179321,0.109375,1.828125,-0.59375
483,0.47338867,-0.14385986,-0.82232666,0.203125,2.078125,-0.578125
484,0.4711914,-0.13946533,-0.82769775,0.359375,2.453125,-0.421875
485,0.46972656,-0.1375122,-0.82281494,1.125,2.9375,-0.25
486,0.47314453,-0.14117432,-0.8250122,1.4375,3.265625,-0.03125
487,0.4663086,-0.1326294,-0.829895,1.375,2.96875,0.0
488,0.4716797,-0.12530518,-0.8323364,1.421875,3.46875,-0.09375
489,0.46118164,-0.1296997,-0.83258057,0.6875,3.734375,-0.21875
490,0.46044922,-0.12384033,-0.8296509,0.734375,3.765625,-0.375
491,0.46655273,-0.1362915,-0.8267212,-0.328125,1.6875,-0.59375
492,0.46313477,-0.13848877,-0.815979,-0.046875,1.46875,-0.578125
493,0.4609375,-0.13214111,-0.83062744,0.171875,1.84375,-0.453125
494,0.46020508,-0.13482666,-0.8296509,0.234375,1.921875,-0.515625
495,0.46728516,-0.13311768,-0.83477783,0.234375,1.78125,-0.515625
496,0.46411133,-0.13458252,-0.8374634,0.09375,1.875,-0.40625
497,0.4543457,-0.12652588,-0.8220825,0.375,1.828125,-0.40625
498,0.4584961,-0.13604736,-0.82696533,0.375,2.203125,-0.5625
499,0.46166992,-0.13360596,-0.8286743,0.5625,2.453125,-0.453125
500,0.4572754,-0.13311768,-0.82696533,0.46875,2.28125,-0.40625
501,0.45922852,-0.13311768,-0.8357544,0.234375,2.1875,-0.453125
502,0.4560547,-0.12310791,-0.8369751,0.0,1.59375,-0.546875
503,0.46069336,-0.13214111,-0.8308716,0.171875,1.703125,-0.609375
504,0.45336914,-0.13360596,-0.831604,0.28125,2.09375,-0.5
505,0.4572754,-0.13043213,-0.83843994,-0.015625,1.75,-0.609375
506,0.45532227,-0.12799072,-0.84210205,-0.125,1.703125,-0.65625
507,0.45922852,-0.13214111,-0.83551025,-0.375,1.09375,-0.5
508,0.45385742,-0.128479,-0.8242798,-0.171875,1.328125,-0.4375
509,0.45874023,-0.128479,-0.84259033,-0.15625,1.828125,-0.53125
510,0.45629883,-0.12872314,-0.8323364,0.390625,1.890625,-0.46875
511,0.4650879,-0.12896729,-0.8364868,-0.21875,1.609375,-0.75
512,0.45703125,-0.1326294,-0.82281494,-0.28125,1.546875,-0.6875
513,0.46044922,-0.12945557,-0.8250122,0.015625,1.90625,-0.625
514,0.45507812,-0.13092041,-0.8323364,-0.03125,1.8125,-0.390625
515,0.45874023,-0.13140869,-0.8245239,-0.03125,1.71875,-0.515625
516,0.4633789,-0.12799072,-0.83673096,-0.28125,1.765625,-0.53125
517,0.45654297,-0.12823486,-0.8206177,0.015625,1.484375,-0.59375
518,0.46435547,-0.12921143,-0.83477783,0.484375,1.96875,-0.59375
519,0.46020508,-0.12921143,-0.8369751,-0.078125,1.8125,-0.765625
520,0.45654297,-0.13165283,-0.833313,0.296875,1.90625,-0.546875
521,0.46313477,-0.13189697,-0.8308716,-0.03125,1.890625,-0.515625
522,0.4555664,-0.12432861,-0.8345337,-0.125,1.515625,-0.5
523,0.45288086,-0.12677002,-0.8335571,-0.0625,1.765625,-0.5625
524,0.46142578,-0.12554932,-0.833313,-0.09375,1.65625,-0.640625
525,0.4567871,-0.1260376,-0.83306885,-0.015625,1.34375,-0.59375
526,0.4584961,-0.12774658,-0.82940674,-0.328125,1.109375,-0.5
527,0.44921875,-0.12408447,-0.82818604,-0.171875,1.265625,-0.578125
528,0.45410156,-0.13165283,-0.8303833,-0.234375,1.34375,-0.71875
529,0.46191406,-0.13165283,-0.83306885,-0.21875,1.5,-0.609375
530,0.45703125,-0.13116455,-0.82159424,-0.234375,1.15625,-0.453125
531,0.4609375,-0.12530518,-0.83380127,-0.203125,1.46875,-0.59375
532,0.4584961,-0.128479,-0.83135986,-0.5,1.390625,-0.703125
533,0.4645996,-0.12774658,-0.82769775,0.046875,1.71875,-0.546875
534,0.4597168,-0.12945557,-0.83721924,0.125,1.84375,-0.625
535,0.45996094,-0.13482666,-0.8320923,-0.109375,1.671875,-0.53125
536,0.4597168,-0.13067627,-0.8308716,-0.296875,1.40625,-0.6875
537,0.46020508,-0.12408447,-0.8308716,-0.109375,1.546875,-0.4375
538,0.46044922,-0.13702393,-0.8286743,0.109375,1.734375,-0.75
539,0.46166992,-0.13311768,-0.83184814,-0.078125,1.5625,-0.71875
540,0.4584961,-0.13360596,-0.83477783,0.0,1.71875,-0.625
541,0.4638672,-0.13140869,-0.8374634,0.0625,1.609375,-0.546875
542,0.4560547,-0.13116455,-0.81817627,0.125,1.328125,-0.546875
543,0.46899414,-0.13043213,-0.8303833,0.21875,1.90625,-0.59375
544,0.45654297,-0.12994385,-0.8364868,0.0625,1.78125,-0.6875
545,0.45483398,-0.1326294,-0.83380127,-0.0625,1.515625,-0.8125
546,0.45581055,-0.12701416,-0.82818604,-0.171875,2.0,-0.578125
547,0.45166016,-0.13165283,-0.8303833,0.125,1.890625,-0.4375
548,0.4609375,-0.13018799,-0.83013916,0.359375,2.453125,-0.484375
549,0.4609375,-0.13092041,-0.8362427,0.15625,2.6875,-0.75
550,0.45458984,-0.13433838,-0.8377075,0.28125,3.09375,-0.546875
551,0.45361328,-0.12652588,-0.8279419,0.25,3.625,-0.4375
552,0.45092773,-0.128479,-0.8262329,0.265625,3.015625,-0.484375
553,0.44140625,-0.12164307,-0.8374634,0.109375,1.453125,-0.4375
554,0.44604492,-0.11578369,-0.83843994,0.390625,2.015625,-0.421875
555,0.4387207,-0.12359619,-0.85601807,0.25,2.234375,-0.5625
556,0.44335938,-0.12017822,-0.8464966,-0.46875,1.109375,-0.71875
557,0.43920898,-0.12384033,-0.8399048,-0.40625,0.578125,-0.59375
558,0.44384766,-0.12164307,-0.8335571,-0.09375,1.125,-0.328125
559,0.44311523,-0.12750244,-0.835022,0.125,1.546875,-0.5
560,0.44482422,-0.11871338,-0.8550415,-0.53125,1.53125,-0.609375
561,0.44433594,-0.12896729,-0.83843994,-0.03125,0.84375,-0.578125
562,0.4416504,-0.12261963,-0.8411255,-0.609375,0.984375,-0.71875
563,0.44458008,-0.12628174,-0.8308716,-0.046875,1.3125,-0.546875
564,0.44482422,-0.12750244,-0.8362427,0.421875,1.984375,-0.421875
565,0.45214844,-0.12359619,-0.8364868,0.3125,1.921875,-0.53125
566,0.4482422,-0.117492676,-0.83843994,0.0625,1.515625,-0.484375
567,0.44360352,-0.12359619,-0.84332275,-0.171875,1.515625,-0.609375
568,0.45117188,-0.12506104,-0.847229,0.046875,1.390625,-0.59375
569,0.44750977,-0.117248535,-0.8381958,0.234375,1.625,-0.5
570,0.453125,-0.12017822,-0.84259033,0.546875,1.96875,-0.375
571,0.44628906,-0.11773682,-0.8386841,0.484375,1.65625,-0.34375
572,0.44335938,-0.12335205,-0.8364868,0.21875,1.546875,-0.3125
573,0.45239258,-0.12042236,-0.8452759,0.25,1.640625,-0.453125
574,0.453125,-0.11895752,-0.8430786,-0.078125,1.3125,-0.640625
575,0.4477539,-0.121398926,-0.83306885,-0.140625,1.0625,-0.5625
576,0.44604492,-0.12652588,-0.833313,-0.125,1.4375,-0.6875
577,0.44873047,-0.12188721,-0.8352661,0.015625,1.90625,-0.546875
578,0.44921875,-0.124816895,-0.83917236,0.203125,2.140625,-0.453125
579,0.44970703,-0.12359619,-0.8413696,0.203125,2.046875,-0.328125
580,0.44311523,-0.12213135,-0.83673096,0.0625,2.03125,-0.546875
581,0.45336914,-0.11798096,-0.8526001,-0.09375,2.109375,-0.6875
582,0.4489746,-0.11602783,-0.84503174,0.28125,1.75,-0.5
583,0.44873047,-0.12017822,-0.84039307,-0.375,1.515625,-0.59375
584,0.44726562,-0.12286377,-0.83673096,-0.3125,1.390625,-0.59375
585,0.44702148,-0.11871338,-0.8369751,0.125,1.765625,-0.515625
586,0.44702148,-0.11578369,-0.8381958,-0.328125,1.359375,-0.421875
587,0.44506836,-0.12042236,-0.833313,-0.015625,1.65625,-0.53125
588,0.4440918,-0.12237549,-0.8418579,-0.125,1.515625,-0.65625
589,0.44604492,-0.12188721,-0.8364868,0.203125,1.859375,-0.578125
590,0.44921875,-0.12017822,-0.8484497,0.203125,2.25,-0.71875
591,0.4506836,-0.11846924,-0.8399048,0.25,1.828125,-0.5625
592,0.45507812,-0.12530518,-0.84503174,0.171875,1.6875,-0.515625
593,0.45239258,-0.1194458,-0.8323364,-0.078125,1.71875,-0.421875
594,0.453125,-0.12359619,-0.8406372,0.125,1.84375,-0.53125
595,0.44604492,-0.12164307,-0.847229,0.078125,1.84375,-0.53125
596,0.44311523,-0.11383057,-0.8357544,0.03125,1.765625,-0.671875
597,0.4494629,-0.124816895,-0.8386841,0.0625,1.8125,-0.59375
598,0.44799805,-0.12017822,-0.8374634,0.28125,1.734375,-0.5625
599,0.44995117,-0.11602783,-0.8381958,0.359375,1.765625,-0.484375
600,0.44458008,-0.1182251,-0.8428345,-0.09375,1.90625,-0.5625
601,0.44335938,-0.116760254,-0.83599854,0.140625,1.828125,-0.46875
602,0.44848633,-0.11578369,-0.8411255,0.03125,1.796875,-0.484375
603,0.44726562,-0.12188721,-0.83599854,0.046875,1.4375,-0.59375
604,0.44970703,-0.12408447,-0.8423462,-0.0625,1.34375,-0.703125
605,0.44384766,-0.12213135,-0.84454346,-0.703125,1.15625,-0.78125
606,0.44482422,-0.11920166,-0.83135986,-0.0625,1.625,-0.59375
607,0.45117188,-0.1182251,-0.84332275,0.109375,2.015625,-0.578125
608,0.44750977,-0.11798096,-0.8435669,0.015625,1.875,-0.546875
609,0.44995117,-0.12261963,-0.83795166,0.109375,2.078125,-0.46875
610,0.4453125,-0.11895752,-0.83966064,-0.015625,1.609375,-0.640625
611,0.44433594,-0.121398926,-0.8352661,0.171875,1.921875,-0.640625
612,0.44750977,-0.120666504,-0.8435669,0.0625,1.78125,-0.71875
613,0.44482422,-0.12164307,-0.8440552,0.046875,1.625,-0.625
614,0.4489746,-0.120910645,-0.848938,0.125,1.828125,-0.4375
615,0.4477539,-0.11920166,-0.8423462,0.03125,1.734375,-0.640625
616,0.4465332,-0.11602783,-0.83599854,0.125,1.734375,-0.4375
617,0.44506836,-0.117004395,-0.83917236,0.03125,1.5625,-0.484375
618,0.44799805,-0.117248535,-0.84625244,0.0,1.609375,-0.609375
619,0.44677734,-0.11480713,-0.8369751,-0.03125,1.515625,-0.5
620,0.44726562,-0.116760254,-0.84210205,0.078125,1.546875,-0.546875
621,0.4465332,-0.11505127,-0.8464966,-0.03125,1.390625,-0.515625
622,0.44921875,-0.11993408,-0.83966064,-0.03125,1.453125,-0.65625
623,0.44360352,-0.11065674,-0.84698486,-0.203125,1.34375,-0.671875
624,0.44580078,-0.11798096,-0.84381104,0.125,1.53125,-0.609375
625,0.44384766,-0.117492676,-0.8274536,-0.34375,1.015625,-0.578125
626,0.44677734,-0.12261963,-0.83721924,-0.296875,0.875,-0.71875
627,0.45043945,-0.11968994,-0.84161377,-0.328125,0.984375,-0.546875
628,0.4494629,-0.12017822,-0.83599854,-0.703125,0.953125,-0.765625
629,0.4489746,-0.12017822,-0.8279419,-0.09375,1.796875,-0.578125
630,0.45166016,-0.11993408,-0.8411255,0.125,1.984375,-0.59375
631,0.44995117,-0.12237549,-0.84088135,-0.25,1.6875,-0.53125
632,0.45141602,-0.11798096,-0.8389282,-0.5625,1.390625,-0.65625
633,0.44921875,-0.12213135,-0.8328247,-0.421875,1.40625,-0.640625
634,0.44995117,-0.121398926,-0.8352661,0.296875,1.6875,-0.609375
635,0.44995117,-0.12213135,-0.8418579,-0.03125,1.71875,-0.421875
636,0.45483398,-0.12579346,-0.8362427,0.125,1.515625,-0.4375
637,0.4501953,-0.11187744,-0.835022,0.109375,1.640625,-0.421875
638,0.44995117,-0.11968994,-0.83599854,-0.0625,1.640625,-0.75
639,0.45263672,-0.12042236,-0.8381958,0.140625,1.625,-0.5625
640,0.45361328,-0.12261963,-0.8362427,-0.140625,1.484375,-0.53125
641,0.4477539,-0.11920166,-0.8328247,-0.125,1.625,-0.703125
642,0.44848633,-0.11798096,-0.833313,-0.09375,1.765625,-0.71875
643,0.44628906,-0.121154785,-0.84259033,-0.03125,1.5,-0.59375
644,0.45874023,-0.11627197,-0.8357544,-0.1875,1.390625,-0.734375
645,0.4506836,-0.1194458,-0.8440552,-0.046875,1.421875,-0.390625
646,0.45288086,-0.117004395,-0.83380127,0.140625,1.40625,-0.390625
647,0.45263672,-0.121398926,-0.8413696,-0.1875,1.609375,-0.578125
648,0.44750977,-0.11993408,-0.83258057,0.09375,1.65625,-0.59375
649,0.4489746,-0.1194458,-0.8411255,-0.171875,1.625,-0.59375
650,0.44921875,-0.12164307,-0.83184814,-0.140625,1.515625,-0.75
651,0.4494629,-0.1194458,-0.83966064,-0.046875,1.40625,-0.515625
652,0.45117188,-0.11895752,-0.84259033,-0.84375,1.03125,-0.75
653,0.4501953,-0.11553955,-0.83306885,-0.375,1.375,-0.8125
654,0.45458984,-0.1260376,-0.83966064,-0.140625,1.8125,-0.625
655,0.45385742,-0.12188721,-0.84210205,0.109375,1.9375,-0.5
656,0.45458984,-0.11798096,-0.83917236,0.421875,2.015625,-0.578125
657,0.45483398,-0.11578369,-0.8406372,-0.078125,1.640625,-0.625
658,0.45410156,-0.11846924,-0.83843994,0.15625,1.3125,-0.625
659,0.45239258,-0.120910645,-0.84039307,-0.046875,1.34375,-0.5625
660,0.45703125,-0.12213135,-0.8399048,-0.078125,1.359375,-0.53125
661,0.45117188,-0.12213135,-0.83551025,0.09375,1.359375,-0.453125
662,0.44555664,-0.124816895,-0.8303833,0.03125,1.609375,-0.4375
663,0.46020508,-0.11871338,-0.8447876,0.078125,1.828125,-0.46875
664,0.45751953,-0.12164307,-0.8364868,-0.203125,1.6875,-0.578125
665,0.4453125,-0.1194458,-0.8335571,-0.0625,1.40625,-0.703125
666,0.45043945,-0.120666504,-0.8323364,-0.0625,1.71875,-0.625
667,0.45483398,-0.12384033,-0.8386841,-0.1875,1.59375,-0.59375
668,0.45239258,-0.11846924,-0.8389282,-0.109375,1.671875,-0.625
669,0.45629883,-0.12261963,-0.8340454,-0.359375,1.421875,-0.515625
670,0.45166016,-0.124572754,-0.83258057,-0.0625,1.546875,-0.546875
671,0.45239258,-0.12188721,-0.83721924,0.015625,1.625,-0.515625
672,0.4506836,-0.12628174,-0.8381958,-0.0625,1.578125,-0.546875
673,0.45214844,-0.12921143,-0.8362427,-0.109375,1.609375,-0.65625
674,0.45581055,-0.12310791,-0.8460083,-0.140625,1.5625,-0.59375
675,0.45214844,-0.12554932,-0.8357544,-0.125,1.375,-0.609375
676,0.4519043,-0.11651611,-0.8413696,-0.0625,1.40625,-0.609375
677,0.45898438,-0.12310791,-0.8345337,-0.625,1.484375,-0.671875
678,0.45458984,-0.120666504,-0.8435669,-0.09375,1.546875,-0.5
679,0.45654297,-0.12921143,-0.8274536,-0.1875,1.5,-0.640625
680,0.45581055,-0.12286377,-0.83795166,-0.234375,1.5625,-0.703125
681,0.45239258,-0.12432861,-0.8340454,-0.203125,1.34375,-0.6875
682,0.4609375,-0.12359619,-0.8423462,-0.09375,1.65625,-0.71875
683,0.45263672,-0.12799072,-0.8377075,0.109375,1.6875,-0.703125
684,0.45410156,-0.120910645,-0.8323364,0.0,1.78125,-0.515625
685,0.45874023,-0.12921143,-0.83843994,0.125,1.671875,-0.625
686,0.45654297,-0.11968994,-0.83135986,0.0625,1.65625,-0.515625
687,0.45947266,-0.124816895,-0.831604,0.234375,1.796875,-0.515625
688,0.45507812,-0.121154785,-0.83673096,-0.140625,1.921875,-0.46875
689,0.45507812,-0.12261963,-0.83428955,0.015625,1.609375,-0.59375
690,0.45214844,-0.11895752,-0.8386841,-0.203125,1.609375,-0.515625
691,0.45703125,-0.11871338,-0.8399048,-0.28125,1.578125,-0.546875
692,0.45239258,-0.1182251,-0.83795166,-0.390625,1.609375,-0.53125
693,0.45751953,-0.12384033,-0.8357544,-0.421875,1.484375,-0.640625
694,0.46020508,-0.12579346,-0.83428955,-0.75,1.046875,-0.625
695,0.45629883,-0.13067627,-0.83477783,-0.78125,0.75,-0.75
696,0.45654297,-0.12506104,-0.8303833,-0.4375,0.796875,-0.546875
697,0.45654297,-0.12188721,-0.82476807,-0.125,1.203125,-0.625
698,0.46118164,-0.12530518,-0.8364868,0.140625,1.53125,-0.5625
699,0.46020508,-0.12994385,-0.83428955,0.078125,1.578125,-0.625
700,0.4580078,-0.12432861,-0.83673096,-0.09375,1.46875,-0.71875
701,0.4555664,-0.12994385,-0.8250122,-0.109375,1.765625,-0.78125
702,0.45336914,-0.12896729,-0.83135986,0.0625,2.078125,-0.609375
703,0.4584961,-0.12774658,-0.83062744,-0.1875,1.84375,-0.609375
704,0.45092773,-0.12774658,-0.82647705,-0.21875,1.4375,-0.671875
705,0.45874023,-0.12359619,-0.8364868,-0.40625,1.5625,-0.671875
706,0.45947266,-0.128479,-0.83673096,-0.515625,1.390625,-0.765625
707,0.4572754,-0.13311768,-0.83551025,-0.171875,1.5,-0.65625
708,0.45874023,-0.12432861,-0.83551025,-0.296875,1.671875,-0.71875
709,0.4560547,-0.13092041,-0.8362427,0.171875,1.9375,-0.59375
710,0.4567871,-0.13189697,-0.8296509,0.09375,1.875,-0.515625
711,0.45898438,-0.12921143,-0.8323364,0.25,1.59375,-0.40625
712,0.45703125,-0.13189697,-0.83062744,-0.078125,1.46875,-0.4375
713,0.45703125,-0.13165283,-0.8320923,-0.375,1.1875,-0.6875
714,0.46166992,-0.12530518,-0.831604,-0.171875,1.375,-0.609375
715,0.45629883,-0.13336182,-0.8308716,-0.046875,1.671875,-0.796875
716,0.45922852,-0.12994385,-0.8296509,0.0,1.765625,-0.75
717,0.45166016,-0.13189697,-0.83843994,-0.140625,1.609375,-0.703125
718,0.45654297,-0.13287354,-0.82891846,-0.484375,1.484375,-0.796875
719,0.46411133,-0.13604736,-0.82891846,-0.140625,1.546875,-0.6875
720,0.46191406,-0.12384033,-0.8362427,-0.09375,2.109375,-0.515625
721,0.45458984,-0.13214111,-0.8311157,0.109375,1.6875,-0.5
722,0.46411133,-0.124572754,-0.83917236,0.265625,1.96875,-0.5
723,0.45922852,-0.13165283,-0.83599854,-0.296875,1.6875,-0.765625
724,0.45458984,-0.13067627,-0.82647705,-0.234375,1.734375,-0.703125
725,0.45922852,-0.13531494,-0.8389282,-0.28125,1.703125,-0.625
726,0.4555664,-0.1296997,-0.8413696,-0.3125,1.5625,-0.53125
727,0.45874023,-0.12652588,-0.835022,-0.328125,1.0,-0.515625
728,0.46118164,-0.13287354,-0.82647705,-0.53125,1.1875,-0.78125
729,0.4609375,-0.1338501,-0.8255005,-0.1875,1.125,-0.734375
730,0.45898438,-0.13214111,-0.83258057,-0.234375,1.265625,-0.796875
731,0.45581055,-0.13409424,-0.8274536,-0.046875,1.578125,-0.609375
732,0.4580078,-0.13922119,-0.8296509,-0.078125,1.640625,-0.53125
733,0.45751953,-0.13238525,-0.8308716,-0.28125,1.4375,-0.546875
734,0.4638672,-0.13018799,-0.8255005,-0.25,1.515625,-0.53125
735,0.46118164,-0.13775635,-0.83551025,-0.328125,1.921875,-0.75
736,0.45483398,-0.12945557,-0.82891846,-0.5,1.234375,-0.75
737,0.4645996,-0.1404419,-0.8369751,-0.421875,1.28125,-0.875
738,0.46655273,-0.13433838,-0.8272095,-0.546875,1.15625,-0.84375
739,0.45825195,-0.14068604,-0.8262329,-0.4375,1.265625,-0.78125
740,0.46044922,-0.14483643,-0.83135986,-0.421875,1.1875,-0.890625
741,0.47070312,-0.13482666,-0.8323364,-0.0625,1.546875,-0.65625
742,0.45654297,-0.13409424,-0.83477783,-0.3125,1.734375,-0.640625
743,0.46777344,-0.14141846,-0.8208618,-0.375,0.984375,-0.671875
744,0.47192383,-0.13824463,-0.8213501,-0.3125,1.28125,-0.84375
745,0.46069336,-0.14996338,-0.83380127,-0.78125,1.1875,-0.84375
746,0.4580078,-0.13482666,-0.82403564,-0.390625,1.546875,-0.796875
747,0.46533203,-0.13653564,-0.8279419,-0.421875,1.859375,-0.765625
748,0.47021484,-0.14776611,-0.8257446,-0.046875,0.953125,-0.703125
749,0.46728516,-0.14630127,-0.8167114,-0.234375,0.890625,-0.671875
750,0.47460938,-0.14239502,-0.82232666,-0.234375,1.03125,-0.671875
751,0.47070312,-0.14263916,-0.81573486,-0.734375,1.1875,-0.765625
752,0.47314453,-0.14385986,-0.8184204,-0.1875,1.234375,-0.796875
753,0.4736328,-0.14971924,-0.81817627,-0.359375,1.1875,-0.609375
754,0.47338867,-0.1482544,-0.81622314,-0.515625,1.234375,-0.90625
755,0.47143555,-0.1453247,-0.8171997,-0.421875,1.3125,-0.953125
756,0.47338867,-0.15020752,-0.8189087,-0.328125,1.4375,-0.796875
757,0.47436523,-0.14556885,-0.815979,-0.25,1.609375,-0.671875
758,0.46948242,-0.14752197,-0.8213501,-0.21875,1.265625,-0.59375
759,0.47387695,-0.14678955,-0.8184204,-0.53125,1.25,-0.703125
760,0.47094727,-0.1519165,-0.8093872,-0.578125,0.71875,-0.71875
761,0.47216797,-0.1531372,-0.82281494,-0.421875,1.09375,-0.875
762,0.4814453,-0.1519165,-0.81451416,0.140625,2.0,-0.484375
763,0.48364258,-0.15362549,-0.81207275,0.078125,1.765625,-0.578125
764,0.4814453,-0.15240479,-0.8101196,0.09375,1.546875,-0.625
