sample_no,accel_x,accel_y,accel_z,gyro_x,gyro_y,gyro_z
0,0.05102539,-0.9768677,0.26116943,-1.046875,2.828125,2.15625
1,0.029052734,-0.9194946,0.26849365,-5.03125,-0.46875,2.96875
2,0.035888672,-0.9290161,0.2850952,-3.140625,-3.453125,1.390625
3,0.018066406,-0.9390259,0.30828857,-3.65625,-1.703125,2.875
4,0.0,-0.9360962,0.3078003,-0.984375,-3.015625,3.0
5,-0.00390625,-0.944397,0.31585693,-1.390625,-2.03125,2.90625
6,-0.013183594,-0.93414307,0.3295288,0.921875,-1.40625,2.1875
7,0.00390625,-0.94537354,0.29632568,-2.09375,-0.9375,1.046875
8,0.016357422,-0.9209595,0.31097412,0.109375,1.015625,0.5
9,0.032470703,-0.93927,0.3192749,2.078125,0.375,0.765625
10,0.03515625,-0.93096924,0.29486084,-1.03125,0.0,0.984375
11,0.05444336,-0.94122314,0.30218506,-0.328125,-1.28125,0.390625
12,0.045166016,-0.9553833,0.31048584,-0.625,-1.09375,0.765625
13,0.03955078,-0.93756104,0.30096436,0.21875,-1.3125,0.703125
14,0.028076172,-0.9434204,0.30169678,-0.734375,-2.671875,0.265625
15,0.030761719,-0.9368286,0.31756592,0.5,-2.453125,0.078125
16,0.01977539,-0.95391846,0.32122803,1.1875,-1.546875,0.125
17,0.01171875,-0.9404907,0.3078003,-1.46875,-0.328125,0.71875
18,0.0053710938,-0.9282837,0.30999756,-0.171875,0.984375,0.765625
19,0.013671875,-0.93170166,0.30584717,0.4375,0.84375,-0.421875
20,0.036132812,-0.9373169,0.30169678,-0.78125,0.796875,-0.71875
21,0.05053711,-0.9517212,0.32513428,1.78125,1.03125,-0.890625
22,0.044433594,-0.9282837,0.3168335,-1.734375,-1.046875,-0.046875
23,0.037109375,-0.9421997,0.32904053,0.875,-2.734375,0.484375
24,0.025390625,-0.92437744,0.30926514,-1.671875,-4.359375,0.484375
25,0.030029297,-0.93585205,0.32684326,0.09375,-5.328125,-0.109375
26,0.019042969,-0.95513916,0.31097412,-0.46875,-1.125,-0.140625
27,0.009765625,-0.9312134,0.31854248,0.828125,0.09375,-0.125
28,0.010009766,-0.9402466,0.3217163,0.5,-0.265625,-0.28125
29,0.017578125,-0.93048096,0.31365967,0.34375,0.0625,0.296875
30,0.016845703,-0.9385376,0.31976318,1.265625,0.640625,0.390625
31,0.01928711,-0.9365845,0.3114624,0.4375,0.65625,0.265625
32,0.024169922,-0.9468384,0.32073975,1.140625,-0.234375,-0.171875
33,0.028076172,-0.94000244,0.32122803,0.296875,-0.46875,0.421875
34,0.03491211,-0.9348755,0.3168335,0.390625,-0.421875,0.65625
35,0.028564453,-0.93585205,0.31878662,0.796875,-1.609375,0.75
36,0.021484375,-0.93414307,0.32122803,1.328125,-1.109375,0.515625
37,0.020019531,-0.9365845,0.3168335,0.9375,-1.390625,0.5
38,0.015625,-0.93756104,0.3143921,0.859375,-1.109375,0.328125
39,0.016601562,-0.9314575,0.32489014,2.3125,-0.390625,0.0
40,0.020751953,-0.9505005,0.27972412,-2.328125,-0.625,-0.0625
41,0.021728516,-0.93292236,0.3156128,1.90625,0.578125,0.265625
42,0.033203125,-0.9429321,0.3180542,0.671875,-0.484375,-0.171875
43,0.026123047,-0.93048096,0.30828857,-0.34375,-0.453125,0.03125
44,0.02758789,-0.9314575,0.31365967,0.4375,-1.734375,-0.296875
45,0.0234375,-0.942688,0.31610107,-0.46875,-2.84375,-0.5
46,0.02319336,-0.93829346,0.31414795,-0.21875,-2.59375,-0.421875
47,0.020019531,-0.9378052,0.30682373,-1.90625,-1.71875,0.234375
48,0.012207031,-0.9299927,0.3217163,0.4375,-1.0,0.140625
49,0.016601562,-0.94195557,0.32635498,0.421875,-1.109375,-0.28125
50,0.018554688,-0.93341064,0.31707764,0.15625,-1.015625,-0.28125
51,0.018798828,-0.93634033,0.31585693,0.375,-0.546875,-0.046875
52,0.012451172,-0.9324341,0.31292725,0.90625,-0.828125,0.1875
53,0.016845703,-0.9397583,0.32122803,0.71875,-0.453125,0.1875
54,0.0056152344,-0.9216919,0.31829834,0.6875,-0.265625,0.359375
55,0.0031738281,-0.9351196,0.31292725,0.984375,-0.53125,-0.046875
56,0.013183594,-0.9302368,0.340271,3.171875,-0.34375,-0.609375
57,0.0126953125,-0.9417114,0.29437256,-0.984375,-0.53125,-0.140625
58,0.01171875,-0.9385376,0.33538818,4.359375,-1.1875,-0.4375
59,0.032714844,-0.94488525,0.31951904,0.90625,-1.03125,-0.15625
60,0.018798828,-0.92559814,0.30194092,-1.171875,-1.21875,0.40625
61,0.016845703,-0.9404907,0.31878662,0.65625,-1.28125,-0.390625
62,-0.0021972656,-0.94366455,0.3024292,-0.5,-1.1875,0.078125
63,0.0056152344,-0.9397583,0.31195068,0.78125,-0.375,-0.078125
64,0.009033203,-0.92437744,0.29852295,-1.34375,0.21875,0.796875
65,0.012451172,-0.9307251,0.3241577,1.328125,-0.671875,0.46875
66,0.016845703,-0.94366455,0.32537842,2.25,-1.953125,0.90625
67,0.0107421875,-0.94073486,0.31365967,0.828125,-2.421875,1.359375
68,0.0063476562,-0.9343872,0.30316162,0.828125,-2.296875,1.1875
69,-0.008300781,-0.9451294,0.31097412,2.484375,-1.78125,1.140625
70,0.0,-0.9397583,0.2994995,2.46875,-0.625,0.3125
71,0.022216797,-0.9483032,0.2838745,1.671875,0.640625,0.9375
72,0.026611328,-0.9458618,0.2909546,1.21875,1.21875,0.578125
73,0.029052734,-0.9451294,0.30877686,3.25,0.46875,0.015625
74,0.025634766,-0.96295166,0.2826538,-1.546875,-0.34375,0.265625
75,0.024414062,-0.93878174,0.2975464,0.609375,-1.203125,0.078125
76,0.024658203,-0.9595337,0.31732178,1.765625,-1.0625,-0.34375
77,0.009277344,-0.93585205,0.28851318,-0.078125,-1.421875,0.1875
78,0.0087890625,-0.92852783,0.29364014,0.015625,-2.546875,-0.328125
79,0.014160156,-0.94903564,0.30291748,0.171875,-3.359375,-1.046875
80,0.0075683594,-0.94659424,0.31121826,0.359375,-2.46875,0.0625
81,0.0041503906,-0.93707275,0.28338623,-1.59375,-4.0,0.09375
82,0.0053710938,-0.942688,0.31097412,0.109375,-3.765625,-0.359375
83,-0.00390625,-0.9458618,0.30633545,0.203125,-3.96875,-0.046875
84,-0.0007324219,-0.94732666,0.2999878,0.90625,-3.625,-0.0625
85,-0.0009765625,-0.9439087,0.29364014,0.828125,-2.203125,0.015625
86,-0.008300781,-0.9446411,0.2929077,0.359375,-1.28125,-0.15625
87,-0.0068359375,-0.94000244,0.29681396,0.40625,-0.03125,-0.140625
88,-0.0041503906,-0.9360962,0.30218506,1.015625,0.625,-0.078125
89,0.001953125,-0.9404907,0.2946167,0.328125,0.5625,-0.046875
90,-0.0075683594,-0.92437744,0.29925537,0.375,0.765625,0.296875
91,0.008300781,-0.94000244,0.30194092,-0.734375,-0.890625,-0.25
92,0.0036621094,-0.9378052,0.2982788,0.21875,-0.734375,0.671875
93,0.012451172,-0.9463501,0.31341553,1.765625,-1.25,0.5625
94,0.016357422,-0.9463501,0.28485107,-0.421875,-1.171875,0.96875
95,0.0024414062,-0.9397583,0.2987671,2.0,-0.8125,1.078125
96,-0.0068359375,-0.9470825,0.31097412,0.8125,-1.734375,0.328125
97,-0.0012207031,-0.9517212,0.31048584,0.75,-0.875,0.0625
98,-0.0024414062,-0.94659424,0.29193115,0.21875,0.296875,0.453125
99,-0.0041503906,-0.9414673,0.28778076,1.34375,0.90625,-0.015625
100,0.0031738281,-0.9414673,0.29144287,0.734375,0.15625,-0.25
101,0.012207031,-0.93951416,0.2831421,-0.34375,-0.890625,-0.109375
102,0.01586914,-0.93829346,0.29486084,-0.25,-1.328125,0.234375
103,0.0068359375,-0.9390259,0.30511475,-0.671875,-1.421875,0.296875
104,-0.0031738281,-0.940979,0.2946167,0.203125,-1.890625,0.109375
105,-0.0068359375,-0.9458618,0.30584717,0.59375,-0.796875,0.15625
106,0.0026855469,-0.9475708,0.30438232,1.0,-0.234375,0.375
107,0.0041503906,-0.9307251,0.2987671,0.75,-0.375,0.359375
108,0.0061035156,-0.9414673,0.2909546,0.875,-0.015625,0.03125
109,-0.0043945312,-0.9373169,0.29412842,0.609375,-0.15625,0.125
110,0.0031738281,-0.94903564,0.30218506,1.65625,-0.40625,-0.171875
111,-0.0014648438,-0.94854736,0.27996826,-0.0625,0.125,0.015625
112,0.0,-0.940979,0.29193115,0.4375,0.28125,0.125
113,0.0021972656,-0.94854736,0.29315186,-0.234375,-0.21875,-0.078125
114,0.0063476562,-0.9541626,0.29656982,0.40625,-0.484375,0.203125
115,0.00390625,-0.9463501,0.28460693,-2.34375,-0.828125,0.796875
116,0.009765625,-0.9390259,0.29559326,-3.203125,-1.140625,0.796875
117,0.001953125,-0.9558716,0.32147217,-2.671875,-0.421875,0.1875
118,-0.009521484,-0.9522095,0.32659912,-1.515625,1.6875,1.578125
119,-0.0034179688,-0.9470825,0.31292725,-0.609375,1.71875,1.28125
120,-0.001953125,-0.9348755,0.32440186,-1.0,1.390625,0.71875
121,0.011474609,-0.94073486,0.322937,-1.5625,1.65625,0.671875
122,0.010498047,-0.93292236,0.32269287,-0.640625,0.34375,0.28125
123,0.013916016,-0.9456177,0.32366943,1.234375,1.078125,0.859375
124,0.0048828125,-0.92755127,0.3060913,0.375,1.546875,1.609375
125,0.013671875,-0.9290161,0.3060913,2.125,1.484375,0.5
126,0.009277344,-0.9273071,0.309021,1.484375,0.65625,0.65625
127,0.019042969,-0.93096924,0.30633545,0.796875,0.21875,0.359375
128,0.020263672,-0.92755127,0.29779053,1.59375,0.109375,-0.34375
129,0.01977539,-0.9368286,0.3007202,2.90625,-0.84375,-0.140625
130,0.022949219,-0.9451294,0.2999878,2.125,-1.015625,0.140625
131,0.020019531,-0.9414673,0.30999756,2.6875,-0.5,-0.203125
132,0.016113281,-0.942688,0.30633545,0.8125,-1.421875,-0.75
133,0.012451172,-0.954895,0.30584717,0.046875,-0.46875,0.03125
134,0.01586914,-0.94732666,0.3024292,0.90625,-0.828125,-0.4375
135,0.01928711,-0.9480591,0.29437256,1.4375,-0.84375,-0.203125
136,0.017578125,-0.94903564,0.29901123,0.65625,-0.96875,-0.515625
137,0.016113281,-0.9505005,0.30169678,0.34375,-1.1875,-0.3125
138,0.0063476562,-0.9439087,0.29681396,-0.21875,-0.984375,-0.640625
139,0.0031738281,-0.9470825,0.29510498,0.5,-1.46875,-0.6875
140,0.0056152344,-0.92974854,0.30755615,-0.40625,-1.25,-0.140625
141,0.009277344,-0.9378052,0.2855835,-1.421875,-1.28125,0.34375
142,-0.0078125,-0.9360962,0.31365967,-0.046875,-1.96875,0.375
143,-0.0009765625,-0.9517212,0.322937,0.203125,-1.53125,0.34375
144,0.0,-0.9421997,0.30462646,-0.859375,-0.9375,0.359375
145,0.0017089844,-0.94122314,0.30926514,0.625,-0.796875,0.109375
146,0.0034179688,-0.94000244,0.30389404,0.0625,-0.6875,0.0625
147,0.012207031,-0.9338989,0.30584717,1.0,0.046875,0.84375
148,0.009521484,-0.9402466,0.30828857,0.46875,-0.15625,0.40625
149,0.0068359375,-0.942688,0.30682373,0.328125,-0.171875,0.609375
150,0.012207031,-0.9536743,0.30438232,1.015625,-0.296875,0.234375
151,0.0029296875,-0.93585205,0.29656982,0.203125,0.171875,0.953125
152,-0.0017089844,-0.9326782,0.2987671,0.625,-0.046875,0.40625
153,0.0048828125,-0.94122314,0.2994995,-0.046875,-0.09375,0.46875
154,0.0087890625,-0.9417114,0.3078003,-0.03125,0.453125,0.890625
155,0.018554688,-0.9505005,0.31219482,-0.21875,0.328125,1.375
156,0.016357422,-0.92755127,0.32781982,2.484375,0.1875,1.46875
157,0.020263672,-0.9360962,0.2826538,-3.203125,-0.984375,1.8125
158,0.0061035156,-0.9258423,0.3241577,1.828125,-1.0625,1.09375
159,0.018554688,-0.942688,0.31781006,1.125,-1.734375,0.15625
160,0.016601562,-0.9307251,0.2970581,1.046875,-0.796875,-0.421875
161,0.01953125,-0.9470825,0.31536865,2.5625,-0.421875,-0.625
162,0.016845703,-0.94854736,0.29534912,0.5,-0.03125,-0.015625
163,0.016357422,-0.9507446,0.31195068,3.21875,0.5625,-0.1875
164,0.005126953,-0.94976807,0.28875732,0.1875,0.375,-0.015625
165,0.0034179688,-0.94732666,0.28997803,0.5625,0.65625,-0.25
166,0.009033203,-0.944397,0.29681396,1.5,0.1875,-0.109375
167,0.010498047,-0.94244385,0.2843628,0.328125,-0.703125,-0.734375
168,0.0107421875,-0.94366455,0.29486084,0.921875,-1.1875,-0.671875
169,0.01928711,-0.9429321,0.29974365,0.015625,-1.28125,0.15625
170,0.012207031,-0.9470825,0.29632568,1.875,-1.203125,-0.25
171,0.01977539,-0.9402466,0.28656006,-0.765625,-1.6875,0.453125
172,0.0012207031,-0.93292236,0.30950928,2.140625,-0.71875,0.640625
173,0.0048828125,-0.9404907,0.2802124,-1.875,-1.234375,0.421875
174,-0.00390625,-0.93585205,0.3024292,0.453125,-0.265625,0.46875
175,0.0075683594,-0.9524536,0.30023193,0.703125,-0.109375,0.25
176,0.008056641,-0.94073486,0.291687,-0.6875,1.0,0.78125
177,0.013671875,-0.9373169,0.2904663,-0.09375,0.515625,0.765625
178,0.009521484,-0.92974854,0.29241943,-1.21875,-0.578125,1.015625
179,0.013427734,-0.9380493,0.3156128,1.734375,-0.796875,-0.421875
180,0.022949219,-0.95098877,0.30877686,-0.609375,-1.640625,-0.46875
181,0.020263672,-0.9553833,0.31365967,0.53125,-1.453125,-0.09375
182,0.016357422,-0.93878174,0.30682373,1.140625,-1.140625,0.4375
183,0.010498047,-0.9368286,0.2855835,0.953125,-0.640625,0.328125
184,0.0036621094,-0.9378052,0.30389404,0.734375,-1.265625,-0.15625
185,0.0031738281,-0.942688,0.30145264,0.359375,-1.171875,-0.34375
186,0.0063476562,-0.94854736,0.30584717,1.5625,-0.140625,-0.5625
187,0.0107421875,-0.9529419,0.29510498,1.1875,0.046875,-0.28125
188,0.005126953,-0.9380493,0.2970581,-0.609375,-0.734375,0.390625
189,0.010498047,-0.94610596,0.29510498,0.328125,-1.375,0.03125
190,0.007080078,-0.9439087,0.28289795,-1.046875,-0.9375,0.125
191,0.0075683594,-0.94317627,0.31121826,1.328125,-0.875,-0.015625
192,0.00390625,-0.9456177,0.291687,-0.578125,-0.8125,0.453125
193,0.0078125,-0.94317627,0.30584717,0.453125,-0.265625,0.265625
194,0.011474609,-0.95391846,0.29681396,-0.484375,-0.78125,0.578125
195,0.008056641,-0.9404907,0.2975464,0.109375,-0.96875,0.625
196,0.011474609,-0.94610596,0.29803467,-0.421875,-1.40625,0.15625
197,0.00048828125,-0.94415283,0.2868042,-1.046875,-0.703125,0.578125
198,0.010009766,-0.9385376,0.30096436,-0.484375,-0.421875,-0.09375
199,0.014892578,-0.9505005,0.32000732,-1.3125,-0.015625,0.03125
200,0.0078125,-0.9414673,0.29901123,-2.5625,0.46875,0.984375
201,0.010009766,-0.94195557,0.324646,-0.546875,0.265625,0.09375
202,0.0053710938,-0.942688,0.33587646,-2.953125,0.03125,0.453125
203,-0.00048828125,-0.927063,0.32781982,-2.5625,-0.296875,0.265625
204,0.009521484,-0.9348755,0.32147217,-2.78125,-1.484375,-0.34375
205,0.01171875,-0.91900635,0.33587646,-3.0625,-1.421875,0.109375
206,0.0107421875,-0.9439087,0.31072998,-2.640625,-1.046875,1.171875
207,-0.0017089844,-0.91656494,0.3456421,-3.15625,-1.359375,0.53125
208,0.009033203,-0.9265747,0.32537842,-2.578125,-1.09375,0.03125
209,0.01586914,-0.9187622,0.33807373,-0.5625,-0.46875,-0.125
210,0.018554688,-0.9368286,0.35198975,1.484375,0.171875,-0.109375
211,0.016113281,-0.92755127,0.33709717,0.953125,-0.28125,0.390625
212,0.0061035156,-0.9273071,0.33758545,3.765625,0.5625,0.671875
213,0.0036621094,-0.92315674,0.32122803,4.15625,0.765625,0.875
214,-0.005859375,-0.93951416,0.32537842,6.640625,0.515625,0.25
215,0.0012207031,-0.93707275,0.3222046,4.859375,0.015625,0.5625
216,0.0107421875,-0.942688,0.3131714,3.359375,0.46875,0.03125
217,0.017089844,-0.9343872,0.29901123,1.421875,0.9375,0.265625
218,0.016845703,-0.94732666,0.3143921,2.359375,0.328125,-0.21875
219,0.004638672,-0.9360962,0.31097412,1.578125,1.203125,0.515625
220,0.007080078,-0.9312134,0.30023193,1.40625,-0.15625,0.5625
221,0.0087890625,-0.9380493,0.31414795,2.0625,-0.09375,0.25
222,0.010009766,-0.9500122,0.2987671,0.203125,-0.484375,0.390625
223,0.0053710938,-0.9417114,0.30389404,0.515625,-0.421875,0.65625
224,0.01928711,-0.94610596,0.3012085,1.078125,-0.875,0.15625
225,0.016601562,-0.9348755,0.29412842,0.359375,0.140625,0.640625
226,0.022216797,-0.9468384,0.29656982,1.125,-0.78125,0.0625
227,0.024414062,-0.9492798,0.30438232,0.109375,-1.375,0.3125
228,0.0146484375,-0.9534302,0.31072998,1.296875,-0.953125,0.15625
229,0.017822266,-0.94610596,0.2994995,-0.9375,-1.09375,-0.0625
230,0.018066406,-0.93634033,0.3102417,0.5,-0.859375,0.0625
231,0.016601562,-0.94415283,0.30706787,0.390625,-0.6875,0.265625
232,0.0075683594,-0.93414307,0.28729248,0.203125,-0.703125,0.171875
233,0.0107421875,-0.94854736,0.30706787,1.828125,-1.15625,-0.1875
234,0.0012207031,-0.94659424,0.31414795,1.09375,-0.640625,0.65625
235,0.0073242188,-0.9404907,0.2982788,0.390625,-0.65625,0.421875
236,0.009765625,-0.94073486,0.2994995,0.0625,-0.171875,0.265625
237,0.01586914,-0.9480591,0.28778076,-0.03125,-0.25,0.1875
238,0.017822266,-0.9360962,0.32000732,2.609375,-0.21875,-0.078125
239,0.022460938,-0.9480591,0.2802124,-1.6875,-0.640625,0.109375
240,0.013427734,-0.9343872,0.31219482,1.578125,-0.3125,0.546875
241,0.009033203,-0.944397,0.28875732,-0.296875,-0.890625,0.21875
242,0.016845703,-0.9463501,0.2999878,0.765625,0.265625,-0.046875
243,0.017578125,-0.93927,0.29901123,-0.46875,-0.75,0.171875
244,0.015136719,-0.940979,0.2987671,0.359375,-1.09375,-0.078125
245,0.012207031,-0.94195557,0.31121826,0.890625,-0.953125,-0.015625
246,0.0087890625,-0.94659424,0.30340576,-0.859375,-0.65625,0.109375
247,0.0073242188,-0.9492798,0.3102417,0.078125,-0.75,0.203125
248,0.0026855469,-0.94976807,0.2994995,-0.234375,-0.8125,0.65625
249,0.011230469,-0.94659424,0.2892456,-0.125,0.140625,0.515625
250,0.010253906,-0.9326782,0.293396,-0.3125,-0.59375,0.203125
251,0.018554688,-0.94122314,0.30389404,0.296875,-0.328125,0.125
252,0.017089844,-0.93951416,0.29925537,-0.4375,-0.90625,-0.125
253,0.02758789,-0.9351196,0.31121826,-0.078125,-0.484375,0.3125
254,0.021484375,-0.944397,0.29974365,-1.28125,-1.5,0.40625
255,0.021972656,-0.94073486,0.3241577,2.15625,-1.90625,0.1875
256,-0.0026855469,-0.9365845,0.28363037,-1.859375,-1.609375,0.078125
257,-0.0036621094,-0.93634033,0.3156128,2.046875,-1.515625,-0.6875
258,0.0107421875,-0.9429321,0.2909546,-1.046875,-1.03125,-0.25
259,-0.0024414062,-0.9324341,0.293396,0.78125,0.421875,-1.125
260,0.0031738281,-0.9468384,0.324646,1.21875,0.515625,-1.4375
261,0.014404297,-0.9451294,0.30682373,-0.359375,0.3125,-0.828125
262,0.024658203,-0.94537354,0.31878662,1.171875,0.359375,-0.375
263,0.012451172,-0.9326782,0.2982788,-1.3125,-0.0625,-0.296875
264,0.012451172,-0.94366455,0.30828857,-0.546875,-1.078125,-0.140625
265,0.008056641,-0.9378052,0.29803467,-1.453125,-2.421875,0.3125
266,-0.001953125,-0.93951416,0.30755615,0.015625,-1.78125,0.359375
267,-0.011230469,-0.9331665,0.31365967,-0.75,-1.9375,0.734375
268,-0.01171875,-0.9326782,0.30755615,-1.90625,-2.25,0.859375
269,-0.0053710938,-0.954895,0.3361206,0.078125,-1.0,0.765625
270,0.016601562,-0.9685669,0.31756592,-1.921875,0.28125,2.390625
271,-0.013916016,-0.9241333,0.32489014,-0.046875,2.4375,4.171875
272,-0.024902344,-0.90167236,0.30389404,-0.546875,-0.25,-0.015625
273,0.028564453,-0.9595337,0.33514404,0.8125,-0.375,-0.390625
274,0.0234375,-0.9260864,0.33050537,-1.8125,-0.609375,0.15625
275,0.038085938,-0.93292236,0.33026123,1.71875,-2.890625,-1.1875
276,0.026367188,-0.9456177,0.32244873,-0.828125,-3.0625,0.5
277,0.008544922,-0.93292236,0.30584717,0.28125,-2.1875,0.578125
278,-0.0043945312,-0.9414673,0.3102417,1.125,-2.515625,-0.25
279,-0.009277344,-0.9417114,0.32733154,0.984375,-1.359375,-0.046875
280,-0.0031738281,-0.93878174,0.32000732,-0.921875,-0.671875,0.46875
281,-0.0009765625,-0.93096924,0.32391357,0.328125,-0.25,-0.484375
282,0.007080078,-0.93878174,0.3361206,-0.109375,-0.109375,0.0
283,0.012451172,-0.93414307,0.3287964,0.6875,-0.078125,0.25
284,0.009033203,-0.9397583,0.33026123,0.625,-0.625,0.015625
285,0.010253906,-0.94415283,0.33026123,0.5,-1.265625,0.109375
286,0.0075683594,-0.93341064,0.3217163,0.140625,-1.46875,0.0625
287,0.0056152344,-0.93414307,0.32513428,0.921875,-1.453125,-0.359375
288,0.010009766,-0.93878174,0.31585693,-0.453125,-1.125,-0.046875
289,0.0024414062,-0.94781494,0.33221436,0.59375,0.640625,0.578125
290,-0.0068359375,-0.9404907,0.3444214,-0.359375,1.078125,-0.734375
291,0.0056152344,-0.958313,0.3414917,-1.78125,1.484375,0.96875
292,0.0043945312,-0.92803955,0.3283081,-1.921875,0.34375,0.34375
293,0.018310547,-0.94488525,0.3522339,-0.734375,1.03125,-0.03125
294,-0.0026855469,-0.9246216,0.3168335,-3.96875,0.640625,0.921875
295,0.00048828125,-0.9163208,0.35247803,-0.84375,1.1875,0.3125
296,-0.0007324219,-0.92510986,0.3427124,-1.96875,-0.40625,0.953125
297,0.0024414062,-0.92315674,0.36175537,-0.25,0.828125,0.96875
298,0.0073242188,-0.9246216,0.32440186,-0.53125,0.453125,0.453125
299,0.015625,-0.9212036,0.33416748,1.453125,0.046875,0.234375
300,0.016601562,-0.91119385,0.32806396,1.953125,-0.640625,-0.03125
301,0.010009766,-0.9168091,0.34051514,3.046875,-0.625,0.0625
302,0.01586914,-0.9336548,0.34295654,3.453125,-1.171875,-0.046875
303,0.015380859,-0.93829346,0.340271,3.609375,-1.015625,0.125
304,0.014892578,-0.9414673,0.32269287,2.28125,-0.140625,-0.015625
305,0.0012207031,-0.93927,0.33319092,1.640625,0.0,0.03125
306,0.0078125,-0.92974854,0.3348999,0.421875,-1.078125,0.21875
307,0.009033203,-0.923645,0.322937,0.5625,-0.015625,-0.25
308,0.011230469,-0.9314575,0.31976318,2.0,-0.734375,-0.15625
309,0.008544922,-0.93292236,0.32562256,-0.640625,-1.34375,0.328125
310,0.011230469,-0.9343872,0.3348999,0.59375,-1.3125,0.15625
311,0.0,-0.93829346,0.32269287,0.453125,-0.53125,0.328125
312,0.0056152344,-0.93048096,0.32977295,0.859375,-0.703125,0.3125
313,0.014404297,-0.9241333,0.31610107,-0.140625,-0.9375,0.328125
314,0.011962891,-0.9356079,0.32537842,1.53125,-0.53125,0.3125
315,0.0012207031,-0.9397583,0.32196045,0.75,-1.125,0.359375
316,0.012939453,-0.940979,0.32318115,0.203125,-1.578125,0.234375
317,0.008544922,-0.93341064,0.32196045,0.265625,-0.078125,0.015625
318,0.001953125,-0.93829346,0.33294678,0.78125,0.21875,0.40625
319,0.0026855469,-0.9302368,0.33148193,0.234375,-1.296875,0.234375
320,0.0056152344,-0.9338989,0.32440186,0.609375,-0.921875,0.265625
321,0.0053710938,-0.9373169,0.32537842,1.390625,-0.640625,0.265625
322,0.0075683594,-0.93951416,0.32391357,1.140625,-0.71875,0.34375
323,0.010253906,-0.9299927,0.31610107,0.78125,-0.59375,0.359375
324,0.0031738281,-0.9246216,0.31243896,-0.140625,-1.046875,0.109375
325,0.008056641,-0.94488525,0.3234253,1.234375,-1.6875,0.1875
326,0.010009766,-0.9351196,0.3114624,-1.234375,-1.1875,0.15625
327,0.0063476562,-0.94537354,0.33026123,1.09375,-1.453125,0.234375
328,0.004638672,-0.94244385,0.3156128,-0.453125,-1.390625,0.40625
329,0.0,-0.9331665,0.324646,0.421875,-0.84375,0.359375
330,0.0031738281,-0.9378052,0.33050537,0.078125,-1.609375,0.15625
331,-0.00024414062,-0.942688,0.3204956,0.125,-1.453125,0.171875
332,-0.004638672,-0.9368286,0.32659912,1.65625,-0.703125,-0.015625
333,0.0014648438,-0.9360962,0.3300171,-0.671875,-0.765625,-0.015625
334,0.0068359375,-0.93634033,0.33172607,-0.796875,-1.375,-0.078125
335,0.0126953125,-0.93170166,0.31414795,-1.515625,-2.046875,-0.0625
336,0.0073242188,-0.9385376,0.31781006,-0.3125,-0.9375,-0.109375
337,-0.0053710938,-0.93951416,0.33514404,0.9375,-1.203125,-0.125
338,0.001953125,-0.9351196,0.33538818,0.0625,-1.6875,0.25
339,-0.0034179688,-0.92437744,0.32977295,-0.25,-1.546875,0.296875
340,0.00024414062,-0.93927,0.3378296,0.875,-1.0625,-0.140625
341,-0.007080078,-0.9265747,0.32147217,-1.421875,-1.6875,0.140625
342,-0.0043945312,-0.9380493,0.3522339,2.3125,-0.453125,0.09375
343,-0.014160156,-0.9385376,0.32025146,-1.359375,-0.75,0.109375
344,-0.005859375,-0.9295044,0.340271,1.421875,-1.34375,0.25
345,0.0061035156,-0.94122314,0.31854248,-0.328125,-0.984375,0.171875
346,0.0024414062,-0.92510986,0.32611084,0.34375,-0.53125,0.125
347,-0.0063476562,-0.93292236,0.32781982,0.234375,-1.484375,-0.28125
348,0.001953125,-0.92974854,0.3300171,0.640625,-1.359375,0.203125
349,-0.0063476562,-0.9439087,0.3444214,1.359375,-0.09375,0.421875
350,-0.0031738281,-0.93463135,0.32806396,-1.203125,-0.515625,0.171875
351,-0.0017089844,-0.92926025,0.33709717,0.140625,-0.421875,0.28125
352,-0.005126953,-0.9338989,0.33636475,0.0625,-1.015625,0.171875
353,0.0014648438,-0.92559814,0.32928467,-0.375,-1.140625,0.359375
354,-0.005859375,-0.9314575,0.33026123,0.0,-0.921875,0.203125
355,-0.0034179688,-0.9324341,0.32635498,0.03125,-1.296875,0.171875
356,-0.005859375,-0.92974854,0.34661865,0.578125,-0.6875,0.296875
357,-0.014892578,-0.9277954,0.34295654,-0.140625,-0.90625,0.421875
358,-0.009033203,-0.9312134,0.3295288,0.15625,-0.78125,0.46875
359,-0.004638672,-0.93096924,0.35003662,1.390625,-0.578125,0.453125
360,-0.0021972656,-0.9348755,0.31732178,-1.421875,-1.125,0.546875
361,-0.009277344,-0.9246216,0.34002686,0.90625,-0.296875,0.515625
362,-0.0026855469,-0.9368286,0.34100342,1.03125,-1.109375,-0.140625
363,0.0014648438,-0.9324341,0.32904053,-0.359375,-0.671875,0.484375
364,-0.009521484,-0.9336548,0.33465576,0.390625,-0.734375,0.40625
365,-0.0056152344,-0.9277954,0.33392334,-0.234375,-0.875,0.296875
366,-0.0017089844,-0.9277954,0.33685303,0.96875,-1.0,-0.078125
367,-0.010498047,-0.93096924,0.32928467,-1.265625,-0.671875,0.21875
368,-0.0043945312,-0.9302368,0.3366089,0.34375,-0.34375,0.03125
369,0.0026855469,-0.93170166,0.33831787,0.21875,-0.21875,0.25
370,-0.0041503906,-0.9295044,0.33221436,0.921875,-0.4375,0.453125
371,-0.0026855469,-0.92755127,0.3373413,1.28125,-0.5625,0.46875
372,-0.013671875,-0.9295044,0.34051514,0.734375,-0.46875,0.484375
373,-0.0024414062,-0.9338989,0.33636475,1.3125,-0.078125,0.578125
374,-0.0036621094,-0.9295044,0.32733154,0.609375,0.03125,0.328125
375,-0.00390625,-0.93536377,0.32904053,1.09375,-0.296875,-0.1875
376,0.0036621094,-0.93096924,0.322937,-1.03125,-0.03125,0.640625
377,0.0007324219,-0.92803955,0.34539795,1.171875,0.25,0.546875
378,-0.0021972656,-0.93341064,0.31488037,-3.6875,0.625,0.65625
379,-0.0036621094,-0.9365845,0.37371826,0.890625,0.671875,0.359375
380,0.0007324219,-0.9378052,0.33636475,-3.65625,-0.578125,0.515625
381,-0.0009765625,-0.9234009,0.34320068,-1.46875,0.4375,0.25
382,0.00390625,-0.9351196,0.3583374,-1.828125,0.390625,0.515625
383,0.0031738281,-0.91192627,0.34417725,-2.21875,-1.21875,0.78125
384,0.0009765625,-0.92437744,0.33343506,-0.09375,-0.53125,0.421875
385,-0.0031738281,-0.9209595,0.3366089,1.109375,0.109375,0.359375
386,0.010498047,-0.9258423,0.340271,1.34375,-0.078125,0.234375
387,0.0063476562,-0.92266846,0.34832764,2.859375,-0.046875,0.171875
388,0.0146484375,-0.9265747,0.34320068,2.796875,-0.625,-0.140625
389,0.0107421875,-0.93170166,0.34051514,1.5625,-1.171875,0.28125
390,-0.00048828125,-0.9246216,0.340271,0.84375,-0.953125,0.0
391,-0.00024414062,-0.9209595,0.3451538,0.640625,-0.625,0.015625
392,-0.001953125,-0.94195557,0.34320068,1.8125,-1.109375,-0.078125
393,-0.0007324219,-0.92633057,0.33270264,-0.15625,-1.046875,0.09375
394,0.0063476562,-0.93096924,0.34320068,1.6875,-0.25,0.359375
395,0.00024414062,-0.9319458,0.33050537,-0.453125,-1.1875,0.671875
396,0.0036621094,-0.93585205,0.3427124,1.078125,-1.6875,0.515625
397,0.001953125,-0.9282837,0.3312378,-0.015625,-0.3125,0.484375
398,0.00048828125,-0.92022705,0.3307495,0.953125,-0.140625,0.28125
399,0.004638672,-0.93096924,0.3312378,-0.1875,-1.0,0.0625
400,0.013916016,-0.9385376,0.34490967,1.296875,-0.3125,0.0625
401,0.0063476562,-0.9326782,0.33709717,0.1875,-0.59375,0.28125
402,-0.0063476562,-0.9331665,0.34075928,-0.28125,-0.46875,0.71875
403,-0.0053710938,-0.9324341,0.34857178,0.765625,-1.0625,0.0625
404,0.0007324219,-0.9282837,0.3204956,-1.078125,-1.015625,0.421875
405,0.0024414062,-0.9209595,0.3366089,1.0,-0.484375,0.0
406,-0.0061035156,-0.93048096,0.34124756,0.671875,-1.046875,-0.015625
407,0.0024414062,-0.93292236,0.34588623,0.984375,-0.828125,0.171875
408,0.0014648438,-0.9331665,0.3361206,-0.25,-0.734375,0.453125
409,-0.0073242188,-0.9168091,0.33441162,0.578125,-0.71875,0.3125
410,-0.0053710938,-0.93707275,0.32635498,-0.296875,-0.671875,0.359375
411,0.0061035156,-0.9199829,0.3493042,1.625,-0.265625,0.640625
412,0.004638672,-0.9290161,0.32269287,-1.5,-0.421875,0.046875
413,0.0014648438,-0.9343872,0.3505249,1.9375,-0.5625,0.1875
414,0.010253906,-0.93707275,0.33758545,0.015625,-0.84375,0.578125
415,-0.00048828125,-0.9229126,0.33172607,-0.03125,-0.234375,0.5
416,-0.0024414062,-0.9319458,0.33758545,0.71875,-0.953125,0.203125
417,0.0061035156,-0.9351196,0.34222412,0.453125,-1.03125,0.453125
418,0.0014648438,-0.94415283,0.34368896,1.28125,-0.59375,0.40625
419,0.0075683594,-0.9241333,0.33148193,-0.640625,-0.296875,0.65625
420,0.001953125,-0.93414307,0.338562,0.828125,-0.21875,0.03125
421,0.0012207031,-0.93756104,0.34539795,0.078125,-0.984375,0.203125
422,0.005126953,-0.92803955,0.34051514,0.234375,-0.359375,0.5
423,-0.0012207031,-0.9307251,0.33953857,0.21875,-0.421875,0.453125
424,-0.0007324219,-0.93048096,0.33929443,0.265625,-0.59375,0.40625
425,0.00024414062,-0.92681885,0.3361206,0.859375,-0.015625,0.15625
426,-0.00024414062,-0.928772,0.34417725,0.953125,-0.125,0.015625
427,0.008300781,-0.9314575,0.3241577,0.53125,-0.375,0.109375
428,0.010986328,-0.92388916,0.3463745,2.96875,0.0625,0.109375
429,0.008300781,-0.9338989,0.31463623,-1.96875,-0.796875,0.171875
430,0.0017089844,-0.92974854,0.34783936,1.9375,-0.453125,0.171875
431,0.005126953,-0.940979,0.34539795,1.125,-1.109375,-0.3125
432,0.0073242188,-0.9314575,0.3295288,0.578125,-0.015625,0.65625
433,-0.0043945312,-0.9338989,0.3336792,1.578125,-0.15625,0.015625
434,0.0017089844,-0.9336548,0.3222046,-0.125,-0.75,0.171875
435,-0.0014648438,-0.92974854,0.3324585,1.40625,-0.25,-0.0625
436,0.0056152344,-0.9356079,0.33026123,-0.9375,-0.703125,0.1875
437,0.011230469,-0.9326782,0.33465576,0.390625,-0.703125,-0.09375
438,0.0073242188,-0.93170166,0.3378296,0.234375,-1.0625,0.171875
439,0.005126953,-0.93707275,0.32684326,0.21875,-1.140625,-0.171875
440,0.0026855469,-0.93634033,0.33050537,-0.3125,-1.1875,-0.03125
441,0.0009765625,-0.9326782,0.3307495,0.21875,-0.5,0.609375
442,-0.0061035156,-0.9187622,0.33026123,0.515625,-0.140625,0.5625
443,0.0,-0.9348755,0.3283081,0.46875,-0.453125,-0.1875
444,0.0031738281,-0.9380493,0.33294678,0.671875,-0.375,0.109375
445,0.0056152344,-0.92388916,0.34954834,1.390625,-0.15625,-0.28125
446,0.0031738281,-0.9434204,0.31585693,-1.234375,-0.734375,0.34375
447,0.0043945312,-0.9221802,0.3366089,1.0,-0.578125,0.203125
448,0.010253906,-0.9338989,0.34246826,1.3125,-1.109375,0.046875
449,-0.00024414062,-0.9348755,0.33050537,0.28125,-0.5,0.25
450,0.00390625,-0.93585205,0.31243896,-0.078125,-0.59375,0.453125
451,0.004638672,-0.94366455,0.33636475,-0.109375,0.546875,0.40625
452,-0.0061035156,-0.9483032,0.34783936,0.03125,1.1875,0.671875
453,0.0026855469,-0.9312134,0.33514404,-3.171875,-0.53125,0.453125
454,-0.001953125,-0.9404907,0.36151123,-0.234375,0.8125,0.078125
455,0.010498047,-0.94122314,0.34710693,-1.234375,1.296875,0.984375
456,-0.0012207031,-0.92633057,0.34222412,-1.296875,0.296875,0.53125
457,0.007080078,-0.92852783,0.3456421,-1.03125,0.171875,-0.28125
458,0.009033203,-0.92803955,0.34368896,-0.203125,0.765625,1.375
459,-0.0021972656,-0.91900635,0.3348999,-0.765625,1.0625,0.609375
460,0.007080078,-0.91729736,0.34783936,0.671875,0.828125,0.53125
461,-0.0007324219,-0.90875244,0.3444214,1.015625,0.203125,1.25
462,0.0075683594,-0.91729736,0.34979248,3.84375,0.53125,0.265625
463,0.019042969,-0.9439087,0.33709717,2.9375,-0.71875,0.234375
464,0.012451172,-0.92437744,0.33514404,2.015625,-1.25,0.359375
465,0.015380859,-0.93536377,0.33343506,2.046875,-1.515625,-0.046875
466,0.009765625,-0.94073486,0.32000732,1.234375,-1.703125,0.171875
467,0.0043945312,-0.93218994,0.32781982,1.5,-0.8125,0.1875
468,0.010986328,-0.93463135,0.3258667,1.4375,-1.328125,0.09375
469,0.0075683594,-0.93927,0.33099365,1.828125,-1.421875,0.3125
470,0.010009766,-0.93414307,0.3312378,0.296875,-0.609375,-0.109375
471,0.0024414062,-0.9343872,0.33270264,0.203125,-1.171875,0.078125
472,0.0078125,-0.9314575,0.33099365,0.34375,-0.5,-0.0625
473,0.0063476562,-0.9324341,0.32733154,0.90625,-0.734375,0.125
474,0.0053710938,-0.92852783,0.3348999,0.765625,-1.0625,0.1875
475,0.0068359375,-0.93536377,0.33270264,0.296875,-0.78125,0.28125
476,0.0053710938,-0.93707275,0.3307495,0.359375,-0.625,0.15625
477,0.0029296875,-0.9421997,0.32537842,1.015625,-0.421875,0.375
478,0.00390625,-0.92437744,0.32757568,0.5,-0.265625,0.109375
479,0.0073242188,-0.9390259,0.3209839,-0.328125,-0.234375,0.375
480,0.0007324219,-0.9365845,0.3270874,0.15625,-0.625,0.171875
481,0.0107421875,-0.9429321,0.33538818,1.078125,-1.078125,0.0625
482,0.0029296875,-0.93096924,0.32635498,-1.046875,-0.359375,0.484375
483,0.009033203,-0.927063,0.32757568,-0.375,-0.109375,0.515625
484,0.010253906,-0.927063,0.32025146,-0.703125,-0.40625,0.515625
485,0.006591797,-0.93170166,0.33538818,0.125,-0.625,0.015625
486,0.01171875,-0.95806885,0.34197998,-2.796875,-0.484375,0.515625
487,0.0075683594,-0.92974854,0.34661865,-2.59375,-0.078125,0.484375
488,0.008056641,-0.923645,0.35076904,-2.1875,0.171875,0.84375
489,0.0024414062,-0.9151001,0.34197998,-2.53125,0.015625,0.453125
490,0.0029296875,-0.9265747,0.34539795,-2.875,-1.734375,0.40625
491,0.0017089844,-0.9182739,0.35809326,-1.609375,-0.890625,0.9375
492,0.004638672,-0.92144775,0.34710693,0.171875,-0.21875,0.1875
493,0.013183594,-0.9175415,0.3493042,0.921875,-0.59375,0.21875
494,0.01928711,-0.91778564,0.355896,1.6875,-0.9375,0.28125
495,0.023925781,-0.9277954,0.36151123,2.796875,-1.09375,-0.375
496,0.014160156,-0.93096924,0.34002686,0.671875,-0.703125,0.171875
497,0.009765625,-0.9260864,0.3546753,1.703125,-1.296875,0.234375
498,0.010253906,-0.927063,0.34075928,0.84375,-0.65625,0.015625
499,-0.00024414062,-0.92510986,0.34661865,1.984375,0.140625,-0.03125
500,0.005126953,-0.925354,0.34466553,2.25,-0.484375,0.0
501,0.00048828125,-0.92193604,0.34295654,2.9375,-0.875,0.03125
502,0.0024414062,-0.9338989,0.34881592,2.875,-0.765625,0.25
503,0.01586914,-0.9260864,0.3204956,-1.921875,-1.328125,-0.015625
504,0.0026855469,-0.9331665,0.34857178,0.6875,-0.453125,0.015625
505,0.0078125,-0.9319458,0.3307495,0.0625,-1.140625,0.125
506,0.012207031,-0.9299927,0.3295288,0.84375,0.15625,0.28125
507,0.009521484,-0.9290161,0.33953857,0.75,-0.375,0.21875
508,0.0007324219,-0.93170166,0.34100342,0.40625,-0.8125,0.40625
509,0.004638672,-0.9319458,0.33953857,-0.640625,-0.359375,0.5625
510,-0.0007324219,-0.9258423,0.3468628,0.890625,-0.4375,0.28125
511,0.010498047,-0.9326782,0.32562256,-0.890625,-0.59375,0.46875
512,0.0126953125,-0.9248657,0.3534546,2.171875,0.421875,0.515625
513,0.0107421875,-0.92315674,0.3241577,-2.953125,-0.390625,0.953125
514,-0.0017089844,-0.9212036,0.35906982,3.109375,0.109375,0.65625
515,0.011962891,-0.94317627,0.33416748,-0.34375,-0.625,0.71875
516,0.010009766,-0.9307251,0.338562,0.828125,0.25,0.625
517,0.012207031,-0.9351196,0.34197998,-0.34375,-0.328125,0.421875
518,0.0146484375,-0.9314575,0.3361206,0.421875,-0.515625,0.546875
519,0.01953125,-0.9248657,0.34197998,0.5625,-0.890625,0.09375
520,0.018066406,-0.9224243,0.32904053,-1.46875,-0.328125,0.6875
521,0.013916016,-0.9324341,0.3480835,0.53125,-0.703125,0.40625
522,0.013183594,-0.9348755,0.3439331,0.375,-0.921875,0.640625
523,0.008300781,-0.92681885,0.34173584,0.25,0.3125,0.46875
524,0.0087890625,-0.9260864,0.34368896,0.59375,0.046875,0.46875
525,0.010009766,-0.9290161,0.34246826,0.1875,0.40625,0.234375
526,0.008544922,-0.92974854,0.34832764,1.015625,0.25,0.25
527,0.013183594,-0.92803955,0.3451538,0.0625,-0.453125,0.5625
528,0.010986328,-0.9229126,0.35101318,0.671875,-0.46875,-0.0625
529,0.021484375,-0.93292236,0.32928467,-1.625,-1.765625,0.890625
530,0.037597656,-0.9273071,0.35369873,1.84375,-0.40625,1.671875
531,0.021972656,-0.93292236,0.3151245,-2.109375,-1.359375,1.75
532,0.0107421875,-0.9175415,0.35101318,1.34375,-1.921875,1.421875
533,0.017089844,-0.9421997,0.3373413,-0.671875,-1.890625,1.3125
534,0.010253906,-0.9143677,0.3373413,-1.0625,-0.609375,1.3125
535,0.01586914,-0.9224243,0.3534546,-0.03125,-0.578125,0.4375
536,0.03173828,-0.93414307,0.34368896,-0.4375,-1.296875,0.109375
537,0.032470703,-0.93170166,0.35736084,1.484375,-0.828125,-0.75
538,0.037597656,-0.9277954,0.3373413,-2.046875,-1.078125,-0.125
539,0.022705078,-0.9180298,0.35028076,0.46875,-0.90625,-0.546875
540,0.02319336,-0.92681885,0.34906006,0.09375,-1.390625,0.15625
541,0.01171875,-0.9229126,0.34979248,1.546875,0.140625,-0.171875
542,0.007080078,-0.9302368,0.34295654,0.015625,-0.78125,0.03125
543,0.009521484,-0.92852783,0.34124756,0.171875,-0.640625,0.0
544,0.017822266,-0.93536377,0.35003662,0.609375,-0.421875,-0.390625
545,0.022705078,-0.9224243,0.34100342,0.328125,-0.359375,-0.109375
546,0.018066406,-0.92193604,0.34320068,0.578125,-0.703125,-0.265625
547,0.020019531,-0.9209595,0.35125732,0.0,-1.09375,0.09375
548,0.01171875,-0.9246216,0.338562,-1.265625,-1.3125,0.578125
549,0.014892578,-0.9221802,0.36053467,1.34375,-0.5625,0.703125
550,0.01977539,-0.9212036,0.324646,-2.09375,-0.484375,0.53125
551,0.012451172,-0.93707275,0.36444092,2.546875,-0.125,0.34375
552,0.020263672,-0.92974854,0.35150146,-0.71875,-0.59375,0.828125
553,0.026611328,-0.91290283,0.33636475,-0.84375,-0.296875,0.921875
554,0.029541016,-0.9299927,0.35443115,0.5625,-0.75,0.8125
555,0.017578125,-0.9290161,0.3505249,0.3125,-1.21875,0.90625
556,0.026123047,-0.9234009,0.3571167,1.046875,-1.71875,0.09375
557,0.02758789,-0.9326782,0.34735107,-1.328125,-1.765625,0.421875
558,0.03173828,-0.9258423,0.34979248,-0.078125,-1.6875,-0.078125
559,0.022949219,-0.92071533,0.35906982,-0.234375,-2.296875,0.140625
560,0.012207031,-0.92315674,0.35565186,0.703125,-1.203125,0.265625
561,0.0056152344,-0.9273071,0.35491943,0.046875,-0.75,0.546875
562,0.0056152344,-0.9229126,0.3600464,0.328125,-0.8125,0.25
563,0.010986328,-0.9260864,0.3522339,-0.34375,-0.171875,0.375
564,0.019042969,-0.9155884,0.3522339,0.484375,0.0,0.09375
565,0.018310547,-0.9224243,0.3619995,0.453125,-0.1875,0.078125
566,0.028808594,-0.9319458,0.35906982,0.515625,-0.359375,0.0625
567,0.02368164,-0.9109497,0.35101318,-0.921875,-0.921875,0.5625
568,0.02319336,-0.9299927,0.36419678,0.953125,-0.734375,0.59375
569,0.020507812,-0.92633057,0.33880615,-1.546875,-0.765625,0.71875
570,0.01586914,-0.9216919,0.36273193,1.625,-0.90625,0.234375
571,0.016357422,-0.9312134,0.3522339,-0.0625,-0.828125,0.359375
572,0.01977539,-0.9199829,0.3607788,0.34375,-0.234375,0.296875
573,0.02368164,-0.9265747,0.35491943,0.109375,-0.59375,0.1875
574,0.0146484375,-0.92803955,0.3517456,0.46875,-0.34375,0.40625
575,0.018554688,-0.92926025,0.36273193,1.390625,-0.046875,0.46875
576,0.018066406,-0.91900635,0.3534546,-0.4375,-0.078125,0.015625
577,0.024658203,-0.92852783,0.36395264,0.5,-0.46875,-0.03125
578,0.020751953,-0.92755127,0.3529663,-0.203125,-0.984375,0.546875
579,0.022216797,-0.9180298,0.3522339,0.265625,-0.640625,0.0625
580,0.01953125,-0.9224243,0.36053467,-0.140625,-0.828125,0.609375
581,0.020507812,-0.91900635,0.36273193,0.453125,-1.015625,0.390625
582,0.016845703,-0.9336548,0.35858154,0.328125,-0.734375,0.078125
583,0.01586914,-0.9307251,0.36541748,0.921875,-0.28125,-0.1875
584,0.024414062,-0.9104614,0.36346436,0.8125,-0.015625,0.046875
585,0.017089844,-0.928772,0.35150146,0.234375,-0.4375,-0.03125
586,0.026855469,-0.92681885,0.3678589,1.796875,-0.5,0.21875
587,0.017333984,-0.91363525,0.33050537,-0.96875,-0.328125,0.484375
588,0.017089844,-0.9187622,0.36053467,1.234375,-0.796875,-0.671875
589,0.030761719,-0.9417114,0.35784912,-0.3125,-1.0,-0.171875
590,0.013671875,-0.92437744,0.3522339,-0.4375,0.921875,0.359375
591,0.01977539,-0.92974854,0.3673706,0.125,-0.21875,-0.203125
592,0.029785156,-0.93170166,0.36224365,-0.5625,0.328125,0.5
593,0.0146484375,-0.92974854,0.36712646,0.96875,0.5625,0.28125
594,0.0107421875,-0.9229126,0.34906006,-2.234375,0.078125,0.5
595,0.014160156,-0.92437744,0.36590576,0.5,1.75,0.0625
596,0.022216797,-0.92510986,0.37078857,0.1875,0.96875,0.1875
597,0.022216797,-0.9170532,0.36639404,-0.59375,1.484375,0.46875
598,0.02368164,-0.92510986,0.3710327,0.75,1.359375,0.109375
599,0.034423828,-0.91607666,0.36468506,0.328125,1.46875,0.71875
600,0.023925781,-0.9338989,0.35809326,0.28125,0.859375,-0.203125
601,0.029785156,-0.9378052,0.36444092,-1.0625,0.96875,0.40625
602,0.029541016,-0.9019165,0.35882568,0.703125,3.421875,1.25
603,0.020507812,-0.9277954,0.36468506,1.421875,1.75,-0.640625
604,0.03173828,-0.9053345,0.36151123,-2.359375,0.5,-0.375
605,0.044189453,-0.92022705,0.3768921,3.625,2.78125,-1.390625
606,0.036376953,-0.9348755,0.3632202,-0.71875,0.171875,-0.3125
607,0.03857422,-0.9065552,0.35980225,0.515625,0.375,0.921875
608,0.017578125,-0.91070557,0.35321045,1.578125,0.390625,0.171875
609,0.018310547,-0.92071533,0.34661865,2.046875,0.046875,0.609375
610,0.017089844,-0.92852783,0.3522339,3.0,0.578125,0.0625
611,0.029541016,-0.91973877,0.35760498,2.5,0.078125,-0.140625
612,0.03930664,-0.9221802,0.33807373,0.96875,-0.84375,0.625
613,0.030517578,-0.9209595,0.3493042,0.828125,-1.078125,0.234375
614,0.02734375,-0.93341064,0.34320068,0.59375,-1.453125,0.5
615,0.024658203,-0.92437744,0.34246826,1.375,-0.359375,0.5625
616,0.036376953,-0.92510986,0.35247803,1.078125,-1.015625,-0.21875
617,0.036621094,-0.9241333,0.35003662,1.65625,-0.765625,0.1875
618,0.037841797,-0.93585205,0.34075928,1.0625,-1.0,-0.109375
619,0.033935547,-0.93096924,0.34295654,1.046875,-0.609375,0.1875
620,0.032470703,-0.9295044,0.338562,1.859375,-1.015625,0.203125
621,0.017089844,-0.90802,0.33563232,0.09375,-0.84375,0.484375
622,0.029296875,-0.9324341,0.3475952,1.25,-1.875,-1.203125
623,0.037841797,-0.96099854,0.338562,-0.640625,-2.109375,-0.03125
624,0.029052734,-0.9155884,0.340271,2.78125,-0.375,1.21875
625,0.028808594,-0.925354,0.3287964,1.28125,-1.34375,-0.234375
626,0.032714844,-0.9495239,0.33758545,0.109375,-1.5,0.53125
627,0.024414062,-0.92633057,0.33148193,0.8125,-0.078125,0.671875
628,0.017822266,-0.93463135,0.3463745,0.234375,-0.78125,0.203125
629,0.02709961,-0.93218994,0.32855225,1.375,-0.328125,0.828125
630,0.031982422,-0.92755127,0.31414795,-0.734375,-0.28125,-0.234375
631,0.040283203,-0.9414673,0.34954834,1.453125,-0.640625,0.015625
632,0.033447266,-0.93756104,0.3283081,-0.34375,-0.5625,0.59375
633,0.032958984,-0.92266846,0.33221436,-0.171875,-1.484375,0.46875
634,0.02758789,-0.92755127,0.33538818,0.28125,-1.578125,0.65625
635,0.018554688,-0.92510986,0.340271,0.34375,-1.734375,0.125
636,0.01953125,-0.9348755,0.34100342,-0.421875,-1.46875,0.078125
637,0.030517578,-0.925354,0.34588623,0.515625,-0.625,-0.046875
638,0.02734375,-0.93585205,0.32537842,-1.40625,-0.703125,0.203125
639,0.030029297,-0.9187622,0.354187,2.59375,0.0625,-0.015625
640,0.033447266,-0.9336548,0.31756592,-1.75,-0.9375,0.0625
641,0.030273438,-0.92803955,0.34539795,1.6875,-1.1875,0.375
642,0.030761719,-0.94195557,0.32977295,-0.6875,-1.84375,0.40625
643,0.025146484,-0.91412354,0.33441162,1.1875,-0.4375,0.40625
644,0.020996094,-0.925354,0.3427124,0.0,-2.359375,-0.125
645,0.02758789,-0.94781494,0.33392334,-1.5625,-2.75,-0.21875
646,0.02734375,-0.9192505,0.3427124,0.890625,-1.515625,-0.296875
647,0.009765625,-0.9248657,0.33807373,-0.953125,-1.65625,-0.5625
648,0.024414062,-0.9295044,0.34051514,-0.328125,-1.421875,-0.984375
649,0.010253906,-0.9282837,0.35003662,0.078125,-1.234375,-0.78125
650,0.008544922,-0.93096924,0.3444214,1.015625,0.3125,-0.75
651,0.0009765625,-0.93218994,0.3439331,-0.203125,0.484375,-0.046875
652,0.009033203,-0.93218994,0.3312378,0.125,1.140625,-0.671875
653,0.012207031,-0.9290161,0.3444214,1.671875,1.734375,-0.765625
654,0.015136719,-0.92315674,0.3378296,-0.15625,0.515625,-0.640625
655,0.018310547,-0.9307251,0.33050537,1.671875,0.046875,-1.109375
656,0.018554688,-0.92681885,0.34417725,0.4375,-0.40625,-1.96875
657,0.026855469,-0.954895,0.35028076,1.875,-0.09375,-0.46875
658,0.020751953,-0.9146118,0.33538818,-0.859375,0.125,-0.015625
659,0.03125,-0.93341064,0.3414917,2.140625,-1.125,0.234375
660,0.020019531,-0.93218994,0.324646,-0.8125,-1.3125,0.96875
661,0.012939453,-0.9295044,0.33538818,0.875,-0.71875,1.1875
662,0.00390625,-0.9302368,0.34100342,0.546875,-1.25,0.828125
663,0.00390625,-0.92633057,0.3373413,-0.15625,-1.921875,0.96875
664,0.010009766,-0.93048096,0.33685303,0.625,-1.90625,0.859375
665,0.0061035156,-0.9295044,0.33441162,-1.453125,-1.921875,0.3125
666,0.014892578,-0.9338989,0.33807373,-0.71875,-1.625,0.625
667,0.014160156,-0.93878174,0.3336792,-0.6875,-1.296875,0.8125
668,0.0021972656,-0.92633057,0.34490967,-0.78125,-1.109375,0.421875
669,-0.0024414062,-0.944397,0.35906982,0.96875,-1.828125,0.125
670,-0.016845703,-0.92071533,0.33416748,-1.71875,-0.703125,-0.484375
671,0.0041503906,-0.9180298,0.34539795,0.953125,2.1875,-0.84375
672,0.04248047,-0.9356079,0.36224365,1.40625,1.734375,-0.609375
673,0.05078125,-0.9302368,0.34710693,-1.296875,0.171875,0.125
674,0.045654297,-0.9187622,0.35198975,0.328125,-0.84375,-0.078125
675,0.037597656,-0.93341064,0.33392334,-1.4375,-2.0,0.9375
676,0.010986328,-0.92266846,0.35198975,-0.03125,-2.78125,0.890625
677,0.007080078,-0.9319458,0.35931396,1.4375,-2.9375,0.859375
678,-0.0012207031,-0.9302368,0.34735107,-0.890625,-1.40625,0.75
679,-0.0036621094,-0.9277954,0.3534546,0.53125,-1.0,0.328125
680,-0.00048828125,-0.9319458,0.35076904,-0.078125,-0.890625,0.171875
681,-0.0009765625,-0.91973877,0.35491943,0.765625,-1.171875,-0.171875
682,0.0078125,-0.9312134,0.3414917,-0.21875,-0.125,0.34375
683,0.011474609,-0.92559814,0.35784912,0.75,0.0,0.125
684,0.014160156,-0.9314575,0.35882568,0.71875,-0.890625,0.203125
685,0.01928711,-0.92559814,0.34783936,0.421875,-0.71875,0.625
686,0.020507812,-0.9241333,0.34661865,0.71875,-0.875,0.546875
687,0.010253906,-0.91973877,0.3475952,0.53125,-1.046875,0.453125
688,0.010009766,-0.9229126,0.34906006,0.796875,-1.328125,0.453125
689,0.0048828125,-0.9385376,0.3607788,0.453125,-1.71875,-0.21875
690,0.0073242188,-0.93536377,0.3475952,-0.328125,-1.53125,0.5
691,0.008544922,-0.92437744,0.3397827,0.109375,-0.828125,0.328125
692,0.010498047,-0.9104614,0.3637085,1.53125,-0.59375,-0.203125
693,0.013671875,-0.94073486,0.34173584,-0.921875,-1.203125,0.203125
694,0.012207031,-0.9194946,0.35198975,0.8125,-1.125,-0.078125
695,0.020019531,-0.942688,0.35980225,1.84375,-1.453125,0.09375
696,0.011474609,-0.9299927,0.33636475,0.34375,-0.6875,0.359375
697,0.0075683594,-0.9246216,0.3444214,1.53125,-0.515625,0.171875
698,0.009277344,-0.92852783,0.34344482,0.75,-1.265625,0.265625
699,0.0087890625,-0.927063,0.34979248,1.328125,-1.328125,-0.140625
700,0.0075683594,-0.93048096,0.34320068,-0.3125,-0.875,0.171875
701,0.00390625,-0.923645,0.35809326,1.25,-0.359375,0.0625
702,0.00390625,-0.92926025,0.35931396,1.0,-0.78125,-0.421875
703,0.011230469,-0.9290161,0.33953857,0.921875,-0.90625,-0.203125
704,0.010498047,-0.9260864,0.33880615,1.46875,-0.78125,-0.46875
705,0.009765625,-0.9299927,0.34295654,1.140625,-0.90625,-0.421875
706,0.0026855469,-0.92315674,0.33953857,0.640625,-1.390625,-0.390625
707,-0.0012207031,-0.93170166,0.34344482,1.328125,-0.75,-0.359375
708,-0.004638672,-0.9209595,0.34124756,0.5,-1.0,-0.09375
709,-0.0034179688,-0.92852783,0.33172607,-0.65625,-0.984375,0.15625
710,-0.00024414062,-0.9224243,0.35125732,2.140625,0.03125,-0.09375
711,-0.0043945312,-0.92852783,0.3204956,-1.921875,-0.171875,-0.15625
712,-0.005859375,-0.92559814,0.35565186,1.875,-0.46875,-0.390625
713,0.0048828125,-0.93292236,0.33807373,1.1875,-0.765625,-0.765625
714,0.0068359375,-0.92755127,0.33294678,0.265625,-0.21875,-0.21875
715,0.0041503906,-0.9324341,0.3390503,1.265625,-0.6875,-0.3125
716,-0.0043945312,-0.9324341,0.32635498,0.21875,-1.828125,-0.1875
717,-0.010009766,-0.9343872,0.33685303,1.28125,-0.890625,-0.109375
718,-0.0087890625,-0.92510986,0.3324585,-0.140625,-0.15625,-0.421875
719,-0.008056641,-0.9295044,0.3468628,0.234375,0.546875,-0.25
720,-0.013671875,-0.9260864,0.35003662,0.59375,0.796875,-0.078125
721,-0.0007324219,-0.92852783,0.34417725,0.21875,0.078125,-0.328125
722,0.0041503906,-0.93878174,0.33929443,0.65625,-0.0625,0.421875
723,-0.0009765625,-0.93463135,0.34368896,1.078125,-0.1875,0.734375
724,-0.0017089844,-0.92266846,0.34100342,1.171875,0.21875,0.8125
725,-0.008544922,-0.92974854,0.33099365,0.734375,-0.609375,0.421875
726,0.0009765625,-0.9246216,0.33343506,0.828125,-1.25,0.015625
727,-0.0041503906,-0.9246216,0.33050537,0.03125,-1.171875,-0.03125
728,0.0029296875,-0.940979,0.338562,1.078125,-1.6875,0.046875
729,0.00048828125,-0.928772,0.324646,-1.046875,-1.328125,0.453125
730,-0.011474609,-0.9356079,0.35003662,2.3125,-1.421875,0.078125
731,-0.008544922,-0.93634033,0.3366089,-0.15625,-1.140625,0.03125
732,-0.009277344,-0.9314575,0.33099365,0.84375,-0.5,0.625
733,-0.014892578,-0.9302368,0.33026123,0.125,-1.046875,-0.015625
734,-0.0126953125,-0.9260864,0.3295288,0.9375,-0.984375,-0.390625
735,-0.012939453,-0.93096924,0.33026123,0.046875,-0.59375,0.265625
736,-0.0029296875,-0.93048096,0.33026123,-0.1875,-0.34375,0.1875
737,-0.00390625,-0.93536377,0.34051514,-0.109375,-1.125,0.171875
738,-0.0063476562,-0.9385376,0.34051514,-0.203125,-0.9375,0.375
739,-0.009765625,-0.9212036,0.33221436,0.046875,-0.546875,0.828125
740,-0.016113281,-0.93170166,0.340271,0.9375,-0.71875,0.5625
741,-0.020019531,-0.9299927,0.34002686,0.953125,-0.78125,0.375
742,-0.013427734,-0.9365845,0.3319702,1.796875,-0.828125,0.265625
743,-0.010253906,-0.92755127,0.32733154,0.703125,0.21875,0.0
744,-0.009277344,-0.925354,0.3258667,-0.328125,0.234375,0.46875
745,-0.011962891,-0.92071533,0.3529663,3.171875,0.5,-0.375
746,0.0009765625,-0.9290161,0.32269287,-1.125,-0.234375,-0.265625
747,-0.010009766,-0.93829346,0.3378296,3.265625,0.0,0.125
748,0.0063476562,-0.94610596,0.3295288,0.890625,-0.953125,0.296875
749,-0.0048828125,-0.93341064,0.31365967,-0.296875,-0.40625,0.015625
750,-0.006591797,-0.93170166,0.32244873,0.296875,-1.25,0.21875
751,-0.015136719,-0.9351196,0.32196045,-0.53125,-1.453125,0.234375
752,-0.009521484,-0.9343872,0.33758545,0.28125,-0.75,0.640625
753,-0.0043945312,-0.92681885,0.3217163,-1.859375,-1.03125,0.375
754,-0.00390625,-0.93218994,0.3427124,0.171875,-0.140625,0.5625
755,-0.00048828125,-0.92755127,0.33465576,-0.734375,-0.78125,0.78125
756,-0.0024414062,-0.928772,0.3234253,-0.34375,-1.765625,0.140625
757,-0.007080078,-0.9299927,0.34197998,0.109375,-0.875,0.859375
758,-0.0034179688,-0.92852783,0.33831787,0.125,-1.4375,0.578125
759,-0.0007324219,-0.9273071,0.3414917,-0.15625,-1.453125,1.03125
