sample_no,accel_x,accel_y,accel_z,gyro_x,gyro_y,gyro_z
0,-0.96069336,0.014587402,-0.35308838,-3.703125,-0.515625,0.234375
1,-0.96313477,-0.0017700195,-0.37139893,-2.171875,1.1875,-0.140625
2,-0.9760742,-0.020568848,-0.36212158,-2.203125,5.390625,-0.6875
3,-0.9655762,-6.1035156e-05,-0.33599854,1.078125,7.390625,-0.5
4,-0.9650879,0.04046631,-0.34429932,1.28125,5.078125,1.203125
5,-0.97021484,0.011657715,-0.30743408,2.78125,2.65625,2.0
6,-0.9343262,-0.035217285,-0.37677002,-1.28125,3.453125,0.796875
7,-0.9831543,-0.0071411133,-0.3242798,-0.390625,0.359375,1.0625
8,-0.9729004,-0.0068969727,-0.32476807,0.3125,0.328125,1.34375
9,-0.9584961,0.0006713867,-0.33721924,0.53125,-1.21875,1.015625
10,-0.9753418,-0.018127441,-0.3406372,-0.84375,-2.03125,0.625
11,-0.97265625,-0.009094238,-0.31939697,0.75,-3.03125,1.40625
12,-0.9897461,-0.0256958,-0.31939697,1.53125,-2.5,3.84375
13,-0.9604492,-0.004211426,-0.3711548,-5.9375,-0.546875,1.609375
14,-0.9121094,-0.034240723,-0.33184814,-0.59375,-0.03125,-0.78125
15,-0.9621582,-0.03643799,-0.30523682,-2.84375,-2.6875,1.484375
16,-0.9758301,-0.028625488,-0.37457275,-7.453125,-3.6875,0.625
17,-0.95336914,-0.020568848,-0.38043213,-4.28125,-2.25,-0.140625
18,-0.9501953,-0.020080566,-0.3399048,-3.078125,-2.328125,-0.75
19,-0.93481445,-0.01373291,-0.3711548,-5.40625,-1.015625,-1.34375
20,-0.9350586,-0.043029785,-0.36968994,-4.8125,2.625,-1.796875
21,-0.9523926,-0.025939941,-0.33111572,1.0,1.90625,-0.890625
22,-0.95825195,-0.03326416,-0.36627197,-0.8125,-1.296875,-0.765625
23,-0.95703125,-0.024475098,-0.38946533,-3.5,1.6875,-1.640625
24,-0.9472656,-0.051086426,-0.3255005,0.515625,4.59375,-2.484375
25,-0.9428711,-0.009338379,-0.32208252,2.421875,2.1875,-0.84375
26,-0.9892578,-0.04473877,-0.3665161,-0.234375,-0.203125,-0.671875
27,-0.96240234,-0.012268066,-0.32452393,0.90625,1.3125,-0.6875
28,-0.97387695,-0.016662598,-0.34649658,0.0625,0.8125,-0.203125
29,-0.9626465,-0.022521973,-0.3496704,-0.328125,0.78125,-0.578125
30,-0.9602051,-0.029846191,-0.33917236,-0.53125,0.609375,-0.34375
31,-0.95214844,-0.016174316,-0.33843994,-1.328125,0.578125,-0.78125
32,-0.9680176,-0.0178833,-0.35821533,-1.328125,1.0,-0.1875
33,-0.9694824,-0.035461426,-0.33770752,-1.8125,1.265625,-0.640625
34,-0.96313477,-0.018371582,-0.34161377,-1.078125,0.96875,-0.203125
35,-0.9682617,-0.022033691,-0.33721924,-1.203125,1.640625,-0.375
36,-0.9609375,-0.017150879,-0.3328247,-0.203125,1.109375,-0.15625
37,-0.9729004,-0.013977051,-0.34381104,-1.296875,1.046875,-0.015625
38,-0.96606445,-0.02130127,-0.33868408,-0.875,0.984375,-0.34375
39,-0.96313477,-0.018615723,-0.33673096,-1.046875,0.796875,-0.078125
40,-0.9650879,-0.03253174,-0.33624268,-0.75,1.046875,-0.640625
41,-0.96240234,-0.020812988,-0.33135986,-1.078125,0.921875,-0.59375
42,-0.9680176,-0.016662598,-0.3242798,-0.3125,0.421875,-0.203125
43,-0.9650879,-0.013977051,-0.32403564,-0.59375,0.5,-0.359375
44,-0.9692383,-0.031555176,-0.33770752,-1.921875,1.125,-0.890625
45,-0.97094727,-0.020812988,-0.3201294,-0.09375,0.328125,-0.453125
46,-0.97436523,-0.017150879,-0.32647705,-0.671875,-0.234375,-0.234375
47,-0.96972656,-0.02545166,-0.33551025,-0.765625,-0.109375,-0.375
48,-0.9729004,-0.019592285,-0.31329346,0.171875,0.390625,-0.15625
49,-0.97094727,-0.024963379,-0.3399048,-2.234375,1.03125,-0.4375
50,-0.97094727,-0.01739502,-0.32574463,-0.65625,1.5,-1.171875
51,-0.9729004,-0.012268066,-0.31695557,-0.5625,1.390625,-0.4375
52,-0.97216797,-0.016174316,-0.32965088,-0.671875,1.203125,-0.265625
53,-0.9760742,-0.012756348,-0.32305908,-0.21875,0.515625,-0.03125
54,-0.96484375,-0.016906738,-0.32183838,-1.109375,1.171875,-0.15625
55,-0.96850586,-0.015686035,-0.31378174,0.0625,0.6875,-0.171875
56,-0.9753418,-0.028625488,-0.31549072,-0.515625,0.796875,0.046875
57,-0.9680176,-0.023742676,-0.31988525,-0.546875,0.765625,-0.46875
58,-0.9770508,-0.022766113,-0.31378174,-0.578125,0.703125,-0.140625
59,-0.97631836,-0.015930176,-0.32159424,-0.671875,0.3125,-0.03125
60,-0.9719238,-0.012512207,-0.3135376,-0.421875,0.453125,-0.015625
61,-0.9716797,-0.022521973,-0.3201294,-0.84375,0.328125,-0.046875
62,-0.9777832,-0.026916504,-0.30743408,-0.15625,0.3125,-0.109375
63,-0.97094727,-0.015930176,-0.32965088,-0.890625,-0.25,-0.421875
64,-0.9711914,-0.02935791,-0.32037354,-1.21875,0.609375,-0.546875
65,-0.96728516,-0.018615723,-0.31866455,-1.0,1.265625,-0.578125
66,-0.97558594,-0.022033691,-0.3118286,-0.09375,0.734375,-0.390625
67,-0.9716797,-0.019104004,-0.31671143,-0.984375,0.359375,-0.28125
68,-0.9753418,-0.023742676,-0.31524658,-0.46875,1.15625,-0.40625
69,-0.9680176,-0.014709473,-0.31695557,-0.6875,0.8125,-0.3125
70,-0.9760742,-0.01763916,-0.31573486,-1.265625,1.8125,-0.5625
71,-0.9650879,-0.013000488,-0.3086548,-0.453125,1.21875,-0.78125
72,-0.97216797,-0.012023926,-0.31256104,-0.90625,1.40625,0.140625
73,-0.9733887,-0.027648926,-0.31524658,-1.828125,0.453125,-1.34375
74,-0.9719238,-0.016174316,-0.29278564,0.28125,-0.109375,-1.03125
75,-0.98828125,-0.0154418945,-0.300354,-1.28125,-0.984375,0.21875
76,-0.96875,-0.014709473,-0.3237915,-1.203125,-0.78125,-0.234375
77,-0.97558594,-0.0154418945,-0.31915283,-0.53125,0.515625,-0.34375
78,-0.97509766,-0.017150879,-0.30963135,-0.828125,0.28125,-0.34375
79,-0.9719238,-0.016418457,-0.31671143,-0.875,0.34375,-0.15625
80,-0.97509766,-0.0256958,-0.30914307,-0.3125,0.8125,-0.46875
81,-0.9733887,-0.011291504,-0.31304932,-0.25,0.421875,-0.15625
82,-0.9733887,-0.012023926,-0.30352783,-0.921875,-0.484375,-0.078125
83,-0.9770508,-0.013244629,-0.31524658,-0.28125,-0.015625,-0.109375
84,-0.9777832,-0.0134887695,-0.31500244,-1.40625,0.71875,-0.1875
85,-0.9658203,-0.022766113,-0.32818604,-0.6875,1.15625,-0.546875
86,-0.9758301,-0.012023926,-0.33551025,0.234375,-1.390625,0.0
87,-0.9733887,-0.015930176,-0.30645752,0.0625,-2.859375,-0.921875
88,-0.9724121,-0.016906738,-0.30133057,-0.609375,0.359375,-0.484375
89,-0.97314453,-0.012268066,-0.31207275,-0.265625,0.3125,-0.34375
90,-0.96533203,-0.009094238,-0.3057251,0.234375,-0.578125,-0.140625
91,-0.96728516,-0.02130127,-0.32354736,-1.203125,0.78125,-0.515625
92,-0.9802246,-0.01763916,-0.31622314,-0.625,1.59375,-0.6875
93,-0.9746094,-0.014709473,-0.3118286,0.265625,0.328125,-0.03125
94,-0.9746094,-0.0154418945,-0.2925415,0.265625,0.203125,-0.203125
95,-0.9724121,-0.0076293945,-0.3340454,-2.484375,0.484375,-0.015625
96,-0.9719238,-0.015930176,-0.32061768,-1.265625,2.25,-1.34375
97,-0.97265625,-0.019836426,-0.3027954,-0.21875,2.65625,-0.8125
98,-0.9760742,-0.012756348,-0.2942505,0.15625,1.859375,-0.0625
99,-0.9873047,-0.007385254,-0.30914307,-0.578125,-0.25,0.171875
100,-0.9658203,-0.008361816,-0.31280518,-1.0625,0.734375,-0.0625
101,-0.9790039,-0.012512207,-0.3057251,-0.671875,0.65625,-0.171875
102,-0.9716797,-0.0017700195,-0.30645752,-0.953125,0.421875,-0.15625
103,-0.98168945,-0.01739502,-0.30499268,-0.53125,1.71875,-0.25
104,-0.97509766,-0.017150879,-0.3008423,-0.484375,0.8125,-0.359375
105,-0.98339844,-0.024230957,-0.30352783,-0.6875,0.4375,-0.046875
106,-0.9719238,-0.00982666,-0.30621338,-1.125,0.84375,-0.4375
107,-0.9848633,-0.01739502,-0.300354,-0.65625,1.53125,-0.21875
108,-0.9694824,-0.0064086914,-0.2949829,-0.15625,1.3125,-0.4375
109,-0.9807129,-0.0051879883,-0.30010986,-0.515625,0.375,-0.09375
110,-0.97924805,-0.021057129,-0.3057251,-0.359375,1.109375,-0.3125
111,-0.99560547,0.0053100586,-0.2835083,-2.484375,2.328125,1.1875
112,-0.98779297,-0.03643799,-0.32330322,-5.8125,5.328125,-0.09375
113,-0.98095703,-0.0154418945,-0.27130127,-2.203125,-0.296875,0.046875
114,-0.9785156,-0.026916504,-0.2883911,-1.3125,1.125,0.5625
115,-0.98339844,-0.0095825195,-0.2822876,0.40625,2.25,-0.453125
116,-0.9812012,-0.019104004,-0.27105713,-0.375,1.34375,-0.21875
117,-1.0009766,0.005554199,-0.31329346,0.875,1.125,-0.296875
118,-0.9633789,-0.026672363,-0.26715088,1.71875,3.546875,-1.640625
119,-0.98999023,-0.0064086914,-0.26983643,2.28125,3.234375,-0.90625
120,-0.99438477,-0.0056762695,-0.2678833,0.984375,2.046875,-0.59375
121,-0.9970703,-0.021057129,-0.26837158,0.375,1.0,-0.328125
122,-0.98828125,-0.0095825195,-0.2600708,-0.25,1.203125,-0.21875
123,-0.9885254,-0.02178955,-0.269104,-0.578125,0.0,-0.203125
124,-0.9892578,-0.01373291,-0.27008057,-0.875,-0.15625,0.046875
125,-0.98583984,-0.016418457,-0.26715088,-1.015625,0.265625,-0.171875
126,-0.98413086,-0.010559082,-0.28155518,-0.640625,0.28125,-0.375
127,-0.986084,-0.011779785,-0.2744751,0.203125,0.078125,-0.359375
128,-0.9892578,-0.013244629,-0.2695923,-0.6875,-0.59375,-0.234375
129,-0.9863281,-0.0012817383,-0.27227783,0.484375,0.171875,-0.484375
130,-0.9794922,-0.004211426,-0.2576294,0.78125,0.234375,-0.484375
131,-1.0014648,-0.026672363,-0.27056885,-0.390625,0.4375,0.09375
132,-0.98706055,-0.003967285,-0.27618408,-0.828125,2.78125,-0.640625
133,-0.9914551,-0.020324707,-0.27105713,-0.9375,2.828125,-0.484375
134,-0.98168945,-0.008605957,-0.25738525,-0.734375,0.140625,-0.71875
135,-1.0002441,-0.018859863,-0.26983643,-0.03125,0.53125,-0.078125
136,-1.0046387,-0.00982666,-0.26348877,-1.328125,0.53125,-0.234375
137,-0.984375,-0.007385254,-0.26715088,-0.53125,-1.734375,0.015625
138,-0.9921875,-0.006652832,-0.2539673,0.15625,-1.140625,0.109375
139,-0.9921875,-0.02935791,-0.26934814,-2.578125,1.171875,-0.359375
140,-0.9873047,-0.016906738,-0.25665283,-0.046875,1.046875,-0.9375
141,-0.99243164,-0.008605957,-0.2630005,-0.328125,0.125,0.28125
142,-0.9909668,-0.012512207,-0.26861572,-0.28125,0.890625,-0.234375
143,-0.9904785,-0.00030517578,-0.26031494,-0.71875,1.671875,-0.4375
144,-1.0012207,-0.0134887695,-0.26715088,-1.140625,0.703125,-0.125
145,-0.9904785,-0.0095825195,-0.25811768,-0.21875,-0.484375,0.09375
146,-0.99316406,-0.019836426,-0.2625122,-0.765625,0.46875,0.203125
147,-0.9916992,-0.003967285,-0.26690674,-0.078125,0.890625,-0.546875
148,-0.9890137,-0.018371582,-0.27716064,-0.59375,-0.09375,0.203125
149,-0.9968262,-0.01373291,-0.24884033,0.3125,0.8125,-0.234375
150,-0.98950195,-0.022033691,-0.2612915,-1.203125,1.125,-0.328125
151,-0.9953613,-0.010314941,-0.26031494,-0.171875,-0.15625,-0.078125
152,-0.9875488,-0.009338379,-0.26568604,0.0625,-1.1875,-0.046875
153,-0.9914551,-0.008605957,-0.26031494,1.03125,-2.15625,0.140625
154,-0.9836426,-0.0049438477,-0.2695923,1.1875,-3.546875,0.375
155,-0.9760742,-0.01373291,-0.26519775,1.3125,-3.25,-0.609375
156,-0.9958496,-0.0071411133,-0.26812744,0.515625,-0.921875,-0.125
157,-0.99438477,-0.011291504,-0.28570557,0.4375,-0.171875,-0.46875
158,-0.9904785,-0.0032348633,-0.2715454,0.59375,-2.25,0.0625
159,-0.9921875,-0.008605957,-0.2625122,1.671875,-1.21875,-0.1875
160,-0.9863281,-0.009094238,-0.27593994,-0.96875,0.09375,-0.140625
161,-0.9863281,-0.0044555664,-0.2756958,0.5,0.78125,-0.84375
162,-0.9824219,-0.006652832,-0.26641846,0.453125,0.203125,0.296875
163,-1.0048828,-0.011779785,-0.28741455,-1.28125,-0.28125,0.171875
164,-0.9782715,-0.012268066,-0.27618408,0.671875,-0.65625,-0.125
165,-0.9892578,-0.012268066,-0.28399658,-0.75,-0.359375,0.0625
166,-0.98828125,-0.0032348633,-0.2835083,-0.09375,-0.421875,-0.03125
167,-0.99072266,-0.005432129,-0.28131104,0.140625,-0.375,0.28125
168,-0.9824219,-0.007385254,-0.28692627,0.46875,0.046875,-0.390625
169,-0.98217773,-0.0012817383,-0.2913208,-0.09375,0.765625,-0.09375
170,-0.9873047,-0.010070801,-0.2942505,-0.5,0.765625,-0.375
171,-0.98950195,-0.0068969727,-0.28668213,-0.09375,0.390625,-0.1875
172,-0.97265625,0.0016479492,-0.2781372,-0.34375,1.109375,-0.671875
173,-0.98583984,-0.0044555664,-0.2810669,-0.59375,0.921875,-0.046875
174,-0.98706055,-0.010070801,-0.28253174,-0.46875,0.46875,-0.4375
175,-0.9880371,0.002380371,-0.2781372,-0.4375,0.453125,-0.203125
176,-0.9868164,-0.007385254,-0.286438,-0.015625,0.46875,-0.3125
177,-1.0004883,0.0004272461,-0.27960205,-0.484375,1.59375,-0.5625
178,-0.97802734,-0.0071411133,-0.28619385,-0.625,1.265625,-0.28125
179,-0.97631836,-0.0010375977,-0.26885986,1.171875,-0.578125,-0.046875
180,-0.99780273,-6.1035156e-05,-0.2925415,-1.859375,-0.609375,-0.078125
181,-0.9814453,-0.010070801,-0.2756958,-0.578125,1.1875,-0.9375
182,-0.98706055,-0.0022583008,-0.27178955,-0.609375,-0.03125,-0.09375
183,-0.99316406,-0.0037231445,-0.27886963,-1.296875,0.5,-0.15625
184,-0.9838867,0.00018310547,-0.28546143,-0.875,0.015625,-0.1875
185,-0.98779297,-0.0037231445,-0.27349854,-0.984375,0.6875,-0.0625
186,-0.9838867,-0.0010375977,-0.27496338,-0.78125,0.0625,0.03125
187,-0.99438477,-0.0010375977,-0.2774048,-0.625,0.0,0.09375
188,-0.9873047,-0.010070801,-0.27618408,-0.453125,0.109375,-0.53125
189,-0.9812012,-0.003479004,-0.27593994,-0.390625,-1.25,-0.3125
190,-0.9902344,-0.0071411133,-0.27056885,-0.796875,-2.0625,-0.484375
191,-0.97924805,-0.003967285,-0.28179932,-0.90625,-2.390625,-0.40625
192,-0.9855957,-0.0032348633,-0.28863525,-0.265625,-1.25,-0.4375
193,-0.9875488,-0.0032348633,-0.2942505,-1.1875,-0.421875,-0.28125
194,-0.9902344,-0.00592041,-0.2876587,-0.703125,0.25,-0.375
195,-0.96240234,0.01727295,-0.3147583,-3.515625,1.0625,-0.234375
196,-1.0026855,-0.0012817383,-0.2871704,-1.328125,-2.921875,-0.84375
197,-0.9880371,-0.023254395,-0.27252197,-0.484375,-1.953125,-0.734375
198,-0.9707031,0.009460449,-0.30523682,-1.0,-0.09375,0.15625
199,-0.9992676,-0.010070801,-0.28253174,0.390625,0.59375,-0.484375
200,-0.98950195,-0.0134887695,-0.2930298,-0.640625,2.1875,-0.03125
201,-0.98535156,-0.0095825195,-0.26934814,1.046875,2.90625,-0.90625
202,-0.9819336,-0.003967285,-0.27178955,0.40625,1.328125,0.875
203,-0.9963379,0.0040893555,-0.2925415,-1.640625,0.4375,0.71875
204,-0.9785156,-0.003479004,-0.2852173,-1.046875,1.46875,0.203125
205,-0.9836426,-0.0037231445,-0.26715088,-0.078125,2.015625,0.234375
206,-0.9707031,-0.003479004,-0.28009033,0.65625,0.15625,0.1875
207,-0.9926758,-0.015930176,-0.28253174,-0.40625,1.375,0.015625
208,-0.9807129,-0.012756348,-0.2793579,0.328125,0.609375,-0.421875
209,-0.9814453,-0.008605957,-0.27471924,0.78125,0.234375,-0.6875
210,-0.9807129,0.005554199,-0.28326416,-0.078125,0.46875,-0.3125
211,-0.99121094,-0.0071411133,-0.27716064,0.515625,0.09375,0.0
212,-0.9819336,0.005065918,-0.28741455,-0.375,-0.3125,-0.171875
213,-0.9958496,-0.012268066,-0.27911377,-0.828125,0.9375,-0.53125
214,-0.986084,-0.0032348633,-0.2781372,-0.171875,0.421875,-0.265625
215,-0.986084,-0.008361816,-0.27911377,-0.71875,0.03125,-0.046875
216,-0.9963379,-0.0032348633,-0.27496338,-1.109375,-0.03125,-0.09375
217,-0.9848633,0.0004272461,-0.2876587,-0.96875,0.03125,-0.15625
218,-0.9797363,-0.00030517578,-0.27008057,1.015625,-0.03125,-0.109375
219,-0.9885254,0.0053100586,-0.29107666,-0.984375,-0.03125,-0.0625
220,-0.9914551,-0.0049438477,-0.28790283,-0.515625,1.671875,-0.625
221,-0.98657227,-0.0071411133,-0.27471924,-0.109375,0.984375,-0.234375
222,-0.98950195,-0.00079345703,-0.27667236,-0.234375,0.5625,-0.125
223,-0.9777832,-0.007873535,-0.2769165,-0.34375,0.390625,-0.1875
224,-0.98657227,-0.0037231445,-0.27301025,-0.4375,0.40625,-0.109375
225,-0.9904785,-0.0037231445,-0.27301025,0.109375,-0.390625,0.0
226,-0.9897461,-0.00592041,-0.27520752,-0.40625,-0.71875,0.203125
227,-0.982666,-0.007873535,-0.27398682,0.109375,0.015625,-0.515625
228,-0.9868164,0.0040893555,-0.28009033,-0.109375,-0.09375,-0.203125
229,-0.9855957,-0.012512207,-0.2774048,-0.234375,-0.1875,-0.03125
230,-0.98583984,-0.0012817383,-0.27789307,-0.328125,-0.359375,-0.265625
231,-0.9824219,-0.0005493164,-0.28961182,-0.359375,-0.25,-0.390625
232,-0.9851074,-0.0037231445,-0.27886963,-0.453125,-0.578125,-0.21875
233,-0.98168945,0.0004272461,-0.27764893,-0.5,-0.265625,-0.328125
234,-0.9797363,0.0018920898,-0.2798462,-0.828125,0.1875,-0.125
235,-0.986084,-0.0068969727,-0.2835083,-0.84375,0.625,-0.1875
236,-0.9814453,-0.008850098,-0.26934814,0.265625,0.828125,-0.53125
237,-0.98535156,0.0026245117,-0.27716064,-0.625,-0.765625,0.0
238,-0.99609375,-0.0037231445,-0.284729,-0.53125,0.25,0.125
239,-0.9785156,-0.014221191,-0.28692627,-1.484375,1.84375,-0.609375
240,-0.97558594,-0.0029907227,-0.27960205,-0.3125,2.125,-1.328125
241,-0.9951172,0.00579834,-0.2727661,-0.3125,1.15625,0.25
242,-0.98583984,-0.0022583008,-0.27764893,-0.34375,0.9375,-0.203125
243,-0.9926758,0.0006713867,-0.27301025,-0.1875,1.328125,-0.125
244,-0.9863281,0.0021362305,-0.27227783,-0.40625,0.5,-0.09375
245,-0.98168945,0.001159668,-0.28155518,-0.421875,0.078125,-0.359375
246,-0.9916992,-0.007385254,-0.28082275,-0.765625,1.609375,-0.15625
247,-0.9904785,-0.0029907227,-0.27130127,-0.34375,1.125,-0.1875
248,-0.9807129,-0.0044555664,-0.26470947,-0.4375,0.5,-0.015625
249,-0.9980469,-0.004211426,-0.2703247,-1.0,0.515625,0.015625
250,-0.99121094,-0.0025024414,-0.28131104,-1.0625,1.59375,0.078125
251,-0.98535156,-0.0025024414,-0.28155518,0.234375,2.71875,-0.3125
252,-1.0026855,0.007751465,-0.25543213,1.0625,2.765625,0.578125
253,-0.9812012,-0.011291504,-0.26446533,-0.296875,1.90625,0.046875
254,-0.9880371,-0.009094238,-0.24664307,0.140625,1.75,-0.484375
255,-0.9916992,-0.0068969727,-0.23834229,0.0625,1.75,0.140625
256,-0.99609375,-0.0037231445,-0.25665283,0.4375,-0.109375,0.421875
257,-0.99609375,0.0026245117,-0.24810791,0.296875,0.375,0.046875
258,-0.99560547,-0.0017700195,-0.26519775,-1.609375,1.125,-0.328125
259,-0.9921875,-0.0115356445,-0.25689697,-0.796875,2.265625,-1.046875
260,-0.9953613,-0.0017700195,-0.2539673,-0.609375,0.875,0.109375
261,-1.0039062,-0.0037231445,-0.2539673,-0.53125,0.546875,-0.1875
262,-0.9875488,-6.1035156e-05,-0.24908447,0.234375,0.6875,-0.15625
263,-0.99658203,0.0014038086,-0.26446533,-0.421875,-0.015625,-0.140625
264,-0.9968262,0.0028686523,-0.25445557,1.015625,1.21875,-0.28125
265,-1.0131836,0.0040893555,-0.2420044,0.6875,1.875,0.359375
266,-0.97094727,-0.004211426,-0.237854,-0.546875,-0.359375,-0.375
267,-0.99902344,-0.009338379,-0.24420166,-0.40625,0.53125,0.171875
268,-1.0065918,-0.005432129,-0.24835205,0.046875,-0.96875,0.0625
269,-1.0039062,0.0028686523,-0.25689697,-0.78125,0.140625,-0.09375
270,-0.9868164,-6.1035156e-05,-0.24810791,0.359375,-0.34375,-0.375
271,-1.0007324,-0.0005493164,-0.24346924,-0.015625,0.984375,-0.015625
272,-0.9992676,0.0018920898,-0.24346924,1.453125,1.1875,-0.015625
273,-0.99975586,0.0004272461,-0.25250244,-0.203125,1.9375,-0.015625
274,-0.98999023,-0.006164551,-0.23297119,-0.125,1.28125,-0.46875
275,-0.9968262,-0.005432129,-0.24346924,-1.0,-0.03125,0.359375
276,-1.0065918,-0.011779785,-0.237854,-0.71875,-0.28125,0.015625
277,-0.99438477,0.0014038086,-0.25030518,-2.078125,0.765625,-0.21875
278,-0.99560547,-0.006164551,-0.24346924,-0.625,1.9375,-1.203125
279,-0.99975586,0.0048217773,-0.23834229,-1.25,1.078125,0.25
280,-1.0039062,-0.006652832,-0.24859619,-0.8125,0.53125,-0.515625
281,-0.99365234,0.0065307617,-0.23175049,-0.828125,1.046875,-0.359375
282,-1.0004883,-0.007385254,-0.23492432,-0.46875,0.265625,-0.28125
283,-0.98999023,0.001159668,-0.24151611,-0.5625,0.765625,0.078125
284,-1.0119629,-0.018371582,-0.22735596,-2.328125,1.03125,0.125
285,-1.0063477,-0.0154418945,-0.23565674,-1.828125,0.171875,-0.5625
286,-1.0068359,-0.0064086914,-0.237854,-1.078125,-0.1875,-0.328125
287,-1.0061035,-0.0020141602,-0.23809814,-0.25,-0.65625,-0.0625
288,-0.9975586,0.0016479492,-0.24420166,-0.34375,0.71875,0.25
289,-0.9946289,-0.0015258789,-0.23052979,0.03125,0.1875,-0.28125
290,-0.99975586,0.00018310547,-0.24151611,1.5,-0.171875,0.109375
291,-0.99853516,-0.006652832,-0.23443604,0.3125,1.046875,-0.234375
292,-1.0,-0.0029907227,-0.24298096,-0.234375,1.03125,-0.453125
293,-1.001709,-0.01373291,-0.24127197,0.484375,0.296875,0.109375
294,-1.013916,0.0026245117,-0.21685791,2.171875,-0.75,-0.078125
295,-1.0046387,-0.0051879883,-0.2546997,-0.53125,0.53125,0.3125
296,-1.0046387,-0.0134887695,-0.23565674,0.125,1.515625,-0.484375
297,-1.0004883,-0.0005493164,-0.22784424,0.1875,1.015625,-0.34375
298,-1.0019531,0.0045776367,-0.23272705,-1.15625,0.421875,-0.375
299,-1.0068359,-0.0032348633,-0.22906494,-1.0,0.75,-0.296875
300,-1.010498,-0.0005493164,-0.24029541,-0.5625,0.078125,-0.046875
301,-0.99975586,-0.0076293945,-0.23565674,0.03125,0.84375,0.28125
302,-1.0078125,-0.007385254,-0.23272705,-0.59375,-0.203125,0.296875
303,-0.9968262,-0.009338379,-0.2300415,-1.03125,0.96875,-0.59375
304,-1.0031738,0.0026245117,-0.22174072,-0.8125,-0.21875,-0.15625
305,-1.0070801,-0.003479004,-0.22735596,-0.578125,-0.453125,0.203125
306,-1.0007324,-0.0032348633,-0.2366333,-0.953125,0.46875,-0.046875
307,-1.0009766,-0.00030517578,-0.23297119,-0.09375,-0.09375,-0.171875
308,-0.9963379,-0.006164551,-0.23638916,-0.984375,0.0,0.359375
309,-1.0026855,0.002380371,-0.23883057,-2.984375,2.015625,0.078125
310,-1.0100098,-0.0178833,-0.22027588,-3.4375,2.65625,-0.828125
311,-1.0,-0.0064086914,-0.23370361,-1.65625,2.578125,-0.625
312,-1.0021973,0.011413574,-0.21270752,0.171875,0.796875,-0.46875
313,-1.0185547,-0.008361816,-0.22662354,-0.71875,-1.609375,0.078125
314,-1.0036621,-0.02520752,-0.22613525,-0.296875,0.875,-0.359375
315,-1.0004883,-0.0029907227,-0.22393799,0.0,0.34375,-0.34375
316,-1.0075684,-0.004211426,-0.22198486,-0.296875,0.390625,-0.078125
317,-0.9970703,0.0028686523,-0.22247314,-0.5,0.953125,-0.328125
318,-1.0056152,0.0014038086,-0.22540283,-0.90625,0.609375,-0.15625
319,-0.9992676,-0.0012817383,-0.22442627,-0.5,1.5,0.171875
320,-1.0078125,-0.012268066,-0.2210083,-0.96875,0.6875,0.453125
321,-0.9970703,-0.012023926,-0.22540283,0.125,0.15625,-0.1875
322,-1.0087891,-0.0095825195,-0.20172119,-0.953125,-1.03125,0.265625
323,-1.0021973,-0.02154541,-0.22198486,-1.421875,-2.5625,-0.609375
324,-1.0021973,-0.00030517578,-0.2300415,-2.046875,-1.78125,-0.90625
325,-1.0046387,-0.02130127,-0.22589111,-1.8125,-1.921875,-1.734375
326,-0.99560547,-0.02130127,-0.22296143,-1.078125,-1.53125,-2.125
327,-1.0234375,-0.0012817383,-0.19122314,-2.0,-5.375,-0.90625
328,-1.0244141,0.0138549805,-0.22467041,-7.75,-4.28125,-0.296875
329,-0.9946289,-0.02130127,-0.23394775,-8.625,-3.40625,-0.609375
330,-0.9902344,-0.002746582,-0.2859497,-10.703125,0.265625,-0.671875
331,-0.9812012,-0.03326416,-0.25372314,-3.03125,-0.71875,0.109375
332,-1.0119629,-0.024475098,-0.25836182,-3.046875,0.5625,-0.15625
333,-1.0039062,-0.041809082,-0.23028564,0.03125,-3.609375,-0.703125
334,-0.99072266,-0.009094238,-0.2420044,-4.265625,-3.4375,-0.171875
335,-1.0,-0.021057129,-0.2559204,-2.953125,-2.75,0.390625
336,-0.9724121,-0.0005493164,-0.28302002,-4.4375,-3.953125,-0.0625
337,-0.9975586,-0.032287598,-0.29034424,-2.890625,-4.890625,-0.015625
338,-0.9650879,-0.014709473,-0.28985596,-4.125,-4.359375,-1.421875
339,-0.9760742,-0.031799316,-0.28546143,-2.578125,-1.53125,-1.484375
340,-0.9873047,-0.0022583008,-0.29742432,-2.0625,-0.296875,-0.640625
341,-0.97509766,-0.010559082,-0.30767822,-2.828125,2.5625,-1.5
342,-0.9758301,-0.047180176,-0.27374268,-0.765625,5.375,-2.0625
343,-1.0061035,-0.0032348633,-0.24713135,2.875,2.515625,-0.484375
344,-1.0087891,-0.023010254,-0.28936768,-1.4375,0.359375,0.34375
345,-0.9824219,-0.010314941,-0.2546997,0.5,0.25,-0.859375
346,-0.9892578,-0.0068969727,-0.26641846,-0.515625,2.125,-0.328125
347,-0.97509766,-0.02545166,-0.26519775,-0.203125,1.671875,-0.6875
348,-1.005127,-0.010070801,-0.25738525,-0.390625,1.265625,-0.265625
349,-0.99780273,-0.037902832,-0.26470947,-2.765625,0.234375,-0.78125
350,-0.9926758,-0.00982666,-0.25323486,-0.453125,-0.078125,-0.515625
351,-0.9929199,-0.016174316,-0.27496338,-2.046875,-1.109375,0.09375
352,-0.9946289,-0.010803223,-0.2576294,0.109375,0.40625,-0.796875
353,-0.99072266,-0.011779785,-0.27008057,-2.296875,2.625,-0.421875
354,-0.99609375,-0.023742676,-0.25543213,0.078125,1.578125,-0.53125
355,-0.9968262,-0.014953613,-0.26617432,-0.96875,-0.625,0.28125
356,-0.9951172,-0.017150879,-0.269104,0.03125,0.578125,-1.046875
357,-0.99609375,-0.0154418945,-0.2642212,-1.609375,3.375,-1.109375
358,-0.9929199,-0.012512207,-0.24468994,-0.171875,3.828125,-0.921875
359,-0.99609375,-0.018127441,-0.2625122,1.328125,-0.734375,0.265625
360,-1.0065918,-0.023254395,-0.25933838,-0.125,0.6875,-0.625
361,-0.9875488,-0.0064086914,-0.23834229,1.15625,-0.75,-0.296875
362,-0.9951172,-0.016906738,-0.2341919,-0.09375,-2.8125,-0.6875
363,-0.9819336,-0.02545166,-0.26324463,-0.34375,0.203125,-0.34375
364,-0.99609375,0.015808105,-0.25567627,-0.296875,-1.796875,0.25
365,-0.998291,-0.019592285,-0.26080322,1.28125,1.96875,-0.140625
366,-0.9951172,-0.013000488,-0.25274658,-1.390625,1.625,-0.609375
367,-0.9873047,-0.026184082,-0.25933838,-0.015625,3.6875,-1.515625
368,-0.9902344,-0.00592041,-0.2703247,-0.828125,0.453125,0.21875
369,-1.0085449,-0.019348145,-0.2720337,-4.296875,4.40625,-2.0
370,-0.9963379,0.0060424805,-0.24908447,-0.3125,4.046875,-0.5
371,-0.9992676,-0.0134887695,-0.23321533,0.921875,2.625,0.515625
372,-0.9892578,-0.0076293945,-0.19927979,0.90625,2.171875,0.953125
373,-1.015625,-0.019348145,-0.22662354,0.984375,5.484375,1.265625
374,-1.001709,-0.035461426,-0.302063,3.75,3.40625,3.078125
375,-1.0397949,0.0036010742,-0.18707275,0.125,5.625,2.578125
376,-0.9794922,-0.030822754,-0.23883057,0.171875,4.03125,2.046875
377,-0.99243164,-0.0025024414,-0.20343018,0.109375,3.1875,1.21875
378,-1.0117188,-0.008605957,-0.20245361,0.125,4.875,0.921875
379,-1.0097656,-0.020812988,-0.21392822,0.15625,2.390625,0.484375
380,-1.0036621,-0.014709473,-0.2185669,0.21875,3.6875,0.53125
381,-1.0197754,-0.024719238,-0.19586182,-0.46875,2.078125,0.421875
382,-1.0026855,-0.032287598,-0.22442627,1.890625,3.515625,0.4375
383,-0.9992676,-0.01373291,-0.18829346,2.640625,0.515625,0.453125
384,-1.001709,-0.030822754,-0.1675415,4.546875,5.375,0.359375
385,-1.0075684,-0.02545166,-0.17926025,2.890625,3.8125,1.03125
386,-1.0163574,-0.050354004,-0.17828369,4.046875,1.953125,-0.09375
387,-1.0266113,-0.022277832,-0.17877197,1.328125,1.65625,0.5625
388,-1.0141602,-0.017150879,-0.18096924,1.53125,4.3125,-0.578125
389,-1.0280762,-0.007385254,-0.18243408,1.234375,2.96875,0.078125
390,-1.0063477,-0.032287598,-0.16046143,2.125,2.65625,-0.34375
391,-1.0217285,-0.021057129,-0.16973877,0.921875,0.4375,0.28125
392,-1.0063477,-0.031311035,-0.1675415,1.75,0.78125,-0.015625
393,-1.0175781,-0.013244629,-0.17120361,1.078125,0.03125,0.25
394,-1.0251465,-0.02154541,-0.15362549,0.625,-1.578125,0.25
395,-1.0195312,-0.012023926,-0.16656494,-0.40625,-1.015625,0.03125
396,-1.0219727,-0.032287598,-0.16485596,-1.296875,-0.78125,-0.25
397,-1.0214844,-0.0017700195,-0.18560791,-1.5,1.65625,-0.328125
398,-1.0300293,-0.053771973,-0.16485596,-2.171875,6.765625,-0.640625
399,-1.0151367,0.004333496,-0.16070557,0.15625,2.203125,-0.453125
400,-1.0021973,-0.022033691,-0.15240479,1.109375,0.21875,0.234375
401,-1.0227051,-0.030822754,-0.14703369,1.0,-0.8125,0.296875
402,-1.0219727,-0.012268066,-0.17852783,-0.0625,-1.390625,-0.421875
403,-1.0085449,-0.024963379,-0.17095947,-0.140625,-0.15625,-1.390625
404,-1.032959,-0.0178833,-0.1687622,-0.9375,-0.671875,-0.5
405,-1.0266113,-0.035461426,-0.1729126,-1.703125,2.21875,-0.640625
406,-1.0158691,-0.03741455,-0.17120361,-1.65625,4.828125,-0.390625
407,-1.0378418,-0.0051879883,-0.16314697,0.515625,2.359375,0.453125
408,-1.0058594,-0.023986816,-0.1428833,0.15625,1.640625,-0.015625
409,-1.0131836,-0.014953613,-0.1482544,-1.03125,1.25,-0.140625
410,-1.0253906,-0.021057129,-0.15118408,-0.484375,0.53125,-0.28125
411,-1.0322266,-0.012756348,-0.15093994,0.078125,-0.125,0.46875
412,-1.0148926,-0.023254395,-0.15533447,0.03125,0.375,-0.25
413,-1.0229492,-0.012268066,-0.14971924,-0.703125,-0.796875,0.078125
414,-1.0310059,-0.035217285,-0.16192627,-2.1875,-1.921875,0.53125
415,-1.0134277,-0.031555176,-0.16119385,-5.859375,1.125,-0.140625
416,-1.0649414,-0.0076293945,-0.17706299,-6.625,2.921875,-1.734375
417,-0.9506836,-0.015686035,-0.17022705,-2.125,3.390625,-2.28125
418,-1.0566406,-0.015686035,-0.10772705,0.703125,-0.984375,-0.1875
419,-1.019043,-0.04498291,-0.1326294,-0.203125,-0.421875,-1.171875
420,-1.0209961,-0.02545166,-0.13165283,-0.640625,-1.703125,-0.75
421,-1.027832,-0.028625488,-0.16827393,-2.484375,-2.765625,-0.8125
422,-1.017334,-0.013977051,-0.15142822,-1.890625,-3.84375,-1.328125
423,-1.0239258,-0.015930176,-0.1638794,-3.765625,-4.75,-0.53125
424,-1.0178223,-0.042785645,-0.19317627,-6.625,-1.28125,-2.921875
425,-1.005127,-0.0068969727,-0.16461182,-4.265625,-3.28125,-1.875
426,-1.0092773,-0.007873535,-0.17047119,-3.796875,-2.859375,-2.734375
427,-1.0021973,-0.011779785,-0.1531372,-2.5,-3.28125,-2.375
428,-1.050293,0.008728027,-0.16070557,-3.890625,-4.734375,-0.796875
429,-1.0083008,-0.014953613,-0.21588135,-3.484375,-2.9375,-1.375
430,-1.0200195,0.021911621,-0.22418213,-2.546875,0.671875,-1.078125
431,-1.0334473,-0.041809082,-0.17974854,-1.890625,0.59375,-1.625
432,-0.96850586,-0.003479004,-0.17242432,-0.71875,-0.953125,-0.421875
433,-0.98461914,-0.02960205,-0.16705322,-1.40625,-2.46875,-0.546875
434,-1.0061035,-0.021057129,-0.19439697,-0.859375,-3.28125,-2.203125
435,-1.0603027,-0.010803223,-0.22491455,-1.59375,-1.109375,-1.8125
436,-1.0024414,-0.006652832,-0.17755127,-3.953125,-2.640625,-3.171875
437,-1.0512695,-0.0134887695,-0.14190674,-8.34375,-12.796875,-1.96875
438,-1.076416,0.014099121,-0.24371338,-16.21875,4.96875,1.0625
439,-0.9699707,-0.03253174,-0.2185669,-6.90625,6.375,2.140625
440,-1.0009766,0.0138549805,-0.22418213,-4.015625,-2.59375,4.46875
441,-1.0058594,-0.070373535,-0.253479,-7.96875,2.484375,2.421875
442,-1.0175781,-0.023498535,-0.24395752,-4.890625,-0.328125,2.609375
443,-1.0373535,-0.024963379,-0.2288208,-5.28125,-1.953125,2.171875
444,-1.0039062,-0.030334473,-0.22076416,-5.203125,0.234375,1.734375
445,-0.97509766,-0.0256958,-0.20880127,-2.25,4.515625,0.984375
446,-0.9638672,-0.006164551,-0.23101807,-3.375,7.859375,-1.015625
447,-1.0024414,-0.08526611,-0.19342041,2.796875,12.0625,-1.65625
448,-1.005127,-0.0635376,-0.15093994,7.296875,-0.09375,1.125
449,-1.0388184,-0.0647583,-0.18121338,-0.828125,-3.40625,0.796875
450,-1.0083008,-0.027404785,-0.19708252,-0.96875,-3.90625,-1.265625
451,-1.0046387,-0.031799316,-0.1897583,1.0,-3.15625,0.109375
452,-0.98168945,-0.02911377,-0.19146729,0.484375,-0.546875,-1.125
453,-1.0385742,-0.032043457,-0.19024658,1.734375,-3.25,0.109375
454,-1.0222168,-0.042785645,-0.18096924,0.453125,0.71875,0.25
455,-1.013916,-0.0569458,-0.18096924,0.0625,0.09375,1.8125
456,-1.0178223,-0.042785645,-0.2107544,-4.25,0.546875,1.890625
457,-1.0361328,-0.077697754,-0.23028564,-6.265625,-1.15625,1.203125
458,-1.0319824,-0.049621582,-0.18804932,-3.203125,-0.234375,1.34375
459,-1.0056152,-0.04864502,-0.20489502,-3.21875,6.40625,1.796875
460,-1.0014648,-0.05645752,-0.19268799,-1.359375,8.234375,1.140625
461,-1.0231934,-0.06011963,-0.175354,0.375,6.6875,1.609375
462,-1.0119629,-0.065979004,-0.15899658,1.125,4.65625,0.859375
463,-1.0043945,-0.06402588,-0.1638794,0.71875,4.515625,0.359375
464,-1.0097656,-0.0635376,-0.15631104,-0.0625,4.75,0.71875
465,-1.0175781,-0.078430176,-0.1428833,0.6875,3.640625,0.5625
466,-1.0163574,-0.062072754,-0.128479,0.828125,4.28125,0.9375
467,-1.0244141,-0.05596924,-0.14190674,0.046875,3.34375,0.875
468,-1.012207,-0.065979004,-0.14605713,-0.6875,4.328125,-0.46875
469,-1.0126953,-0.06915283,-0.124572754,0.453125,3.15625,-1.140625
470,-1.026123,-0.08477783,-0.117004395,-0.4375,1.703125,-1.234375
471,-0.9987793,-0.058410645,-0.11602783,-0.484375,-0.96875,-1.296875
472,-0.9970703,-0.08477783,-0.10235596,1.59375,0.40625,-1.9375
473,-1.017334,-0.07183838,-0.12945557,1.0,-3.75,-1.03125
474,-1.0368652,-0.08282471,-0.13848877,1.234375,-7.4375,-1.53125
475,-1.0710449,-0.04815674,-0.1326294,7.5,-4.609375,0.921875
476,-1.0700684,-0.08087158,-0.10333252,12.46875,1.71875,3.359375
477,-1.0983887,-0.1404419,-0.116760254,-1.84375,-10.9375,3.984375
478,-0.9116211,-0.030090332,-0.21051025,-3.859375,-8.21875,2.078125
479,-0.9104004,-0.026916504,-0.22857666,-2.125,-8.1875,0.125
480,-0.96972656,-0.069885254,-0.22930908,-2.125,-5.3125,-0.671875
481,-0.97094727,-0.031311035,-0.24932861,-1.453125,-3.046875,-1.515625
482,-1.0524902,-0.034484863,-0.2185669,-2.21875,-1.875,-2.09375
483,-1.0251465,-0.07647705,-0.20391846,0.890625,-0.28125,-1.53125
484,-1.0097656,-0.04522705,-0.1819458,3.234375,0.625,-1.015625
485,-1.0021973,-0.046203613,-0.17974854,1.859375,2.71875,-0.625
486,-1.0087891,-0.06817627,-0.19122314,0.59375,1.109375,-1.6875
487,-0.98461914,-0.034240723,-0.1921997,0.890625,-1.515625,-1.390625
488,-1.0476074,-0.06744385,-0.23052979,-0.578125,0.59375,-1.609375
489,-1.0068359,-0.074279785,-0.20074463,1.859375,2.984375,-2.265625
490,-1.0070801,-0.05621338,-0.22808838,0.9375,1.5,-1.828125
491,-1.0151367,-0.06109619,-0.19195557,1.65625,3.953125,-1.84375
492,-1.0065918,-0.051574707,-0.16534424,4.140625,-0.9375,-0.765625
493,-1.0300293,-0.04864502,-0.1609497,-1.515625,-2.703125,-1.359375
494,-1.0012207,-0.050354004,-0.18780518,-0.375,-1.515625,-1.0625
495,-1.0202637,-0.030090332,-0.20684814,-1.328125,-4.4375,-0.3125
496,-1.0102539,-0.04473877,-0.21270752,-1.296875,-3.984375,-0.796875
497,-1.0065918,-0.04058838,-0.23565674,-0.328125,-3.625,-0.359375
498,-1.0009766,-0.04547119,-0.21954346,1.03125,-3.75,-0.5
499,-1.0083008,-0.055236816,-0.22564697,1.546875,-2.921875,-0.328125
500,-1.0053711,-0.010070801,-0.2300415,0.328125,-1.578125,-0.3125
501,-1.0131836,-0.050109863,-0.22271729,-0.75,2.109375,-1.125
502,-0.9992676,-0.018859863,-0.21905518,-0.046875,1.484375,-0.265625
503,-1.0048828,-0.04840088,-0.22052002,-1.328125,2.359375,-0.921875
504,-1.0107422,-0.038146973,-0.22515869,0.796875,1.8125,0.171875
505,-1.0163574,-0.04864502,-0.22540283,-2.09375,0.765625,-0.5
506,-0.9987793,-0.05279541,-0.18341064,1.8125,-0.09375,-0.5625
507,-1.0275879,0.0016479492,-0.22027588,-3.75,-0.15625,0.84375
508,-0.97631836,-0.049865723,-0.22540283,-0.84375,3.46875,-0.84375
509,-1.0031738,-0.027648926,-0.206604,-1.453125,2.828125,-0.25
510,-1.0107422,-0.045715332,-0.20855713,-0.453125,1.40625,-0.3125
511,-1.0048828,-0.030822754,-0.21612549,-1.265625,2.328125,-0.34375
512,-0.99316406,-0.015930176,-0.33062744,-5.625,7.5625,-2.765625
513,-1.0488281,-0.051330566,-0.09161377,3.6875,9.25,-4.171875
514,-0.9863281,0.010192871,-0.17901611,0.3125,1.015625,1.3125
515,-1.0356445,-0.06524658,-0.14678955,-0.34375,3.734375,-1.71875
516,-1.0180664,-0.01763916,-0.1651001,-1.015625,1.34375,-0.234375
517,-1.0012207,-0.034973145,-0.18609619,-1.46875,1.59375,-0.234375
518,-1.0393066,-0.03668213,-0.16143799,-0.71875,-0.0625,-0.078125
519,-1.0126953,-0.03375244,-0.18292236,-1.296875,-0.75,0.5
520,-1.0178223,-0.035949707,-0.18658447,-3.15625,0.0625,0.140625
521,-1.0187988,-0.03692627,-0.19049072,-0.5,4.46875,-0.1875
522,-1.0063477,-0.030822754,-0.16607666,-0.34375,2.609375,-0.5
523,-1.0073242,-0.038635254,-0.1494751,0.0,0.6875,-0.59375
524,-1.0349121,-0.0178833,-0.1494751,-0.84375,2.125,-0.046875
525,-1.0180664,-0.02545166,-0.17608643,-1.171875,0.28125,0.296875
526,-1.0195312,-0.024230957,-0.17047119,-1.609375,1.953125,-0.34375
527,-1.0126953,-0.03717041,-0.17242432,-0.515625,3.640625,-1.328125
528,-1.013916,-0.03643799,-0.14312744,-0.296875,1.53125,-0.75
529,-1.0224609,-0.04522705,-0.1663208,-0.171875,3.46875,-0.328125
530,-1.0263672,-0.03643799,-0.1362915,0.0625,1.625,-0.734375
531,-1.0219727,-0.04449463,-0.1296997,0.03125,-0.453125,0.328125
532,-1.0266113,-0.027404785,-0.15997314,-0.765625,-2.484375,0.15625
533,-1.0202637,-0.02545166,-0.15411377,-0.859375,-0.78125,-0.15625
534,-1.0092773,-0.035949707,-0.17242432,-0.71875,-0.328125,-0.296875
535,-1.0263672,-0.031555176,-0.15899658,0.078125,0.8125,-0.328125
536,-1.015625,-0.02960205,-0.1585083,-0.828125,0.15625,-0.546875
537,-1.0310059,-0.04034424,-0.15289307,0.140625,0.296875,0.046875
538,-1.0065918,-0.021057129,-0.14068604,0.046875,-2.1875,-0.296875
539,-1.0244141,-0.026672363,-0.17095947,-1.1875,-0.96875,0.0625
540,-1.0214844,-0.04083252,-0.16851807,-1.375,2.125,-1.109375
541,-1.0163574,-0.03326416,-0.15557861,0.1875,0.703125,-0.0625
542,-1.0212402,-0.034729004,-0.1519165,-0.25,-0.03125,-0.96875
543,-1.0153809,-0.020568848,-0.1572876,-0.890625,0.453125,0.171875
544,-1.0319824,-0.032043457,-0.16070557,-0.296875,0.59375,0.078125
545,-1.0161133,-0.03326416,-0.16143799,-0.59375,-0.4375,-0.21875
546,-1.0251465,-0.03302002,-0.15948486,-0.875,-0.53125,0.171875
547,-1.0185547,-0.03643799,-0.14996338,-0.40625,0.375,-1.03125
548,-1.0239258,-0.028869629,-0.16485596,-0.75,-0.234375,0.109375
549,-1.0153809,-0.035949707,-0.15045166,-0.171875,-0.1875,-0.40625
550,-1.0249023,-0.019836426,-0.16607666,-0.46875,0.328125,-0.234375
551,-1.0200195,-0.0335083,-0.15753174,-0.484375,0.5625,-0.34375
552,-1.0158691,-0.034240723,-0.17022705,-0.859375,0.890625,-0.25
553,-1.0273438,-0.042297363,-0.15045166,-0.265625,0.21875,-0.625
554,-1.0266113,-0.028625488,-0.15753174,-0.96875,-0.171875,-0.125
555,-1.0183105,-0.0256958,-0.1638794,-0.6875,-0.734375,0.046875
556,-1.026123,-0.04107666,-0.15948486,-0.546875,0.453125,-0.515625
557,-1.0217285,-0.017150879,-0.16314697,-0.6875,-0.09375,-0.328125
558,-1.0092773,-0.039367676,-0.16412354,-1.046875,1.4375,-1.609375
559,-1.026123,-0.029846191,-0.15948486,0.0625,-1.0625,0.25
560,-1.0258789,-0.034973145,-0.16046143,-1.609375,0.03125,-0.265625
561,-1.0136719,-0.023010254,-0.15997314,-0.90625,1.5625,-0.421875
562,-1.0288086,-0.03277588,-0.15338135,-0.609375,0.578125,-0.171875
563,-1.0119629,-0.027893066,-0.14703369,-0.125,0.6875,0.0
564,-1.0302734,-0.022521973,-0.18096924,-0.015625,2.8125,0.90625
565,-1.0270996,-0.0335083,-0.1531372,1.03125,2.90625,-0.078125
566,-1.0195312,-0.04449463,-0.14508057,3.953125,2.4375,0.265625
567,-1.0231934,-0.040100098,-0.13604736,3.734375,0.0,0.015625
568,-1.0192871,-0.03741455,-0.12408447,2.890625,-0.796875,0.515625
569,-1.0078125,-0.031311035,-0.14678955,2.8125,-1.78125,-0.078125
570,-1.0234375,-0.035949707,-0.15020752,1.71875,-0.625,0.25
571,-1.0268555,-0.028625488,-0.15045166,0.265625,-0.859375,-0.1875
572,-1.0185547,-0.024963379,-0.14483643,-0.3125,0.109375,-0.5
573,-1.0217285,-0.020080566,-0.15509033,-2.3125,-0.390625,-0.375
574,-1.0185547,-0.02520752,-0.17071533,-0.84375,1.0625,-0.296875
575,-1.0268555,-0.045715332,-0.14703369,-2.421875,1.1875,-0.75
576,-1.0170898,-0.03277588,-0.14776611,-1.3125,0.75,-1.046875
577,-1.0197754,-0.019348145,-0.14654541,-1.1875,-0.296875,-0.15625
578,-1.0251465,-0.028137207,-0.15948486,-0.875,0.171875,-0.046875
579,-1.0268555,-0.023498535,-0.15216064,-0.875,0.4375,-0.203125
580,-1.0180664,-0.034973145,-0.16021729,-0.828125,0.390625,-0.28125
581,-1.020752,-0.024719238,-0.14874268,-1.0,0.4375,-0.59375
582,-1.0202637,-0.03253174,-0.15460205,-1.0625,0.953125,-0.3125
583,-1.0253906,-0.024963379,-0.1506958,-0.484375,-0.578125,-0.015625
584,-1.0161133,-0.035949707,-0.16265869,-1.109375,0.765625,-0.453125
585,-1.0244141,-0.027160645,-0.1531372,-1.265625,1.203125,-0.484375
586,-1.0227051,-0.030090332,-0.14434814,-0.4375,1.15625,-0.609375
587,-1.0175781,-0.021057129,-0.13555908,-0.546875,0.328125,0.046875
588,-1.0209961,-0.03326416,-0.14874268,-0.4375,-0.28125,0.0625
589,-1.0229492,-0.025939941,-0.1506958,-1.109375,-0.140625,-0.015625
590,-1.0197754,-0.039123535,-0.15533447,-1.234375,0.34375,-0.328125
591,-1.0244141,-0.012756348,-0.15338135,-1.625,-1.5,-0.640625
592,-1.0249023,-0.0256958,-0.15704346,0.015625,-0.546875,0.078125
593,-1.015625,-0.030334473,-0.14117432,-1.4375,0.234375,-0.296875
594,-1.0014648,-0.03643799,-0.14068604,-0.265625,-0.6875,-0.921875
595,-1.0249023,-0.013977051,-0.15997314,-0.734375,-1.109375,-0.078125
596,-1.0229492,-0.036193848,-0.15484619,0.34375,-1.109375,-0.328125
597,-1.0158691,-0.02545166,-0.14996338,-0.046875,-1.671875,-0.40625
598,-1.0129395,-0.03717041,-0.1651001,-0.296875,-1.328125,-0.828125
599,-1.0183105,-0.026428223,-0.16412354,-1.0625,-1.3125,-0.8125
600,-1.0253906,-0.032287598,-0.159729,-0.8125,-0.4375,-0.390625
601,-1.0180664,-0.020568848,-0.17144775,-0.875,-0.96875,-0.359375
602,-1.0187988,-0.03692627,-0.17340088,-1.25,0.109375,-0.484375
603,-1.0273438,-0.016906738,-0.1675415,-0.84375,0.765625,-0.6875
604,-1.0197754,-0.028137207,-0.15826416,-0.71875,0.890625,-0.125
605,-1.0151367,-0.022521973,-0.16827393,-0.21875,0.03125,0.109375
606,-1.019043,-0.03277588,-0.16729736,-0.90625,0.328125,-0.0625
607,-1.0258789,-0.023498535,-0.17120361,-1.328125,1.046875,0.203125
608,-1.0185547,-0.032287598,-0.14971924,-0.1875,1.640625,-0.578125
609,-1.0141602,-0.00982666,-0.16119385,-0.890625,0.78125,-0.015625
610,-1.020752,-0.031555176,-0.16143799,0.1875,1.0625,0.03125
611,-1.0373535,-0.035705566,-0.15802002,-1.296875,0.6875,-0.125
612,-1.0026855,-0.0256958,-0.15802002,-0.578125,0.78125,-0.9375
613,-1.0307617,-0.022766113,-0.14093018,-1.109375,1.3125,-0.078125
614,-1.0117188,-0.023742676,-0.15411377,-0.328125,-0.53125,-0.453125
615,-1.0244141,-0.034729004,-0.15386963,-1.265625,-0.390625,-0.0625
616,-1.0148926,-0.032287598,-0.1675415,-1.5,-1.890625,-0.546875
617,-1.0200195,-0.011779785,-0.15435791,-0.875,-1.71875,-0.234375
618,-1.0144043,-0.028869629,-0.15484619,0.359375,-0.609375,-0.046875
619,-1.0231934,-0.016662598,-0.16339111,-0.34375,-0.828125,-0.015625
620,-1.0266113,-0.03302002,-0.16412354,0.015625,-0.328125,-0.15625
621,-1.0124512,-0.022521973,-0.16290283,-0.296875,-2.59375,0.125
622,-1.032959,-0.033996582,-0.1807251,-2.765625,-1.671875,0.375
623,-1.0012207,-0.017150879,-0.17315674,-0.375,-1.28125,-0.59375
624,-1.0129395,-0.035949707,-0.1741333,-1.09375,-0.28125,-0.828125
625,-1.0092773,-0.026428223,-0.1729126,0.125,-0.71875,-1.5
626,-1.020752,-0.028137207,-0.16998291,-0.1875,-0.84375,-1.390625
627,-1.0209961,-0.032043457,-0.18609619,-1.03125,-2.953125,-0.4375
628,-1.0371094,-0.04034424,-0.19464111,-1.109375,-1.609375,0.640625
629,-1.0058594,-0.027648926,-0.18780518,-2.875,-0.875,-0.46875
630,-0.9980469,-0.026916504,-0.18121338,-1.625,-0.6875,-1.59375
631,-1.0246582,-0.019836426,-0.17315674,-1.53125,-0.984375,-0.25
632,-1.0153809,-0.020812988,-0.20367432,-0.484375,-0.65625,-0.5
633,-1.0205078,-0.017150879,-0.18780518,-0.578125,0.171875,-0.3125
634,-1.0158691,-0.029846191,-0.190979,-0.21875,1.390625,-0.21875
635,-1.0134277,-0.013000488,-0.19024658,-0.1875,1.34375,-0.296875
636,-1.0178223,-0.034973145,-0.18243408,-0.140625,2.1875,-0.3125
637,-1.0178223,-0.02545166,-0.17999268,-0.21875,1.234375,-0.109375
638,-1.0209961,-0.039367676,-0.19122314,-1.125,1.3125,0.1875
639,-1.0224609,-0.019104004,-0.1819458,-1.046875,1.625,-0.015625
640,-1.0026855,-0.01739502,-0.15924072,-0.203125,1.0625,-0.328125
641,-1.0163574,-0.02178955,-0.17730713,-0.640625,0.3125,0.0625
642,-1.010498,-0.028869629,-0.17340088,-1.328125,1.265625,-0.390625
643,-1.0158691,-0.027404785,-0.17193604,-0.8125,1.453125,-0.5
644,-1.0080566,-0.030090332,-0.16168213,-0.09375,-0.390625,0.0
645,-1.0205078,-0.023010254,-0.1651001,-1.703125,-0.375,-0.0625
646,-1.0078125,-0.021057129,-0.18658447,-2.09375,-0.859375,-0.359375
647,-1.0209961,-0.050109863,-0.1741333,-2.390625,1.40625,-1.28125
648,-0.9980469,-0.038879395,-0.18585205,-0.1875,-2.65625,-1.296875
649,-1.0695801,-0.013000488,-0.11090088,-6.03125,-10.03125,0.953125
650,-1.0078125,-0.058166504,-0.22125244,-9.953125,-7.140625,-0.46875
651,-1.034668,0.00091552734,-0.18145752,-3.046875,-2.546875,-0.328125
652,-0.970459,-0.02130127,-0.253479,-3.5625,-3.75,0.78125
653,-1.0251465,-0.061828613,-0.20489502,-6.15625,-2.34375,-0.9375
654,-0.9909668,-0.04034424,-0.22198486,-5.25,-4.015625,0.96875
655,-1.0007324,-0.03277588,-0.22320557,-6.296875,-5.546875,-0.09375
656,-0.9938965,-0.011779785,-0.25372314,-8.671875,0.890625,-0.84375
657,-0.9694824,-0.007385254,-0.25958252,-3.9375,4.15625,-2.84375
658,-0.9736328,-0.061828613,-0.2288208,0.90625,5.3125,-4.0625
659,-1.013916,-0.04107666,-0.16998291,5.40625,1.421875,-1.21875
660,-1.0300293,-0.042541504,-0.21368408,-2.015625,-0.625,-0.234375
661,-1.0056152,-0.023986816,-0.19610596,0.546875,-0.921875,-1.890625
662,-1.0239258,-0.023254395,-0.20465088,-1.75,1.546875,-0.734375
663,-1.0117188,-0.020324707,-0.2156372,-1.046875,-1.0625,-0.328125
664,-0.98999023,-0.049865723,-0.222229,-1.734375,1.234375,-1.09375
665,-1.0175781,-0.018615723,-0.20928955,-0.546875,-1.828125,-0.671875
666,-1.0107422,-0.049621582,-0.20684814,-1.625,-0.109375,-0.75
667,-0.998291,-0.027893066,-0.2234497,-1.171875,0.0,-0.921875
668,-1.0075684,-0.04156494,-0.20904541,-0.3125,-0.53125,-0.78125
669,-1.0021973,-0.011291504,-0.23834229,1.4375,-2.03125,-0.296875
670,-1.0146484,-0.039123535,-0.21173096,1.21875,-0.859375,-0.5625
671,-1.0068359,-0.018371582,-0.21807861,0.453125,0.3125,-0.265625
672,-1.0119629,-0.035461426,-0.22467041,-0.4375,0.578125,-0.296875
673,-1.003418,-0.026428223,-0.22320557,-0.3125,0.5,-0.21875
674,-1.0014648,-0.02130127,-0.21490479,-0.0625,1.078125,-0.28125
675,-1.0041504,-0.028137207,-0.20977783,-0.265625,1.828125,-0.5625
676,-1.005127,-0.032043457,-0.20928955,-0.21875,1.046875,-0.0625
677,-1.0058594,-0.036193848,-0.23760986,-0.328125,0.515625,0.015625
678,-1.0004883,-0.011779785,-0.19268799,-0.3125,5.328125,-1.703125
679,-0.9987793,-0.02154541,-0.2300415,-0.015625,3.875,0.125
680,-1.0141602,-0.04547119,-0.17388916,-0.171875,0.375,-0.78125
681,-1.0002441,-0.016418457,-0.19537354,1.921875,-0.28125,-0.46875
682,-1.0334473,-0.02911377,-0.17852783,0.59375,-3.796875,0.578125
683,-1.0092773,-0.0071411133,-0.2276001,0.234375,-5.078125,1.0625
684,-1.0053711,-0.004211426,-0.22784424,-1.6875,-4.015625,0.3125
685,-0.9926758,-0.050109863,-0.22515869,-0.578125,-0.109375,-0.34375
686,-1.0004883,-0.014465332,-0.21807861,0.0625,0.234375,-0.578125
687,-1.0129395,-0.04034424,-0.22174072,0.140625,0.0,-0.078125
688,-1.0058594,-0.017150879,-0.23052979,-0.265625,1.0625,-0.6875
689,-0.99780273,-0.022766113,-0.2263794,-1.25,3.46875,-0.921875
690,-1.0097656,-0.03692627,-0.22320557,0.5,3.21875,-0.515625
691,-1.0046387,-0.008117676,-0.2041626,2.109375,-0.5,0.09375
692,-1.0209961,-0.026916504,-0.22735596,-1.4375,0.609375,0.109375
693,-0.9987793,-0.023986816,-0.21295166,-0.125,0.875,-0.6875
694,-1.0036621,-0.023986816,-0.22149658,-0.09375,1.03125,0.03125
695,-1.0095215,-0.01373291,-0.19439697,0.109375,-0.65625,0.015625
696,-1.0039062,-0.027160645,-0.22052002,-1.28125,1.5,-0.203125
697,-1.0083008,-0.032287598,-0.2144165,-0.921875,1.578125,-0.546875
698,-1.0068359,-0.012756348,-0.20758057,0.578125,1.421875,0.015625
699,-1.0163574,-0.016418457,-0.18829346,0.984375,1.328125,-0.40625
700,-0.99731445,-0.014953613,-0.2341919,-0.046875,4.0625,0.15625
701,-1.0222168,-0.0134887695,-0.1638794,2.234375,-0.28125,-0.375
702,-1.0041504,-0.030334473,-0.20758057,-0.171875,1.078125,0.75
703,-1.0129395,-0.026184082,-0.1873169,-1.28125,-0.203125,-0.53125
704,-1.0114746,-0.021057129,-0.21246338,-0.59375,1.53125,-0.265625
705,-1.0241699,-0.024230957,-0.17755127,1.125,-0.203125,0.21875
706,-1.020752,-0.02960205,-0.22076416,-2.015625,3.078125,0.53125
707,-1.0239258,-0.0256958,-0.17486572,1.796875,-0.5625,-0.359375
708,-1.0136719,-0.0068969727,-0.20098877,-1.21875,-0.03125,0.390625
709,-1.0039062,-0.032043457,-0.1921997,0.234375,1.796875,-0.328125
710,-1.0112305,-0.01373291,-0.18902588,0.265625,1.0,0.03125
711,-1.012207,-0.037902832,-0.19390869,-0.234375,0.9375,-0.203125
712,-1.0119629,-0.023010254,-0.17559814,0.5625,1.6875,-0.6875
713,-1.0263672,-0.012512207,-0.19342041,-0.734375,0.3125,0.578125
714,-1.0148926,-0.031555176,-0.18414307,-0.59375,2.0,0.078125
715,-1.001709,-0.011779785,-0.19073486,-0.015625,1.59375,0.015625
716,-1.0273438,-0.03326416,-0.18902588,-0.078125,0.75,-0.125
717,-1.0014648,-0.0095825195,-0.18487549,0.75,0.953125,-0.484375
718,-1.0336914,-0.024475098,-0.18121338,-0.375,0.359375,0.421875
719,-1.0043945,-0.021057129,-0.17559814,-0.140625,-0.078125,-0.234375
720,-1.0229492,-0.03302002,-0.17193604,0.046875,-0.515625,0.4375
721,-1.0117188,-0.016662598,-0.17193604,0.890625,-1.84375,-0.421875
722,-1.0151367,-0.016418457,-0.1741333,1.96875,-3.75,0.640625
723,-0.98999023,-0.027893066,-0.20367432,-1.734375,-0.90625,-0.78125
724,-1.0283203,-0.01373291,-0.2041626,0.28125,-0.75,-0.703125
725,-1.0092773,-0.015930176,-0.19293213,-0.5,-1.09375,-0.578125
726,-1.020752,-0.023742676,-0.19146729,-0.03125,0.0625,-0.453125
727,-1.0041504,-0.02154541,-0.1951294,-0.765625,-0.75,-0.109375
728,-1.0214844,-0.020812988,-0.20513916,-0.34375,-1.015625,-0.265625
729,-1.0117188,-0.020080566,-0.19317627,0.296875,-1.15625,-0.234375
730,-1.0251465,-0.014709473,-0.2029419,-0.78125,-0.84375,0.421875
731,-1.0041504,-0.033996582,-0.20758057,-0.21875,1.78125,-1.03125
732,-1.0151367,-0.016662598,-0.20343018,-0.625,0.453125,-0.203125
733,-1.0292969,-0.018859863,-0.20098877,-1.6875,-0.25,-0.25
734,-1.0002441,-0.019104004,-0.20684814,-0.328125,1.203125,-0.1875
735,-1.0153809,-0.014709473,-0.18927002,-0.859375,0.34375,0.328125
736,-0.99902344,-0.026184082,-0.20172119,-0.046875,0.359375,0.03125
737,-1.0170898,-0.023254395,-0.19390869,-1.0,1.25,0.046875
738,-1.0090332,-0.023498535,-0.19903564,-0.015625,0.6875,-0.4375
739,-1.0085449,-0.02520752,-0.18804932,-0.75,0.890625,-0.640625
740,-1.0166016,-0.0154418945,-0.1921997,-0.546875,-0.453125,-0.015625
741,-1.0026855,-0.020812988,-0.19610596,-0.625,-0.234375,-0.015625
742,-1.0078125,-0.023498535,-0.19146729,-0.546875,0.609375,-0.453125
743,-1.0195312,-0.019836426,-0.19537354,-0.28125,-0.34375,-0.0625
744,-1.0107422,-0.016662598,-0.19732666,-0.46875,0.4375,-0.171875
745,-1.0085449,-0.0256958,-0.2000122,-1.078125,0.265625,-0.25
746,-1.0026855,-0.016906738,-0.18878174,0.21875,0.546875,-0.640625
747,-1.027832,-0.019104004,-0.18829346,-1.484375,0.390625,0.234375
748,-0.99780273,-0.027160645,-0.19903564,-0.609375,1.359375,-0.75
749,-1.0092773,-0.018371582,-0.19000244,-0.8125,1.21875,-0.28125
750,-1.0244141,-0.024475098,-0.19000244,-1.0625,0.3125,-0.390625
