sample_no,accel_x,accel_y,accel_z,gyro_x,gyro_y,gyro_z
0,-0.59936523,0.14471436,0.90252686,0.21875,2.125,3.28125
1,-0.5620117,0.074401855,0.8956909,0.109375,3.796875,1.546875
2,-0.50561523,0.1071167,0.8390503,0.921875,4.0,3.40625
3,-0.55444336,0.184021,0.8619995,4.796875,14.71875,8.859375
4,-0.58618164,0.13079834,1.0023804,5.234375,4.75,6.453125
5,-0.59936523,-0.0025024414,0.96624756,-0.9375,-0.59375,3.984375
6,-0.4794922,0.06756592,0.89520264,-3.328125,0.71875,2.21875
7,-0.49389648,0.13690186,0.92767334,-1.078125,0.1875,4.328125
8,-0.55200195,0.090026855,0.93499756,3.0,2.578125,5.015625
9,-0.5593262,-0.007385254,0.90448,-2.5,-0.125,3.3125
10,-0.517334,0.066589355,0.8734741,-1.921875,2.796875,4.9375
11,-0.62475586,0.04071045,0.91204834,-0.171875,0.84375,3.984375
12,-0.48779297,0.031921387,0.8746948,-2.640625,-1.671875,1.28125
13,-0.6188965,0.036071777,0.8908081,-0.203125,1.5625,1.234375
14,-0.5986328,0.0993042,0.87176514,0.28125,2.984375,0.640625
15,-0.5332031,0.12200928,0.9130249,2.265625,5.078125,-0.53125
16,-0.5229492,-0.015197754,0.95428467,2.640625,3.921875,-2.421875
17,-0.5144043,0.124938965,0.88690186,1.265625,8.640625,-2.015625
18,-0.48779297,0.057556152,0.9257202,-0.734375,-2.796875,-1.484375
19,-0.5241699,0.08465576,0.89764404,-1.515625,2.515625,-2.234375
20,-0.4921875,0.08343506,0.88494873,-0.375,0.375,2.9375
21,-0.5522461,0.07220459,0.9616089,0.90625,0.09375,5.21875
22,-0.49023438,0.04486084,0.9122925,-2.03125,0.796875,2.5625
23,-0.55200195,0.08734131,0.90838623,1.109375,2.046875,3.140625
24,-0.50683594,0.045837402,0.94573975,2.3125,-0.5625,2.453125
25,-0.51660156,0.012634277,0.91522217,-1.65625,2.015625,-0.578125
26,-0.52001953,0.006286621,0.91448975,-1.6875,-0.15625,-0.25
27,-0.5656738,0.041931152,0.93426514,-0.046875,2.375,1.90625
28,-0.47924805,0.0927124,0.84417725,-2.75,2.09375,-1.71875
29,-0.5148926,0.0211792,0.92230225,-0.59375,3.625,-2.0
30,-0.48608398,0.03363037,0.9227905,-5.296875,11.34375,-0.828125
31,-0.5229492,0.07147217,0.914978,-8.640625,4.90625,-2.265625
32,-0.46313477,0.10223389,0.8876343,-2.6875,3.875,-0.140625
33,-0.48657227,0.082214355,0.8751831,0.828125,-2.46875,2.53125
34,-0.48876953,0.02142334,0.94451904,1.875,0.53125,2.140625
35,-0.47680664,0.07489014,0.94403076,-2.046875,0.171875,0.8125
36,-0.49829102,0.047302246,0.94696045,-0.765625,2.078125,-0.328125
37,-0.43164062,0.12225342,0.9098511,-2.640625,1.796875,-1.65625
38,-0.52441406,0.020690918,0.89105225,7.9375,11.515625,8.359375
39,-0.6022949,0.055847168,1.0170288,1.21875,3.859375,0.125
40,-0.4477539,0.051452637,0.9135132,-2.4375,4.953125,-6.015625
41,-0.3996582,0.07928467,0.9225464,-1.421875,-0.578125,-3.21875
42,-0.4970703,0.054626465,0.91986084,-1.3125,-1.890625,-1.953125
43,-0.45288086,0.051696777,0.94696045,-1.78125,-2.046875,0.375
44,-0.51904297,0.05682373,0.934021,-0.3125,-3.046875,0.984375
45,-0.5383301,0.023620605,0.92230225,-0.171875,0.234375,2.3125
46,-0.5395508,0.06829834,0.9371948,0.546875,1.859375,4.90625
47,-0.46655273,0.08074951,0.9381714,1.6875,3.640625,3.484375
48,-0.4416504,0.049987793,0.949646,-0.28125,1.0625,0.9375
49,-0.4765625,0.078552246,0.92962646,-1.21875,-0.578125,0.203125
50,-0.4970703,0.05609131,0.9435425,0.1875,-2.421875,2.640625
51,-0.4699707,0.07220459,0.8998413,0.890625,4.140625,4.015625
52,-0.4543457,0.045837402,0.9411011,-1.234375,-1.546875,1.796875
53,-0.48510742,0.035827637,0.9628296,-0.734375,-6.703125,0.546875
54,-0.5710449,0.030700684,0.93621826,-1.578125,0.265625,-1.1875
55,-0.47583008,0.059265137,0.91693115,-0.53125,4.796875,0.71875
56,-0.48461914,0.045837402,0.9430542,-0.5,0.75,-0.53125
57,-0.5012207,0.057800293,0.93670654,-0.734375,0.5,-1.3125
58,-0.4802246,0.062194824,0.9227905,-1.046875,-0.5625,0.984375
59,-0.4794922,0.08465576,0.9113159,-0.078125,1.703125,1.890625
60,-0.5102539,0.051696777,0.9491577,-0.828125,1.0625,-0.3125
61,-0.4790039,0.05657959,0.9293823,-0.78125,1.25,-0.5
62,-0.51049805,0.055358887,0.9411011,-0.546875,1.6875,-1.078125
63,-0.4765625,0.047790527,0.9057007,-0.09375,-0.625,1.40625
64,-0.52246094,0.046081543,0.8978882,1.28125,1.59375,2.140625
65,-0.513916,0.04949951,0.94207764,0.53125,0.1875,-0.3125
66,-0.4909668,0.054382324,0.9328003,1.359375,1.65625,-0.421875
67,-0.48754883,0.028747559,0.93914795,0.875,-0.578125,-1.828125
68,-0.49267578,0.049743652,0.9310913,0.671875,0.46875,0.171875
69,-0.47631836,0.06072998,0.947937,-0.515625,0.015625,0.03125
70,-0.50512695,0.06390381,0.9135132,-0.78125,0.34375,-0.21875
71,-0.49194336,0.06854248,0.94451904,-0.625,0.03125,-0.171875
72,-0.5024414,0.070739746,0.90301514,0.71875,0.328125,2.53125
73,-0.4885254,0.08123779,0.91278076,1.375,0.84375,2.140625
74,-0.5053711,0.03314209,0.9398804,-0.375,0.40625,-0.015625
75,-0.5024414,0.018493652,0.920105,-0.953125,1.96875,-0.578125
76,-0.50341797,0.038757324,0.9315796,-2.796875,1.9375,-1.703125
77,-0.52783203,0.046325684,0.9567261,-2.5625,-0.078125,-1.25
78,-0.49658203,0.023620605,0.8966675,-2.203125,-0.15625,-1.0
79,-0.53881836,0.04949951,0.949646,-8.21875,4.0625,-1.859375
80,-0.50756836,0.14300537,0.8751831,-2.8125,14.28125,0.234375
81,-0.3371582,0.12420654,0.86102295,2.6875,4.296875,5.140625
82,-0.52905273,0.10076904,0.99505615,7.4375,-10.390625,3.59375
83,-0.44067383,-0.020324707,0.91522217,1.59375,2.84375,1.875
84,-0.47851562,0.0067749023,0.95892334,-0.953125,-4.296875,-1.640625
85,-0.50878906,0.023132324,0.92401123,-2.515625,0.265625,-2.171875
86,-0.5085449,0.06781006,0.934021,0.21875,1.609375,-0.640625
87,-0.46899414,0.08270264,0.8978882,1.578125,2.71875,1.15625
88,-0.5205078,0.026550293,0.94281006,0.859375,-0.78125,-0.46875
89,-0.52905273,0.066833496,0.934021,0.484375,1.8125,-2.171875
90,-0.47753906,-0.007873535,0.97406006,-3.546875,0.5,-3.6875
91,-0.46679688,0.06951904,0.91400146,-5.34375,1.9375,-1.078125
92,-0.52563477,0.1071167,0.9450073,-2.953125,0.5625,2.046875
93,-0.48901367,0.081970215,0.92718506,-1.015625,-0.453125,2.375
94,-0.4724121,0.10101318,0.8944702,1.40625,1.78125,2.78125
95,-0.4189453,0.09075928,0.8998413,8.21875,2.09375,6.921875
96,-0.57788086,0.10223389,0.9862671,8.65625,-0.25,3.71875
97,-0.5217285,-0.04815674,1.0177612,1.953125,-1.40625,-1.03125
98,-0.4650879,-0.028381348,0.9244995,-3.140625,-2.046875,-2.1875
99,-0.43017578,-0.013000488,0.9364624,-7.203125,-1.765625,-3.171875
100,-0.5539551,0.11199951,0.94573975,-4.34375,-0.390625,-0.65625
101,-0.48242188,0.18060303,0.8422241,5.640625,7.09375,7.078125
102,-0.4951172,0.024353027,0.9616089,6.234375,-0.75,4.0
103,-0.47021484,-0.081604004,0.96746826,-2.515625,-0.875,-0.75
104,-0.49487305,-0.0017700195,0.9767456,-7.296875,-1.03125,-3.265625
105,-0.55371094,0.027038574,0.95892334,-7.421875,-1.0,-3.734375
106,-0.62768555,0.047302246,0.8617554,-1.515625,3.078125,-3.78125
107,-0.44458008,0.19720459,0.8497925,2.515625,7.140625,-2.09375
108,-0.41430664,0.077819824,0.8563843,2.859375,4.328125,3.765625
109,-0.4963379,0.06390381,0.9923706,4.546875,-4.109375,2.015625
110,-0.5053711,0.022644043,0.99139404,-0.46875,-3.390625,0.234375
111,-0.49926758,0.035095215,0.9369507,-2.3125,-2.859375,-1.4375
112,-0.5119629,0.03656006,0.9137573,-3.046875,-3.296875,-1.734375
113,-0.5048828,0.08709717,0.87542725,-0.65625,6.34375,-0.5
114,-0.48999023,0.062194824,0.97039795,2.96875,0.859375,0.1875
115,-0.45410156,0.024108887,0.91522217,-0.890625,0.78125,-0.375
116,-0.49316406,0.0770874,0.9122925,1.796875,-2.328125,0.140625
117,-0.5185547,0.010192871,0.9508667,0.4375,0.671875,0.015625
118,-0.5336914,0.0524292,0.9545288,0.3125,7.5625,0.109375
119,-0.5090332,0.039001465,0.9266968,-1.609375,2.1875,-1.109375
120,-0.44091797,0.07562256,0.9135132,-1.875,1.71875,-0.03125
121,-0.49902344,0.07098389,0.9389038,-0.328125,-0.65625,0.875
122,-0.48168945,0.07977295,0.9208374,1.203125,-0.765625,1.9375
123,-0.51171875,0.04510498,0.94281006,-0.421875,-2.453125,2.609375
124,-0.4741211,0.05340576,0.9086304,-1.21875,0.71875,1.375
125,-0.50146484,0.020202637,0.96868896,-0.75,-0.765625,-0.15625
126,-0.49438477,0.02532959,0.9359741,-1.234375,-0.390625,-0.53125
127,-0.5007324,0.040222168,0.9269409,-2.0625,-0.546875,-0.984375
128,-0.51586914,0.043151855,0.91619873,-2.1875,0.890625,-0.203125
129,-0.51342773,0.06048584,0.9310913,-1.421875,-0.0625,-1.15625
130,-0.5541992,0.015808105,0.9977417,-2.5,-1.078125,-2.5625
131,-0.5649414,-0.022521973,0.9369507,-11.578125,11.25,-5.484375
132,-0.45581055,0.12249756,0.90740967,-6.515625,8.09375,-3.75
133,-0.4501953,0.16107178,0.89056396,1.171875,1.09375,0.078125
134,-0.25268555,0.13421631,0.57855225,14.6875,-5.375,10.671875
135,-0.5332031,0.2321167,1.027771,17.140625,-8.015625,10.96875
136,-0.763916,-0.16680908,1.118103,8.0,-3.421875,3.796875
137,-0.36621094,-0.010314941,0.8703003,-1.328125,8.9375,-0.015625
138,-0.42871094,-0.082336426,0.8834839,-5.84375,1.5,-0.453125
139,-0.44921875,0.20672607,0.92474365,2.21875,-1.171875,1.34375
140,-0.6542969,-0.085510254,1.0287476,2.53125,-11.421875,-2.46875
141,-0.55688477,-0.010070801,0.8793335,-2.546875,7.515625,-1.640625
142,-0.36865234,-0.03643799,0.9274292,-9.234375,0.828125,-3.984375
143,-0.49780273,0.11419678,0.95428467,-2.296875,-1.9375,-0.125
144,-0.56811523,-0.018127441,0.92303467,0.6875,0.96875,3.25
145,-0.52856445,0.019470215,0.9677124,-5.578125,5.25,1.03125
146,-0.45385742,0.06585693,0.8944702,-6.296875,7.984375,1.265625
147,-0.5102539,0.10223389,0.8744507,-3.421875,4.015625,1.984375
148,-0.5187988,0.13763428,0.9501343,-0.421875,-2.15625,4.125
149,-0.49267578,0.059020996,0.92718506,0.390625,-3.09375,2.03125
150,-0.5541992,0.019958496,0.95111084,-0.71875,-3.234375,-0.640625
151,-0.5644531,0.017028809,0.92718506,-2.453125,2.578125,-1.625
152,-0.5007324,0.07489014,0.9472046,-0.453125,1.703125,-2.90625
153,-0.5534668,-0.0115356445,1.027771,-2.78125,1.859375,-3.4375
154,-0.40405273,0.121520996,0.7470093,-5.421875,9.75,4.28125
155,-0.4970703,0.12615967,0.9279175,5.328125,-0.890625,4.625
156,-0.5275879,0.0021362305,0.9501343,1.859375,4.34375,1.375
157,-0.47314453,0.05609131,0.9467163,-1.390625,1.9375,-1.125
158,-0.45361328,0.053649902,0.89398193,-0.265625,2.015625,-0.234375
159,-0.46557617,0.05657959,0.93377686,0.171875,-0.8125,-0.875
160,-0.5144043,0.082214355,0.9137573,0.484375,-1.390625,1.015625
161,-0.50219727,0.04168701,0.9996948,1.796875,0.15625,-0.375
162,-0.46118164,0.061706543,0.9257202,0.875,4.25,2.546875
163,-0.375,0.007507324,0.9398804,-1.859375,-3.453125,1.765625
164,-0.5222168,0.051696777,0.8973999,-2.15625,-6.265625,5.25
165,-0.53637695,0.03338623,0.92108154,-1.046875,-3.375,3.140625
166,-0.5847168,0.047058105,0.9633179,-2.09375,-0.6875,-0.5625
167,-0.52783203,0.06390381,0.9118042,0.4375,5.296875,-0.71875
168,-0.45629883,0.06536865,0.9093628,0.71875,1.109375,-2.25
169,-0.49389648,0.06512451,0.94085693,0.46875,-1.046875,-2.453125
170,-0.546875,0.03704834,0.9418335,-1.328125,0.65625,-1.390625
171,-0.47802734,0.031188965,0.9430542,-5.15625,6.53125,-1.6875
172,-0.53222656,0.03289795,1.0282593,-10.1875,14.328125,-3.078125
173,-0.5715332,0.07928467,0.95965576,-11.03125,16.609375,-2.6875
174,-0.3552246,0.14349365,0.82977295,3.21875,6.609375,1.078125
175,-0.30493164,0.08831787,0.8287964,9.28125,-13.390625,6.75
176,-0.51123047,0.13885498,0.9940796,14.515625,-24.6875,9.6875
177,-0.66259766,-0.013000488,1.1449585,6.4375,-12.265625,-1.015625
178,-0.5361328,-0.02130127,0.8978882,0.078125,3.65625,-1.15625
179,-0.5073242,-0.05279541,0.9122925,-3.71875,4.203125,-2.515625
180,-0.4177246,0.093933105,0.96673584,-2.578125,1.6875,-1.515625
181,-0.5683594,0.051208496,0.8942261,-2.4375,-6.09375,0.515625
182,-0.4482422,0.22943115,0.82684326,5.109375,4.703125,7.34375
183,-0.68408203,-0.22857666,1.074646,3.359375,2.453125,-0.25
184,-0.37451172,0.042663574,0.8756714,-4.09375,5.03125,-2.765625
185,-0.5876465,0.01361084,0.92596436,-3.125,-0.015625,-1.03125
186,-0.46069336,0.22259521,0.8851929,1.375,-2.171875,0.78125
187,-0.51904297,0.008972168,0.9291382,0.703125,-2.28125,-0.40625
188,-0.4633789,0.12176514,0.855896,0.71875,-4.953125,1.421875
189,-0.59155273,0.013366699,0.9381714,-0.234375,-1.453125,0.53125
190,-0.59033203,-0.059387207,1.0582886,0.0,4.96875,-2.234375
191,-0.46142578,0.06756592,0.8305054,-5.59375,5.140625,-0.546875
192,-0.47070312,0.042419434,0.9852905,0.078125,-4.125,-2.984375
193,-0.47973633,-0.0012817383,0.93084717,-1.671875,1.609375,-1.140625
194,-0.53393555,0.14056396,0.8834839,-3.375,1.53125,0.578125
195,-0.57006836,0.074157715,0.888855,3.078125,0.96875,3.015625
196,-0.5710449,-0.05987549,0.9242554,1.75,1.484375,2.890625
197,-0.6184082,0.06121826,0.94696045,3.96875,4.8125,2.03125
198,-0.5341797,0.046325684,0.9682007,1.578125,3.1875,-0.625
199,-0.46166992,0.06365967,0.9059448,5.734375,1.984375,0.28125
200,-0.4897461,0.06561279,0.88739014,7.0625,-3.703125,-0.640625
201,-0.46289062,0.008483887,0.92645264,1.953125,1.25,-0.1875
202,-0.57958984,-0.028137207,0.9376831,-3.28125,1.328125,0.25
203,-0.48510742,0.015319824,0.98846436,-2.46875,4.53125,-3.09375
204,-0.6218262,-0.0947876,1.0079956,-12.78125,4.390625,-4.015625
205,-0.48510742,-0.055725098,0.92181396,-11.578125,14.3125,-0.359375
206,-0.4453125,0.14593506,0.9047241,-5.765625,2.078125,-3.640625
207,-0.39624023,0.21331787,0.81243896,5.0,-0.84375,0.1875
208,-0.40600586,0.16888428,0.80145264,12.453125,-3.28125,7.171875
209,-0.6237793,0.13909912,0.9869995,18.71875,-22.578125,12.375
210,-0.5986328,-0.0051879883,1.0663452,13.9375,-7.359375,3.953125
211,-0.50268555,-0.23297119,0.9320679,-1.890625,-3.84375,-5.5
212,-0.5046387,-0.066711426,0.79364014,-8.625,4.625,-2.203125
213,-0.5383301,0.0211792,0.94744873,-13.125,6.140625,-2.984375
214,-0.50268555,0.3468628,0.96795654,-2.515625,0.984375,4.625
215,-0.63256836,-0.05670166,1.0848999,4.59375,-1.65625,6.765625
216,-0.44482422,-0.08355713,0.83807373,5.796875,7.84375,10.28125
217,-0.41064453,-0.047180176,0.8151245,-0.796875,-5.890625,1.046875
218,-0.576416,0.0927124,1.074646,7.59375,-6.0625,-0.453125
219,-0.6464844,-0.040100098,0.9035034,-8.125,-2.6875,-6.109375
220,-0.46704102,0.046325684,0.90130615,-3.53125,5.703125,-3.8125
221,-0.5397949,0.027282715,0.9064331,-0.875,-14.390625,-0.125
222,-0.72680664,0.113220215,0.95843506,-0.375,-4.90625,0.171875
223,-0.55859375,-0.09429932,0.836853,-6.109375,3.390625,-5.9375
224,-0.6364746,0.16595459,0.84295654,-2.609375,0.859375,-2.5625
225,-0.47216797,0.09295654,0.887146,13.90625,-5.765625,-5.296875
226,-0.42797852,-0.11553955,0.8366089,0.375,-7.734375,-2.984375
227,-0.5202637,-0.05621338,0.8973999,-4.5,4.21875,-5.703125
228,-0.6118164,0.08074951,0.86761475,-7.8125,-4.8125,-2.484375
229,-0.49389648,-0.046203613,0.9203491,10.171875,0.0625,3.0625
230,-0.62353516,0.038024902,0.75042725,-2.109375,-10.078125,4.734375
231,-0.57958984,-0.19171143,0.9398804,-2.0,0.984375,0.234375
232,-0.7248535,0.25994873,0.9071655,-8.359375,5.03125,-0.71875
233,-0.46240234,-0.013244629,0.88690186,0.0625,-1.53125,-1.703125
234,-0.8239746,0.1876831,0.8480835,2.859375,-5.234375,6.640625
235,-0.6879883,0.04534912,0.9840698,-0.171875,1.234375,-5.1875
236,-0.8642578,-0.10211182,0.8710327,8.234375,16.8125,4.1875
237,-0.21313477,0.22845459,0.9891968,-1.84375,7.953125,-9.609375
238,-0.5979004,-0.0037231445,0.824646,11.953125,-5.03125,10.40625
239,-0.49609375,-0.01763916,0.8810425,-10.65625,-6.140625,-7.984375
240,-0.7026367,-0.08721924,0.9503784,2.6875,9.53125,3.46875
241,-0.3466797,0.15179443,0.8915405,-6.609375,1.640625,-5.21875
242,-0.49487305,0.13787842,0.920105,10.890625,1.671875,7.703125
243,-0.5234375,0.028747559,0.9118042,-7.15625,-7.890625,-0.515625
244,-0.62646484,-0.027648926,0.93670654,-1.78125,5.078125,0.015625
245,-0.6062012,0.1564331,0.8600464,-3.796875,4.625,-1.8125
246,-0.4638672,-0.0068969727,0.8329468,2.40625,5.640625,0.328125
247,-0.71728516,0.03289795,0.8397827,4.875,-9.765625,4.1875
248,-0.5632324,-0.14678955,0.8539429,-5.09375,5.921875,-4.34375
249,-0.5720215,0.10882568,0.9113159,-3.703125,6.734375,0.03125
250,-0.41748047,0.11444092,0.8197632,2.421875,0.46875,0.984375
251,-0.6567383,-0.14874268,1.0326538,5.125,-4.3125,5.71875
252,-0.53393555,0.13543701,0.7523804,-6.9375,0.359375,-1.265625
253,-0.579834,-0.078186035,1.0004272,2.6875,-1.90625,5.15625
254,-0.44018555,0.246521,0.78045654,1.3125,1.5625,5.3125
255,-0.71435547,-0.2144165,0.9682007,0.328125,-7.140625,7.96875
256,-0.4970703,0.028259277,0.7562866,-0.34375,9.828125,6.234375
257,-0.6645508,0.0065307617,0.8908081,0.203125,-0.890625,8.1875
258,-0.35473633,-0.008117676,0.7345581,3.140625,9.375,10.734375
259,-0.7944336,-0.14678955,0.89715576,2.53125,-12.484375,4.890625
260,-0.7253418,-0.019592285,0.8226929,-0.6875,9.375,9.453125
261,-0.609375,-0.02960205,0.9401245,-3.265625,9.96875,5.84375
262,-0.39233398,-0.019836426,0.79119873,-5.875,8.796875,1.46875
263,-0.5683594,0.023864746,0.8966675,-0.59375,8.109375,5.796875
264,-0.4897461,-0.07305908,0.9359741,-3.59375,8.8125,3.15625
265,-0.546875,-0.014221191,0.9545288,-0.984375,16.5,5.75
266,-0.5629883,0.050231934,0.9064331,-3.328125,15.078125,3.109375
267,-0.38256836,0.061950684,0.90960693,-2.375,3.015625,1.234375
268,-0.46923828,-0.0725708,0.98236084,-0.3125,-0.296875,1.390625
269,-0.44580078,-0.031799316,0.9833374,-0.046875,9.28125,2.171875
270,-0.4091797,-0.028625488,0.94451904,-3.265625,8.015625,-0.65625
271,-0.41992188,0.023620605,0.9711304,-1.609375,2.515625,-1.765625
272,-0.35791016,-0.022277832,1.0136108,-1.015625,-2.59375,-0.484375
273,-0.48901367,0.02557373,0.9633179,-0.171875,-2.5625,-0.140625
274,-0.3684082,-0.051818848,0.932312,-0.71875,3.71875,-0.71875
275,-0.50927734,-0.05670166,1.038269,-2.15625,1.921875,-3.109375
276,-0.5625,-0.04058838,0.97869873,-1.765625,11.90625,-1.453125
277,-0.38549805,0.011657715,0.9098511,-0.28125,1.828125,-2.46875
278,-0.36206055,0.08514404,0.8427124,3.140625,-5.1875,0.328125
279,-0.35766602,0.020446777,0.715271,11.125,-18.25,4.046875
280,-0.5773926,0.14837646,0.85150146,9.984375,-3.5625,2.015625
281,-0.39086914,-0.2078247,0.9293823,4.234375,-8.328125,-8.515625
282,-0.67456055,-0.14703369,0.9515991,2.8125,-4.09375,0.28125
283,-0.31689453,-0.13458252,0.77264404,-8.1875,7.0,-6.921875
284,-0.57543945,0.2399292,0.9874878,-2.671875,-7.6875,3.765625
285,-0.43847656,-0.07965088,0.8812866,2.21875,-9.3125,5.59375
286,-0.50634766,-0.032043457,0.83929443,0.765625,-6.046875,5.640625
287,-0.34545898,-0.0335083,0.9088745,-0.984375,-3.078125,4.265625
288,-0.6870117,0.19476318,0.9869995,4.40625,-7.546875,5.859375
289,-0.49853516,-0.35894775,0.82196045,-3.546875,-3.34375,-1.828125
290,-0.6855469,-0.04888916,0.9032593,-0.484375,5.109375,1.5625
291,-0.36035156,-0.1338501,0.9188843,-2.109375,-2.125,-9.25
292,-0.96899414,0.137146,0.8890991,4.078125,-2.546875,9.515625
293,-0.29858398,-0.33355713,0.7536011,4.125,-5.828125,-6.953125
294,-0.6225586,0.1671753,0.72406006,-6.15625,2.09375,-4.25
295,-0.6164551,-0.17071533,0.99749756,0.390625,-6.78125,-8.953125
296,-0.63793945,0.33270264,0.8883667,0.53125,4.0,3.234375
297,-0.44091797,-0.19854736,0.8344116,12.09375,-2.828125,-4.5
298,-0.5883789,-0.16778564,0.61590576,-5.484375,11.453125,3.640625
299,-0.53808594,-0.085510254,1.1205444,0.40625,-2.03125,-7.453125
300,-0.64038086,0.09613037,0.8163452,-4.203125,11.5,3.296875
301,-0.4555664,-0.016906738,0.9122925,9.828125,-1.640625,2.0625
302,-0.59228516,-0.2053833,0.7848511,0.296875,1.515625,6.5
303,-0.44628906,0.03363037,0.78582764,-0.109375,7.421875,-3.96875
304,-0.6652832,-0.20050049,1.0040894,-3.40625,4.765625,0.5
305,-0.4465332,0.20477295,0.885437,-0.734375,12.28125,-2.1875
306,-0.60913086,-0.23638916,0.93573,1.875,0.796875,5.96875
307,-0.47802734,-0.018371582,0.7872925,-0.515625,3.078125,0.640625
308,-0.4416504,-0.15289307,0.99554443,-0.65625,2.375,5.234375
309,-0.64404297,0.058532715,0.88861084,-8.703125,-4.515625,-1.234375
310,-0.5280762,-0.010070801,0.91986084,-9.390625,12.265625,-2.796875
311,-0.4572754,0.00970459,0.86590576,-7.90625,8.53125,0.890625
312,-0.44067383,0.07098389,0.9320679,-4.53125,6.90625,-6.296875
313,-0.42114258,-0.10723877,0.9594116,5.734375,8.4375,-3.765625
314,-0.47094727,0.050476074,0.91033936,5.0,5.609375,-3.25
315,-0.44726562,-0.12628174,0.9508667,3.875,2.421875,-3.265625
316,-0.38867188,-0.035705566,0.9225464,-0.9375,-0.625,-2.421875
317,-0.41503906,-0.11260986,0.98968506,-14.5625,2.125,-3.0
318,-0.47802734,-0.06500244,1.0604858,-30.75,0.6875,-5.484375
319,-0.5444336,0.101501465,0.83465576,-33.421875,11.4375,-3.203125
320,-0.44360352,0.31829834,0.89398193,-9.828125,5.796875,-1.78125
321,-0.41967773,0.23773193,0.81292725,7.296875,-3.953125,1.28125
322,-0.39990234,0.18231201,0.8998413,24.953125,-23.25,7.75
323,-0.6796875,0.018005371,0.80999756,21.359375,-9.96875,4.140625
324,-0.4128418,-0.01373291,0.9816284,16.0,-26.0625,4.171875
325,-0.63256836,-0.12384033,0.78167725,1.578125,-7.953125,-2.953125
326,-0.49316406,0.0079956055,0.8793335,3.6875,0.0,1.546875
327,-0.5673828,-0.028625488,0.9069214,-3.421875,-2.84375,-5.28125
328,-0.56030273,-0.012512207,1.1073608,-0.859375,-7.265625,1.46875
329,-0.6286621,0.10467529,0.69989014,-7.703125,0.515625,-2.421875
330,-0.4946289,-0.043029785,0.89520264,1.21875,7.0625,-2.71875
331,-0.5058594,-0.058898926,0.84368896,-0.9375,0.421875,2.3125
332,-0.4909668,0.078308105,0.82611084,4.90625,5.25,2.78125
333,-0.74121094,-0.12750244,0.9821167,-0.15625,-7.890625,0.515625
334,-0.4489746,0.2086792,0.8139038,8.796875,4.046875,5.796875
335,-0.71313477,-0.23345947,0.9850464,-1.71875,-3.546875,0.859375
336,-0.5625,0.24578857,0.82489014,0.09375,7.046875,2.59375
337,-0.6064453,-0.15655518,0.94329834,-0.453125,-2.3125,0.765625
338,-0.61083984,0.19940186,0.88079834,0.828125,-0.078125,1.953125
339,-0.52563477,-0.15509033,1.0180054,4.234375,-4.6875,0.390625
340,-0.66308594,0.2453003,0.91033936,-1.390625,-1.5625,-0.6875
341,-0.42041016,-0.34747314,0.8187866,-0.640625,4.5625,-1.421875
342,-0.54711914,0.2567749,0.9718628,-3.84375,2.34375,-3.28125
343,-0.5395508,-0.2119751,0.85369873,3.28125,-1.453125,-1.46875
344,-0.6052246,0.20599365,1.0846558,1.328125,-5.65625,-0.671875
345,-0.44799805,-0.23614502,0.6757202,-3.53125,3.171875,-2.953125
346,-0.592041,0.04168701,0.9550171,0.53125,-1.234375,-3.5
347,-0.45141602,-0.029846191,0.79071045,-1.78125,10.328125,-5.453125
348,-0.5866699,0.08319092,0.9122925,0.421875,-1.40625,0.03125
349,-0.43896484,-0.009094238,0.87176514,-1.328125,4.015625,-1.453125
350,-0.7788086,0.04827881,0.95648193,-0.15625,2.296875,5.828125
351,-0.4416504,0.018249512,0.76776123,0.78125,-4.65625,-2.671875
352,-0.6791992,-0.06011963,0.91619873,-0.09375,0.65625,3.984375
353,-0.40820312,-0.026428223,0.8344116,-0.796875,2.4375,-4.953125
354,-0.71069336,-0.037902832,0.920105,0.703125,0.71875,-1.390625
355,-0.4362793,0.02142334,0.96746826,0.921875,-2.765625,-6.8125
356,-0.62524414,-0.033996582,0.81121826,-0.765625,4.0625,2.71875
357,-0.47509766,0.230896,0.9906616,-3.328125,-1.71875,-1.71875
358,-0.5966797,-0.12750244,0.89276123,-0.765625,1.703125,1.609375
359,-0.47192383,0.24603271,0.9677124,0.3125,-5.078125,-1.0
360,-0.673584,-0.10797119,0.88690186,0.515625,-0.328125,-0.078125
361,-0.49560547,0.12786865,0.8864136,-0.828125,2.6875,-2.9375
362,-0.60913086,-0.07623291,0.8781128,-0.96875,3.6875,-3.015625
363,-0.61694336,0.034606934,0.9069214,-12.1875,8.828125,-6.15625
364,-0.50024414,0.02508545,0.8463745,-5.34375,-0.5625,-11.03125
365,-0.4963379,0.05291748,0.89056396,-1.421875,1.96875,-3.75
366,-0.49829102,0.008728027,0.88275146,0.640625,-1.53125,-1.34375
367,-0.54956055,0.07171631,0.86224365,1.15625,2.1875,-0.421875
368,-0.6652832,0.057800293,0.92059326,9.984375,20.71875,1.234375
369,-0.47509766,-0.0022583008,0.97088623,3.671875,13.53125,-0.484375
370,-0.6088867,-0.014221191,0.9684448,-3.625,10.203125,-3.1875
371,-0.39697266,0.11859131,0.8600464,-2.359375,3.5,-2.71875
372,-0.4765625,-0.003479004,0.95306396,-2.5,-0.6875,-1.0
373,-0.48461914,0.12567139,0.92889404,-1.984375,-2.953125,1.109375
374,-0.47216797,0.053649902,0.91815186,-2.453125,1.453125,2.6875
375,-0.43725586,0.046325684,0.96746826,-3.484375,2.390625,4.25
376,-0.56347656,0.055603027,1.0140991,-6.984375,8.96875,3.15625
377,-0.48535156,0.113464355,0.885437,-5.234375,5.484375,2.15625
378,-0.36938477,0.14031982,0.8624878,-0.515625,-7.859375,3.9375
379,-0.5253906,0.121520996,0.83514404,7.9375,-7.140625,7.25
380,-0.49194336,0.0680542,0.8163452,7.328125,-11.375,9.953125
381,-0.6064453,-0.039123535,0.93377686,9.5,-5.03125,9.515625
382,-0.5517578,-0.19049072,0.9664917,4.265625,-12.765625,6.75
383,-0.60424805,-0.03668213,0.8522339,2.5625,1.4375,10.34375
384,-0.46020508,-0.089416504,0.8942261,-2.328125,1.15625,7.375
385,-0.5891113,-0.019104004,0.8578491,-5.453125,2.203125,3.40625
386,-0.59375,0.018981934,0.9423218,-2.421875,5.9375,2.203125
387,-0.5859375,-0.03717041,0.95892334,-2.421875,6.15625,-0.59375
388,-0.56762695,0.03289795,0.901062,-1.171875,6.265625,0.234375
389,-0.5083008,-0.02130127,0.92596436,-1.3125,8.046875,0.046875
390,-0.51831055,0.06903076,0.9398804,-0.578125,3.359375,0.0
391,-0.5251465,0.013122559,0.95599365,-3.4375,0.359375,-0.40625
392,-0.49194336,0.016540527,0.9274292,-1.75,5.375,-1.703125
393,-0.44384766,-0.028137207,0.9232788,0.609375,-1.25,0.84375
394,-0.53881836,-0.0037231445,0.9137573,-1.65625,-0.046875,0.46875
395,-0.5378418,0.09051514,0.9586792,-0.1875,-2.3125,1.3125
396,-0.5085449,0.0021362305,0.90374756,0.171875,-2.5,0.921875
397,-0.5354004,-0.046936035,0.9437866,-0.03125,-1.921875,0.296875
398,-0.5266113,0.06463623,0.8776245,-0.90625,-4.125,0.765625
399,-0.5192871,-0.043273926,0.91522217,-1.03125,-5.0,0.453125
400,-0.5654297,0.0048217773,0.9064331,-0.484375,2.34375,0.6875
401,-0.5871582,-0.0015258789,0.90545654,-0.953125,-0.453125,1.6875
402,-0.51293945,-0.010314941,0.94281006,-0.609375,-1.390625,-0.296875
403,-0.5595703,0.042419434,0.8798218,-2.203125,1.890625,-0.640625
404,-0.53027344,-0.049621582,0.8912964,0.515625,0.6875,-1.671875
405,-0.5253906,-0.01739502,0.9303589,-2.34375,7.859375,-2.203125
406,-0.63378906,0.014587402,0.97283936,-13.734375,5.15625,-3.78125
407,-0.43115234,0.19598389,0.8251343,-4.828125,4.546875,-7.546875
408,-0.548584,-0.00982666,0.9254761,0.828125,2.421875,-4.453125
409,-0.4633789,-0.02178955,0.9689331,-1.09375,5.609375,-3.296875
410,-0.5644531,-0.0064086914,1.0231323,-6.921875,15.828125,-4.171875
411,-0.40185547,0.051940918,0.88616943,-3.859375,12.96875,-3.6875
412,-0.5090332,0.097351074,0.9332886,-0.921875,2.234375,-2.296875
413,-0.421875,0.13201904,0.85980225,4.75,-4.15625,1.703125
414,-0.47021484,0.053894043,0.89837646,7.0625,-8.765625,3.484375
415,-0.4663086,0.07562256,0.75579834,0.71875,-6.328125,7.34375
416,-0.6274414,-0.018859863,1.0927124,1.640625,-11.890625,0.890625
417,-0.4572754,0.08880615,0.88983154,-2.625,-1.125,0.84375
418,-0.5444336,-0.010070801,0.8961792,-1.390625,-4.890625,-0.6875
419,-0.5554199,0.24163818,0.9257202,14.21875,-9.234375,5.734375
420,-0.48657227,-0.120666504,0.9677124,2.8125,-17.71875,-3.15625
421,-0.5654297,-0.031555176,0.74139404,-3.40625,7.59375,0.296875
422,-0.56762695,-0.07330322,0.8890991,-3.703125,1.765625,-0.484375
423,-0.46655273,0.15057373,0.8912964,0.125,2.78125,2.3125
424,-0.67871094,-0.15411377,0.8512573,-1.4375,-1.6875,1.6875
425,-0.50805664,0.082214355,0.89837646,-0.421875,7.59375,-1.140625
426,-0.5876465,0.054870605,0.92718506,0.8125,2.265625,2.453125
427,-0.5407715,0.05999756,0.89886475,0.265625,-3.25,-0.046875
428,-0.5788574,-0.05596924,0.9179077,1.09375,4.765625,1.484375
429,-0.47558594,0.07684326,0.88397217,-1.578125,2.921875,-1.078125
430,-0.5175781,0.07611084,0.97991943,4.46875,2.1875,3.265625
431,-0.5571289,-0.042785645,0.80023193,-1.984375,-3.421875,0.25
432,-0.59375,-0.023986816,0.85687256,0.34375,7.125,0.828125
433,-0.60424805,-0.026916504,0.9476929,-4.796875,3.6875,-0.34375
434,-0.49853516,0.18255615,0.90496826,-1.1875,-3.203125,0.71875
435,-0.5786133,-0.06378174,0.87542725,-2.015625,-3.0,1.15625
436,-0.49487305,0.05731201,0.8998413,-2.390625,3.859375,-0.390625
437,-0.54003906,0.011169434,0.9081421,-6.53125,5.6875,-3.46875
438,-0.5541992,0.006286621,0.88275146,-8.171875,19.265625,-1.546875
439,-0.5078125,0.055603027,0.9569702,-6.5,14.5625,-1.125
440,-0.50097656,-0.009094238,1.0067749,-6.96875,11.6875,-3.28125
441,-0.58154297,-0.019104004,1.1063843,-11.75,22.328125,-3.65625
442,-0.35888672,0.15350342,0.8546753,-2.703125,15.71875,-0.515625
443,-0.3474121,0.21014404,0.81781006,7.828125,-7.09375,0.0625
444,-0.32763672,0.1720581,0.8539429,17.859375,-22.0625,5.25
445,-0.56884766,-0.0015258789,0.96014404,16.078125,-24.25,6.859375
446,-0.46191406,0.0138549805,0.9371948,7.390625,-9.3125,2.21875
447,-0.70166016,-0.15118408,1.0111694,-2.4375,-12.109375,1.46875
448,-0.49682617,0.09613037,0.8590698,-0.5,5.4375,5.234375
449,-0.53344727,-0.062561035,0.8842163,-3.71875,12.125,3.671875
450,-0.47387695,0.005554199,0.92474365,-7.875,7.53125,1.96875
451,-0.6179199,-0.06524658,0.98773193,-12.3125,4.46875,-5.390625
452,-0.5576172,0.058532715,0.91448975,-12.46875,10.234375,-4.65625
453,-0.48461914,0.13934326,0.9122925,-0.984375,7.03125,-2.78125
454,-0.3857422,0.1671753,0.8629761,4.375,-2.578125,-2.046875
455,-0.4729004,0.07269287,0.8781128,5.171875,-6.90625,-0.71875
456,-0.43481445,0.07489014,0.7819214,0.25,-3.84375,1.84375
457,-0.55078125,0.07244873,0.9677124,2.328125,-6.140625,-0.9375
458,-0.52368164,0.028015137,1.0250854,3.0625,-5.265625,-1.296875
459,-0.5515137,-0.023742676,0.92352295,-0.625,0.609375,0.890625
460,-0.44262695,0.026306152,0.8834839,0.90625,-0.90625,2.21875
461,-0.56689453,0.06463623,0.8512573,1.171875,-5.703125,4.390625
462,-0.6308594,0.070495605,0.9725952,-0.453125,-5.34375,1.53125
463,-0.5583496,-0.028381348,0.92645264,-1.734375,3.625,1.125
464,-0.4975586,0.03656006,0.89959717,-1.53125,4.359375,-0.8125
465,-0.54907227,-0.016662598,0.9423218,-1.953125,8.984375,-1.015625
466,-0.56762695,0.030456543,0.9484253,-5.671875,10.15625,-2.34375
467,-0.4802246,0.031921387,0.9491577,-6.734375,9.203125,-4.0625
468,-0.5361328,0.03778076,0.94158936,-8.4375,2.21875,-5.203125
469,-0.48657227,0.1486206,0.85028076,-3.3125,1.53125,-3.546875
470,-0.50634766,0.17132568,0.87420654,1.53125,-3.390625,-2.046875
471,-0.46557617,0.11224365,0.87664795,5.265625,-5.5625,0.46875
472,-0.5048828,0.04510498,0.8746948,5.53125,-6.65625,2.125
473,-0.5192871,0.081970215,0.81585693,2.75,-8.078125,2.734375
474,-0.5180664,0.07928467,0.9244995,3.75,-5.71875,3.296875
475,-0.70703125,-0.046691895,1.137146,-0.359375,-8.96875,1.296875
476,-0.3190918,0.09539795,0.6630249,-3.25,4.9375,-1.921875
477,-0.58496094,0.05657959,0.9755249,2.03125,-7.46875,-1.734375
478,-0.5559082,0.1227417,0.77679443,2.328125,-1.0625,4.453125
479,-0.5942383,-0.057434082,0.9743042,0.203125,-7.71875,0.46875
480,-0.5078125,0.03289795,0.8695679,-1.5625,1.859375,0.21875
481,-0.57299805,-0.028869629,0.946228,0.484375,-0.46875,0.484375
482,-0.5151367,0.07196045,0.8204956,-2.59375,3.21875,-2.390625
483,-0.5847168,-0.003967285,0.8727417,3.015625,4.65625,-0.15625
484,-0.55444336,0.046081543,0.87835693,-1.890625,4.8125,-0.671875
485,-0.58154297,0.09539795,0.914978,-2.6875,6.109375,-1.796875
486,-0.5402832,0.030456543,0.9052124,-5.09375,8.015625,-2.953125
487,-0.57128906,0.10687256,0.89886475,-3.234375,7.5,-2.8125
488,-0.55029297,0.03289795,0.9598999,-3.46875,9.546875,-2.515625
489,-0.5720215,0.024841309,0.99212646,-6.296875,5.078125,-3.53125
490,-0.60131836,0.10321045,0.91693115,-1.984375,1.734375,-2.65625
491,-0.40795898,0.24627686,0.7658081,10.046875,-20.296875,-3.390625
492,-0.52124023,0.08074951,0.86639404,10.8125,-12.734375,-0.265625
493,-0.5283203,0.051940918,0.80023193,6.40625,-9.203125,3.765625
494,-0.39672852,0.09320068,0.8095093,6.75,-0.015625,6.328125
495,-0.7102051,-0.04083252,0.98236084,-1.59375,-5.109375,1.125
496,-0.56030273,-0.008361816,0.8600464,-1.640625,-0.671875,1.578125
497,-0.611084,0.01727295,0.914978,-2.140625,0.671875,0.375
498,-0.5756836,0.082458496,0.8969116,-1.4375,0.78125,0.140625
499,-0.58691406,0.045837402,0.84588623,-1.875,0.609375,2.40625
500,-0.62109375,0.0446167,0.9364624,-1.875,-0.5,0.328125
501,-0.59399414,0.01727295,0.8949585,-3.234375,5.859375,-0.78125
502,-0.5847168,0.047058105,0.89276123,-3.953125,10.3125,-0.3125
503,-0.6022949,0.06048584,0.8829956,-2.125,9.59375,1.125
504,-0.5065918,0.10491943,0.8109741,0.234375,7.9375,3.46875
505,-0.60253906,0.101257324,0.9269409,3.875,2.78125,4.59375
506,-0.5349121,0.030212402,0.9154663,-0.96875,4.09375,3.34375
507,-0.55859375,0.00091552734,0.9137573,0.921875,0.140625,2.640625
508,-0.54589844,0.018005371,0.932312,-1.03125,5.03125,1.390625
509,-0.5461426,0.059020996,0.90179443,-0.671875,9.734375,0.8125
510,-0.515625,0.028747559,0.89764404,0.125,9.21875,1.484375
511,-0.5300293,0.05682373,0.9401245,2.828125,4.140625,0.75
512,-0.46777344,0.013366699,0.93621826,0.40625,6.015625,-0.359375
513,-0.5266113,-0.0022583008,1.0023804,-3.71875,4.03125,-1.984375
514,-0.50268555,0.029968262,0.9430542,-5.890625,8.609375,-1.59375
515,-0.43969727,0.08514404,0.92401123,-2.8125,6.40625,-1.046875
516,-0.4572754,0.08856201,0.90423584,-0.96875,-0.96875,-0.484375
517,-0.45385742,0.07879639,0.8864136,1.375,-5.21875,0.71875
518,-0.5007324,0.05731201,0.9242554,4.3125,-8.359375,1.546875
519,-0.43652344,0.059020996,0.8029175,4.25,-9.546875,5.78125
520,-0.5930176,0.0072631836,1.0116577,4.578125,-11.9375,2.984375
521,-0.56591797,-0.014221191,0.8629761,1.046875,-3.6875,2.390625
522,-0.53125,-0.020080566,0.94158936,-1.84375,-4.5,-0.9375
523,-0.52856445,0.034362793,0.90545654,-1.75,-2.765625,0.859375
524,-0.48706055,0.13494873,0.90057373,4.4375,-0.375,4.921875
525,-0.5397949,-0.03741455,0.9916382,7.03125,-10.03125,-2.5
526,-0.5673828,0.036315918,0.77264404,1.84375,1.421875,0.15625
527,-0.5720215,-0.03668213,0.96014404,0.171875,-6.453125,-0.359375
528,-0.6152344,0.0289917,0.79901123,-2.125,4.75,5.28125
529,-0.5932617,-0.026916504,0.9557495,0.5625,3.734375,1.203125
530,-0.5422363,0.024353027,0.7875366,-0.375,5.71875,2.75
531,-0.61499023,-0.050842285,1.0470581,0.84375,0.8125,-0.390625
532,-0.53808594,-0.003479004,0.7797241,-0.8125,6.0,1.421875
533,-0.57958984,-0.004211426,0.9257202,-0.421875,6.671875,-0.859375
534,-0.4580078,-0.06500244,0.9093628,-2.28125,7.515625,-2.390625
535,-0.53393555,0.019958496,0.8842163,-2.828125,9.234375,-0.234375
536,-0.59106445,-0.0015258789,0.93865967,-4.171875,9.125,1.234375
537,-0.5136719,0.0048217773,0.92962646,-5.265625,11.1875,0.015625
538,-0.51049805,-0.022766113,0.97210693,-6.375,9.640625,0.5625
539,-0.52197266,0.07952881,0.9660034,-2.65625,2.84375,-0.71875
540,-0.4790039,0.019470215,0.9520874,-0.6875,6.3125,-3.21875
541,-0.41308594,0.12030029,0.8566284,1.015625,0.109375,-0.390625
542,-0.4338379,0.078308105,0.869812,5.734375,-4.34375,-0.03125
543,-0.47827148,0.15765381,0.87908936,3.59375,-6.34375,5.25
544,-0.5275879,0.009216309,1.0140991,3.25,-5.96875,1.5
545,-0.4880371,-0.10772705,0.90911865,0.046875,-6.9375,0.453125
546,-0.5283203,-0.050598145,0.93011475,-2.15625,-0.421875,0.125
547,-0.52856445,0.007751465,0.92962646,-4.25,2.734375,-1.984375
548,-0.41137695,0.20648193,0.9020386,5.59375,3.46875,-4.5625
549,-0.64331055,-0.07598877,0.9071655,2.734375,-7.125,-0.21875
550,-0.42504883,-0.026428223,0.88275146,1.640625,-1.25,2.734375
551,-0.5078125,-0.030578613,0.9489136,-3.484375,0.921875,0.390625
552,-0.60791016,-0.058654785,0.98236084,-6.359375,4.046875,-0.9375
553,-0.47973633,0.08074951,0.8612671,-5.671875,0.265625,-1.796875
554,-0.57299805,0.039733887,0.93255615,2.578125,-0.46875,0.765625
555,-0.5649414,0.10784912,0.90618896,1.78125,-0.203125,2.203125
556,-0.6142578,-0.09234619,0.9711304,0.765625,-4.5,-1.046875
557,-0.46557617,0.04046631,0.84002686,-1.828125,3.359375,-2.375
558,-0.5266113,-0.02545166,0.9467163,-1.96875,-1.625,-3.234375
559,-0.52905273,0.07659912,0.868103,-1.984375,2.796875,0.453125
560,-0.53808594,0.061706543,0.92230225,0.3125,-4.71875,1.6875
561,-0.52783203,-0.009338379,0.8932495,-1.234375,0.484375,2.53125
562,-0.5161133,0.024108887,0.916687,-1.09375,-1.578125,0.328125
563,-0.54248047,0.02166748,0.8890991,-1.578125,2.34375,1.3125
564,-0.56518555,-0.023254395,0.88616943,-2.0,2.296875,0.390625
565,-0.5341797,0.023620605,0.89056396,-2.53125,2.84375,-0.3125
566,-0.5593262,-0.014221191,0.94329834,-4.15625,6.71875,-0.84375
567,-0.63427734,0.13885498,0.8331909,-6.234375,17.75,-1.4375
568,-0.35498047,0.08905029,0.9435425,0.515625,-9.234375,-9.375
569,-0.53564453,-0.045959473,1.0282593,-0.921875,-3.484375,-2.59375
570,-0.47607422,0.09466553,0.9171753,0.609375,0.53125,-0.046875
571,-0.50219727,0.0836792,0.9154663,2.78125,0.09375,0.15625
572,-0.51782227,0.00091552734,0.90667725,-0.53125,-4.0625,-1.03125
573,-0.5151367,0.008972168,0.9352417,0.453125,-0.203125,0.65625
574,-0.5344238,-0.01739502,0.84368896,-4.921875,-1.359375,1.6875
575,-0.47924805,0.16156006,0.9274292,2.015625,-4.28125,4.109375
576,-0.66918945,-0.07354736,0.90008545,-2.1875,-7.625,2.90625
577,-0.45898438,0.17034912,0.91619873,0.265625,4.453125,0.34375
578,-0.6838379,-0.07989502,0.92303467,-1.859375,-0.625,2.171875
579,-0.45458984,0.3295288,0.9076538,8.5625,4.578125,4.5
580,-0.6398926,-0.15118408,0.8900757,0.53125,-9.640625,-0.609375
581,-0.48291016,0.01751709,0.8859253,-0.21875,10.578125,1.125
582,-0.5734863,0.0065307617,0.9059448,-5.0625,2.46875,-1.515625
583,-0.50512695,0.18914795,0.9647827,1.65625,-0.03125,1.796875
584,-0.64282227,-0.054016113,0.82684326,-0.40625,-2.203125,2.765625
585,-0.4580078,0.03314209,0.9738159,1.15625,1.6875,-1.8125
586,-0.55493164,-0.059631348,0.9069214,-1.09375,-0.171875,1.484375
587,-0.49365234,0.109558105,0.83343506,-0.265625,-0.40625,3.3125
588,-0.6477051,-0.015686035,0.99212646,2.140625,-1.21875,4.828125
589,-0.47460938,0.020935059,0.8554077,-2.6875,5.859375,2.046875
590,-0.60961914,-0.043029785,0.9176636,-1.140625,8.53125,1.234375
591,-0.5876465,0.058532715,0.90740967,-6.984375,9.515625,-1.34375
592,-0.45654297,0.13739014,0.86395264,-2.5,7.640625,1.984375
593,-0.51000977,-0.0010375977,0.9730835,0.671875,2.875,0.984375
594,-0.5041504,0.089538574,0.8617554,-0.25,7.0,4.234375
595,-0.4802246,0.020202637,0.96429443,-0.546875,4.21875,0.203125
596,-0.45117188,0.013122559,0.90838623,-2.328125,5.046875,0.1875
597,-0.45947266,0.034851074,1.0206909,-2.84375,4.046875,0.578125
598,-0.545166,0.012390137,0.8383179,-6.390625,3.875,-0.984375
599,-0.30493164,0.05291748,0.9977417,0.15625,-1.4375,-3.03125
600,-0.5161133,0.04168701,0.8397827,0.078125,-5.140625,0.71875
601,-0.5109863,0.00018310547,0.92718506,-0.15625,-0.953125,0.0
602,-0.4584961,0.008239746,0.9359741,-3.0,2.53125,-2.71875
603,-0.47802734,0.070739746,0.9142456,-1.734375,-1.65625,-0.015625
604,-0.5476074,0.0053100586,0.9684448,-2.84375,-1.125,-0.875
605,-0.53393555,0.05316162,0.9557495,-4.390625,4.765625,-3.078125
606,-0.5251465,0.06781006,0.9591675,-3.9375,5.828125,-4.78125
607,-0.51000977,0.059020996,0.9725952,-2.90625,8.28125,-5.34375
608,-0.44604492,0.11468506,0.91741943,-0.359375,2.9375,-3.75
609,-0.44067383,0.10809326,0.85443115,4.453125,-5.046875,-2.015625
610,-0.46313477,0.09539795,0.9508667,5.078125,-10.890625,0.03125
611,-0.5114746,0.039489746,0.8554077,3.328125,-5.734375,2.03125
612,-0.4555664,0.08441162,0.9032593,0.53125,-6.6875,0.359375
613,-0.5629883,0.008728027,0.9450073,-4.140625,-1.734375,0.796875
614,-0.5131836,0.05340576,0.9098511,-2.234375,0.484375,0.15625
615,-0.55566406,0.062683105,0.94696045,-0.5625,5.765625,0.375
616,-0.53149414,0.026550293,0.9581909,-3.359375,8.5625,-1.75
617,-0.5180664,0.07318115,0.947937,-4.0,6.609375,-2.15625
618,-0.4831543,0.0848999,0.8851929,-3.09375,6.0,-0.78125
619,-0.46875,0.101745605,0.9147339,-0.140625,3.625,-0.71875
620,-0.45532227,0.10809326,0.9232788,3.09375,-2.625,0.953125
621,-0.47973633,0.08538818,0.9020386,4.265625,-6.078125,2.015625
622,-0.46972656,0.058044434,0.91278076,3.859375,-6.21875,2.625
623,-0.51953125,0.06536865,0.90838623,0.765625,-4.71875,2.90625
624,-0.50341797,0.031188965,0.93255615,-4.15625,1.09375,0.6875
625,-0.5131836,0.074401855,0.9401245,-0.625,1.1875,1.078125
626,-0.51708984,0.06561279,0.97332764,-0.21875,4.921875,1.34375
627,-0.49023438,0.049987793,0.918396,-1.578125,2.0625,-0.203125
628,-0.5019531,0.06512451,0.9020386,-1.484375,1.859375,-0.203125
629,-0.4921875,0.07611084,0.9047241,-0.71875,-1.8125,0.40625
630,-0.51171875,0.06439209,0.9298706,0.734375,-0.71875,0.671875
631,-0.5031738,0.061462402,0.9081421,0.375,-0.484375,0.5
632,-0.47509766,0.05316162,0.9188843,0.96875,-2.5625,0.796875
633,-0.5720215,0.08709717,0.9257202,2.40625,0.5625,1.875
634,-0.5024414,0.04901123,0.918396,2.9375,0.03125,2.265625
635,-0.58032227,0.062438965,0.96698,2.453125,1.046875,0.0625
636,-0.4482422,0.031921387,0.8300171,1.453125,0.65625,-0.5
637,-0.52441406,-0.013977051,0.93792725,-0.28125,-0.546875,0.125
638,-0.53515625,0.04168701,0.9484253,-1.25,1.9375,2.5625
639,-0.51171875,0.06414795,0.9147339,-2.15625,6.109375,0.859375
640,-0.60009766,-0.025939941,1.0558472,-6.328125,7.28125,-3.640625
641,-0.53759766,0.16400146,0.8366089,-9.90625,14.09375,-5.703125
642,-0.47875977,0.10394287,0.9581909,0.703125,11.5625,-5.765625
643,-0.42797852,0.014831543,0.9723511,-2.0625,9.4375,-5.3125
644,-0.41601562,0.08074951,0.9242554,-2.140625,3.203125,-3.484375
645,-0.40234375,0.07757568,0.9389038,1.359375,0.609375,-0.34375
646,-0.3840332,0.14105225,0.89178467,4.625,-5.421875,0.71875
647,-0.41748047,0.08538818,0.885437,6.703125,-3.890625,3.046875
648,-0.45117188,0.07318115,0.89886475,6.03125,-5.84375,3.734375
649,-0.49731445,0.0053100586,0.97576904,5.640625,-9.9375,4.03125
650,-0.4951172,0.13861084,0.89398193,4.734375,-3.609375,3.921875
651,-0.6088867,-0.0056762695,1.057312,5.265625,-9.015625,-1.34375
652,-0.47583008,0.00018310547,0.85687256,0.421875,-2.09375,-1.671875
653,-0.4970703,-0.044006348,0.9779663,-0.921875,4.25,2.421875
654,-0.50341797,0.0836792,0.81951904,-2.75,4.15625,-0.078125
655,-0.515625,-0.030090332,0.96502686,-0.671875,1.5625,1.359375
656,-0.49658203,0.0006713867,0.9484253,-0.90625,3.34375,3.40625
657,-0.48461914,-0.02520752,0.9105835,-1.34375,5.515625,2.796875
658,-0.51660156,0.031433105,0.9696655,-1.96875,7.8125,3.234375
659,-0.5007324,0.042907715,0.91741943,-3.484375,6.4375,1.96875
660,-0.42285156,0.07733154,0.8878784,-1.28125,3.890625,0.46875
661,-0.501709,0.03704834,0.9796753,-0.5,0.546875,-0.875
662,-0.45483398,0.07684326,0.8981323,-0.4375,2.640625,-1.078125
663,-0.49438477,0.03289795,0.94451904,-0.5,0.140625,-1.609375
664,-0.42822266,0.050720215,0.92840576,-1.25,-1.09375,-1.28125
665,-0.47875977,0.023132324,0.885437,-2.09375,-4.65625,-0.15625
666,-0.46679688,0.08026123,1.007019,2.84375,-6.78125,1.40625
667,-0.5527344,0.0060424805,0.9064331,-1.28125,-3.71875,0.421875
668,-0.44140625,0.026062012,0.91278076,0.546875,4.5,3.375
669,-0.5319824,-0.021057129,0.93621826,-1.921875,0.6875,0.703125
670,-0.46313477,0.032409668,0.8912964,0.40625,3.421875,0.296875
671,-0.5715332,0.00579834,0.9984741,1.53125,2.640625,0.65625
672,-0.41430664,0.06317139,0.914978,2.0625,2.109375,-1.171875
673,-0.5397949,0.04510498,0.9371948,1.796875,-1.734375,0.03125
674,-0.4729004,0.05291748,0.9213257,-0.375,0.71875,0.96875
675,-0.47631836,0.043395996,0.9179077,-0.859375,0.421875,0.0625
676,-0.5012207,0.019470215,0.9537964,-1.75,1.109375,0.09375
677,-0.5097656,0.042419434,0.9279175,-1.6875,3.5,0.4375
678,-0.5222168,-0.037902832,0.9935913,-6.125,10.484375,-0.609375
679,-0.45361328,0.020446777,0.93377686,-9.71875,5.78125,-1.390625
680,-0.4729004,0.050720215,0.9682007,-6.140625,6.640625,-2.34375
681,-0.40893555,0.097595215,0.9098511,-4.25,0.703125,-1.890625
682,-0.453125,0.124938965,0.9008179,2.859375,-7.671875,0.09375
683,-0.4543457,0.097839355,0.90618896,7.40625,-7.515625,1.15625
684,-0.46679688,0.034118652,0.84539795,6.4375,-9.390625,2.484375
685,-0.51171875,0.046813965,0.9611206,2.890625,-2.890625,0.890625
686,-0.5500488,0.014099121,0.9052124,-2.59375,-2.0625,0.328125
687,-0.5180664,0.03753662,0.9738159,-0.890625,-1.078125,-0.546875
688,-0.5307617,0.008483887,0.91082764,-4.0625,4.734375,-0.953125
689,-0.43920898,0.09637451,0.8624878,-0.875,2.28125,-1.546875
690,-0.47729492,0.062927246,0.9750366,2.765625,0.375,1.125
691,-0.46972656,0.027282715,0.9227905,1.140625,-1.296875,1.84375
692,-0.49658203,0.027526855,0.9545288,-1.34375,0.25,1.078125
693,-0.44189453,0.032165527,0.8773804,-2.15625,-0.3125,1.421875
694,-0.49291992,0.050476074,0.9171753,-4.25,-2.234375,1.328125
695,-0.4716797,0.06561279,0.9384155,-1.828125,-4.09375,2.171875
696,-0.5900879,0.020935059,0.9640503,3.65625,-3.25,4.328125
697,-0.51953125,-0.0071411133,0.9113159,-0.828125,0.40625,1.84375
698,-0.5288086,0.050476074,0.93304443,-1.265625,-1.46875,-0.375
699,-0.5686035,0.035827637,0.89642334,-3.046875,2.625,-0.625
700,-0.54907227,0.054870605,0.9244995,-3.921875,4.640625,-1.171875
701,-0.5246582,0.034851074,0.94036865,-5.984375,10.15625,-1.34375
702,-0.5744629,0.06488037,0.95062256,-6.078125,4.609375,-1.765625
703,-0.5234375,0.061462402,0.95428467,-3.71875,5.34375,-2.5625
704,-0.48608398,0.08660889,0.93426514,-4.046875,2.734375,-3.125
705,-0.46923828,0.121276855,0.94158936,-0.1875,-1.484375,-1.921875
706,-0.40551758,0.11810303,0.86834717,3.765625,-4.9375,0.34375
707,-0.50097656,0.11639404,0.90008545,6.796875,-9.96875,1.84375
708,-0.51342773,0.073913574,0.8488159,9.125,-6.84375,3.875
709,-0.50927734,0.013122559,0.9196167,5.015625,-4.109375,2.046875
710,-0.5678711,0.049987793,0.93377686,0.859375,-2.734375,0.9375
711,-0.51220703,0.059509277,0.90740967,0.125,2.3125,1.21875
712,-0.54345703,0.032165527,0.91400146,0.0,-1.1875,-0.25
713,-0.5678711,0.06414795,0.87323,3.890625,-2.765625,3.34375
714,-0.5270996,0.046813965,0.93865967,7.171875,-8.046875,1.4375
715,-0.5732422,-0.042785645,0.92645264,-0.328125,-0.09375,0.53125
716,-0.49682617,0.010437012,0.86712646,-2.28125,1.59375,1.15625
717,-0.5505371,0.012145996,0.9086304,-3.5625,0.359375,0.453125
718,-0.5390625,0.06121826,0.8883667,-2.78125,2.53125,1.90625
719,-0.5686035,0.014831543,0.90545654,-1.140625,-0.078125,0.921875
720,-0.54296875,0.030456543,0.90179443,-2.09375,0.890625,0.328125
721,-0.5546875,0.006286621,0.9086304,2.59375,7.8125,-0.15625
722,-0.62402344,0.03778076,0.97406006,4.359375,4.140625,0.578125
723,-0.53881836,-0.012023926,0.85443115,0.359375,5.0,-1.96875
724,-0.5175781,0.0065307617,0.9113159,-1.6875,2.78125,-2.015625
725,-0.54174805,-0.00982666,0.94940186,-2.796875,-1.171875,-3.296875
726,-0.47802734,0.11859131,0.83221436,-0.46875,-0.390625,-1.078125
727,-0.53100586,0.050720215,0.91326904,3.0625,-0.8125,-0.765625
728,-0.49047852,0.054382324,0.8578491,0.1875,-0.046875,0.78125
729,-0.5144043,0.05706787,0.9179077,0.0,-0.390625,1.296875
730,-0.545166,0.07122803,0.92840576,1.03125,-0.5,1.890625
731,-0.5812988,-0.004211426,0.9706421,-2.59375,-7.296875,-1.734375
732,-0.5053711,-0.024963379,0.82318115,-3.5,-1.328125,-1.5625
733,-0.5683594,0.020935059,0.9159546,-2.9375,0.53125,-0.90625
734,-0.55688477,0.031921387,0.87542725,-1.75,5.390625,1.1875
735,-0.5493164,0.04510498,0.9484253,2.6875,-1.8125,1.15625
736,-0.6064453,0.06732178,0.87908936,14.375,-12.171875,-0.921875
737,-0.49731445,-0.11480713,0.94696045,10.078125,-0.015625,-3.90625
738,-0.5800781,-0.06793213,0.9003296,-4.84375,0.859375,-0.84375
739,-0.5559082,0.090026855,0.89886475,-7.15625,0.625,-0.375
740,-0.59155273,0.0692749,0.85736084,-4.765625,8.140625,0.25
741,-0.4831543,0.14569092,0.85687256,0.328125,-0.59375,0.859375
742,-0.5209961,0.055358887,0.86224365,3.6875,-5.0,0.625
743,-0.5788574,0.012634277,0.84783936,0.03125,-0.296875,0.171875
744,-0.5371094,0.05218506,0.8944702,-1.421875,2.65625,0.265625
745,-0.59887695,-0.0037231445,0.92108154,-3.28125,1.4375,-1.671875
746,-0.5805664,0.028747559,0.90252686,-1.390625,2.625,0.296875
747,-0.56640625,0.0065307617,0.92645264,-0.390625,3.09375,1.421875
748,-0.52441406,0.041931152,0.9225464,-0.453125,2.0,2.6875
749,-0.5036621,0.029724121,0.8632202,-0.359375,7.6875,3.828125
