sample_no,accel_x,accel_y,accel_z,gyro_x,gyro_y,gyro_z
0,0.44799805,0.042419434,-0.83673096,-0.703125,-0.28125,0.375
1,0.45141602,0.04437256,-0.84161377,-0.609375,0.09375,0.421875
2,0.45117188,0.04486084,-0.8394165,-0.828125,0.125,0.34375
3,0.45922852,0.039489746,-0.84942627,-1.265625,0.078125,0.015625
4,0.44970703,0.038024902,-0.83551025,-1.09375,-0.1875,0.234375
5,0.4428711,0.031921387,-0.8303833,-0.71875,-0.515625,0.46875
6,0.4501953,0.039245605,-0.8369751,-0.828125,-0.515625,0.3125
7,0.4572754,0.046325684,-0.83721924,-0.484375,-0.0625,0.421875
8,0.4597168,0.042419434,-0.84332275,-0.53125,-0.125,0.46875
9,0.4560547,0.036071777,-0.8430786,-0.21875,-0.09375,0.5625
10,0.45703125,0.03753662,-0.8411255,-0.3125,-0.046875,0.640625
11,0.4489746,0.034362793,-0.8262329,0.015625,-0.125,0.515625
12,0.45263672,0.03753662,-0.84576416,-0.65625,0.296875,0.40625
13,0.4572754,0.038513184,-0.84259033,-1.0,0.1875,0.265625
14,0.45581055,0.04437256,-0.83721924,-0.65625,0.09375,0.484375
15,0.45483398,0.039245605,-0.83843994,-0.75,0.21875,0.390625
16,0.45166016,0.035095215,-0.8296509,-0.78125,0.03125,0.40625
17,0.45776367,0.03656006,-0.8389282,-0.59375,0.203125,0.453125
18,0.45361328,0.03729248,-0.8352661,-0.234375,0.296875,0.46875
19,0.45385742,0.039001465,-0.84381104,-0.4375,-0.09375,0.453125
20,0.4543457,0.038269043,-0.83721924,-0.53125,0.15625,0.390625
21,0.4580078,0.04071045,-0.83843994,-0.515625,0.34375,0.328125
22,0.4501953,0.031433105,-0.8345337,-0.34375,-0.046875,0.375
23,0.45581055,0.039245605,-0.8345337,-0.6875,0.40625,0.234375
24,0.44384766,0.035339355,-0.8308716,-0.765625,1.03125,0.203125
25,0.4572754,0.030212402,-0.84503174,-1.234375,2.03125,0.03125
26,0.44189453,0.038024902,-0.8345337,-0.34375,2.375,0.171875
27,0.44458008,0.04095459,-0.8440552,-0.046875,1.28125,0.3125
28,0.43774414,0.035095215,-0.84259033,-0.265625,1.21875,0.15625
29,0.44482422,0.038024902,-0.84747314,-0.390625,0.53125,0.09375
30,0.43920898,0.035095215,-0.84088135,-0.40625,0.21875,0.4375
31,0.4440918,0.032409668,-0.84088135,-0.078125,0.484375,0.1875
32,0.44262695,0.031677246,-0.8406372,0.09375,0.375,0.359375
33,0.4440918,0.038269043,-0.85040283,-0.203125,1.203125,0.109375
34,0.44018555,0.03778076,-0.84259033,-0.5625,0.84375,0.171875
35,0.44262695,0.042175293,-0.8460083,-0.5,0.109375,0.390625
36,0.4362793,0.035583496,-0.84576416,-0.5625,-0.46875,0.484375
37,0.4428711,0.047058105,-0.85113525,-0.71875,-0.71875,0.671875
38,0.43359375,0.034606934,-0.83258057,0.4375,-2.96875,0.90625
39,0.43969727,0.03753662,-0.83551025,-0.09375,-0.84375,0.53125
40,0.46264648,0.04437256,-0.8609009,-0.46875,-0.171875,0.421875
41,0.44628906,0.047546387,-0.8496704,-0.640625,-0.171875,0.421875
42,0.4428711,0.04046631,-0.8369751,-0.421875,-0.0625,0.53125
43,0.44580078,0.03656006,-0.83551025,-0.796875,-0.046875,0.25
44,0.44433594,0.03704834,-0.83966064,-0.9375,-0.140625,0.34375
45,0.44604492,0.035095215,-0.84454346,-0.625,0.1875,0.4375
46,0.45141602,0.034851074,-0.84381104,-0.125,0.0,0.53125
47,0.4494629,0.047058105,-0.847229,-0.359375,0.296875,0.453125
48,0.44189453,0.034362793,-0.8411255,-0.5625,-0.15625,0.328125
49,0.44580078,0.04046631,-0.83599854,-0.46875,0.328125,0.421875
50,0.44311523,0.04119873,-0.8477173,-0.859375,0.09375,0.34375
51,0.44360352,0.039489746,-0.8418579,-0.453125,-0.140625,0.5
52,0.44384766,0.039978027,-0.84503174,-0.484375,0.140625,0.453125
53,0.44213867,0.03314209,-0.83551025,-0.453125,0.140625,0.515625
54,0.4489746,0.04071045,-0.8394165,-0.515625,0.125,0.28125
55,0.44262695,0.039489746,-0.8357544,-0.546875,-0.03125,0.578125
56,0.44360352,0.03656006,-0.8447876,-0.609375,-0.1875,0.515625
57,0.44067383,0.034606934,-0.8401489,-0.484375,-0.125,0.484375
58,0.44458008,0.03289795,-0.8401489,-0.4375,-0.046875,0.484375
59,0.44140625,0.04071045,-0.8479614,-0.53125,-0.125,0.453125
60,0.44555664,0.04168701,-0.8418579,-0.265625,0.140625,0.328125
61,0.44458008,0.043395996,-0.84552,-0.421875,-0.140625,0.46875
62,0.44677734,0.03289795,-0.84576416,-0.53125,-0.296875,0.375
63,0.44677734,0.038269043,-0.84625244,-0.75,-0.1875,0.3125
64,0.44482422,0.031433105,-0.8406372,-0.65625,-0.015625,0.375
65,0.4482422,0.041931152,-0.8501587,-0.609375,-0.140625,0.46875
66,0.44311523,0.03753662,-0.8345337,-0.484375,-0.1875,0.4375
67,0.4506836,0.036315918,-0.84503174,-0.59375,-0.140625,0.53125
68,0.4453125,0.038757324,-0.83795166,-0.265625,0.140625,0.25
69,0.44995117,0.030944824,-0.8386841,-0.609375,0.046875,0.40625
70,0.44995117,0.035827637,-0.8394165,-0.53125,0.296875,0.328125
71,0.4428711,0.035095215,-0.8442993,-0.515625,0.09375,0.390625
72,0.4428711,0.039489746,-0.8374634,-0.46875,-0.046875,0.390625
73,0.45043945,0.03753662,-0.8413696,-0.453125,0.046875,0.28125
74,0.44848633,0.039489746,-0.84332275,-0.59375,0.03125,0.4375
75,0.4423828,0.038513184,-0.8411255,-0.453125,0.078125,0.453125
76,0.4453125,0.03314209,-0.8452759,-0.5625,0.25,0.421875
77,0.44799805,0.035583496,-0.83673096,-0.421875,0.078125,0.453125
78,0.44970703,0.032409668,-0.8389282,-0.4375,-0.078125,0.390625
79,0.44482422,0.038757324,-0.84552,-0.5,0.046875,0.4375
80,0.4465332,0.028015137,-0.8413696,-0.421875,0.078125,0.484375
81,0.44482422,0.038757324,-0.84039307,-0.546875,-0.03125,0.484375
82,0.44555664,0.038513184,-0.8411255,-0.59375,0.09375,0.390625
83,0.44995117,0.040222168,-0.84039307,-0.53125,0.15625,0.4375
84,0.4465332,0.035339355,-0.84210205,-0.53125,0.078125,0.375
85,0.4465332,0.031677246,-0.8428345,-0.640625,-0.171875,0.40625
86,0.4506836,0.027282715,-0.8430786,-0.609375,-0.21875,0.375
87,0.44628906,0.034362793,-0.8377075,-0.671875,0.0,0.46875
88,0.44384766,0.03729248,-0.85162354,-0.625,0.03125,0.4375
89,0.44213867,0.030212402,-0.831604,-0.703125,-0.046875,0.484375
90,0.44726562,0.03387451,-0.848938,-0.71875,-0.15625,0.234375
91,0.44335938,0.032165527,-0.8352661,-0.390625,0.171875,0.53125
92,0.44750977,0.03387451,-0.8423462,-0.578125,0.03125,0.296875
93,0.44970703,0.041931152,-0.8464966,-0.53125,-0.171875,0.4375
94,0.45092773,0.034851074,-0.8389282,-0.625,-0.140625,0.484375
95,0.45214844,0.03778076,-0.84454346,-0.765625,-0.328125,0.484375
96,0.44702148,0.030944824,-0.8401489,-0.609375,0.0625,0.609375
97,0.4465332,0.03387451,-0.8442993,-0.765625,-0.109375,0.421875
98,0.4494629,0.03338623,-0.84088135,-0.578125,-0.21875,0.4375
99,0.44677734,0.03778076,-0.8399048,-0.546875,-0.078125,0.5
100,0.44628906,0.038269043,-0.8377075,-0.734375,-0.1875,0.40625
101,0.4482422,0.030944824,-0.8394165,-0.734375,-0.234375,0.59375
102,0.44848633,0.03363037,-0.84039307,-0.71875,-0.1875,0.40625
103,0.45214844,0.03338623,-0.831604,-0.640625,-0.203125,0.5
104,0.45532227,0.030700684,-0.84576416,-0.640625,-0.171875,0.46875
105,0.45361328,0.03338623,-0.83477783,-0.5625,-0.03125,0.515625
106,0.4482422,0.03289795,-0.8401489,-0.734375,0.0,0.4375
107,0.44726562,0.031677246,-0.83721924,-0.703125,-0.21875,0.46875
108,0.4519043,0.035583496,-0.8430786,-0.6875,-0.046875,0.375
109,0.4489746,0.028503418,-0.8381958,-0.765625,-0.09375,0.4375
110,0.45263672,0.030456543,-0.8369751,-0.625,-0.21875,0.453125
111,0.4572754,0.029724121,-0.8423462,-0.640625,-0.03125,0.46875
112,0.45532227,0.030456543,-0.84552,-0.4375,-0.03125,0.5
113,0.44921875,0.031921387,-0.84576416,-0.40625,-0.125,0.515625
114,0.453125,0.034851074,-0.83795166,-0.578125,-0.0625,0.390625
115,0.45166016,0.027282715,-0.83843994,-0.578125,-0.015625,0.515625
116,0.44848633,0.030700684,-0.8389282,-0.734375,-0.015625,0.46875
117,0.45410156,0.031677246,-0.8401489,-0.484375,0.0625,0.375
118,0.44995117,0.030456543,-0.8423462,-0.328125,0.0625,0.375
119,0.44921875,0.031188965,-0.8362427,-0.359375,-0.03125,0.375
120,0.4519043,0.031188965,-0.8377075,-0.671875,0.03125,0.328125
121,0.45336914,0.03314209,-0.83843994,-0.625,0.0625,0.4375
122,0.4584961,0.032165527,-0.8381958,-0.328125,0.171875,0.40625
123,0.45458984,0.036315918,-0.84088135,-0.5625,-0.109375,0.421875
124,0.4489746,0.03778076,-0.8413696,-0.65625,0.015625,0.390625
125,0.45092773,0.031188965,-0.8411255,-0.53125,0.0,0.4375
126,0.4494629,0.032409668,-0.83795166,-0.5,-0.171875,0.390625
127,0.45214844,0.03704834,-0.84454346,-0.515625,0.234375,0.5625
128,0.44677734,0.038513184,-0.84210205,-0.421875,0.09375,0.34375
129,0.45532227,0.03265381,-0.8386841,-0.5625,0.078125,0.421875
130,0.45263672,0.031433105,-0.83380127,-0.4375,0.515625,0.484375
131,0.45703125,0.036071777,-0.8394165,-0.40625,1.296875,0.3125
132,0.45239258,0.03387451,-0.8452759,-0.265625,2.359375,0.3125
133,0.44458008,0.027770996,-0.84332275,0.1875,2.0,0.25
134,0.4404297,0.029968262,-0.8467407,0.25,1.78125,0.40625
135,0.4411621,0.03314209,-0.83795166,0.25,1.0625,0.421875
136,0.4477539,0.035827637,-0.84747314,0.125,1.28125,0.484375
137,0.43823242,0.03778076,-0.84552,0.15625,0.59375,0.21875
138,0.4362793,0.03778076,-0.85284424,0.015625,-0.015625,0.46875
139,0.44091797,0.0368042,-0.8477173,-0.09375,-0.609375,0.515625
140,0.4453125,0.038269043,-0.84698486,-0.6875,-1.375,0.359375
141,0.43579102,0.035095215,-0.8401489,-0.6875,-2.28125,0.765625
142,0.44189453,0.028503418,-0.82891846,-0.09375,-3.140625,0.765625
143,0.45483398,0.029968262,-0.848938,-0.359375,-1.078125,0.46875
144,0.45092773,0.038269043,-0.8389282,-0.296875,0.109375,0.390625
145,0.45507812,0.04486084,-0.84210205,-0.484375,-0.15625,0.515625
146,0.44750977,0.042175293,-0.8435669,-0.734375,-0.046875,0.375
147,0.44091797,0.032409668,-0.831604,-0.6875,-0.640625,0.53125
148,0.45141602,0.030700684,-0.8479614,-0.96875,-0.5625,0.234375
149,0.45483398,0.031677246,-0.8394165,-0.515625,-1.40625,0.515625
150,0.4572754,0.034118652,-0.84259033,-0.21875,-0.921875,0.515625
151,0.44433594,0.03704834,-0.8220825,-0.40625,0.171875,0.4375
152,0.4580078,0.0368042,-0.8369751,-0.3125,0.046875,0.359375
153,0.45288086,0.04095459,-0.84552,-0.65625,-0.015625,0.375
154,0.4572754,0.0368042,-0.835022,-0.578125,-0.046875,0.484375
155,0.45874023,0.034851074,-0.8386841,-0.65625,-0.140625,0.40625
156,0.44848633,0.03314209,-0.8340454,-0.421875,0.140625,0.375
157,0.4519043,0.030700684,-0.8357544,-0.453125,0.09375,0.4375
158,0.45751953,0.038513184,-0.8418579,-0.34375,0.234375,0.296875
159,0.4543457,0.031921387,-0.8418579,-0.46875,0.0,0.375
160,0.45239258,0.038269043,-0.8345337,-0.5625,-0.25,0.375
161,0.4501953,0.03387451,-0.8362427,-0.625,-0.234375,0.4375
162,0.45239258,0.03387451,-0.8364868,-0.4375,-0.34375,0.515625
163,0.45166016,0.03753662,-0.8477173,-0.578125,-0.296875,0.484375
164,0.46044922,0.03387451,-0.8411255,-0.484375,-0.375,0.46875
165,0.45581055,0.035583496,-0.8401489,-0.265625,-1.09375,0.390625
166,0.46142578,0.043151855,-0.84161377,-0.546875,-0.59375,0.4375
167,0.45703125,0.03363037,-0.82818604,-0.453125,-0.359375,0.515625
168,0.4572754,0.031921387,-0.83917236,-0.3125,0.171875,0.5
169,0.45751953,0.034606934,-0.84454346,-0.203125,0.390625,0.34375
170,0.4580078,0.03753662,-0.83551025,-0.34375,0.25,0.453125
171,0.45776367,0.040222168,-0.83673096,-0.609375,0.109375,0.234375
172,0.45751953,0.0368042,-0.84161377,-0.671875,0.0625,0.421875
173,0.45654297,0.035827637,-0.8386841,-0.703125,-0.0625,0.28125
174,0.4494629,0.034118652,-0.8291626,-0.453125,-0.125,0.4375
175,0.45776367,0.03704834,-0.8374634,-0.203125,0.296875,0.46875
176,0.46166992,0.036315918,-0.8413696,-0.390625,0.359375,0.4375
177,0.44726562,0.035339355,-0.83258057,-0.5,0.171875,0.25
178,0.45532227,0.039245605,-0.8411255,-0.578125,0.0,0.375
179,0.4555664,0.038269043,-0.8323364,-0.65625,0.0625,0.484375
180,0.45898438,0.034851074,-0.8411255,-0.59375,0.109375,0.515625
181,0.45922852,0.032165527,-0.84747314,-0.703125,-0.21875,0.34375
182,0.45776367,0.034362793,-0.8291626,-0.28125,-0.5625,0.4375
183,0.44921875,0.038757324,-0.8374634,-0.515625,-0.65625,0.40625
184,0.4584961,0.02947998,-0.83599854,-0.65625,0.03125,0.515625
185,0.4519043,0.034606934,-0.82940674,-0.375,-0.15625,0.453125
186,0.4597168,0.038513184,-0.8430786,-0.609375,-0.03125,0.3125
187,0.46533203,0.035583496,-0.8401489,-0.546875,-0.03125,0.203125
188,0.4609375,0.030212402,-0.833313,-0.546875,-0.015625,0.4375
189,0.44848633,0.035339355,-0.83673096,-0.65625,-0.046875,0.453125
190,0.4609375,0.034362793,-0.84259033,-0.5625,0.1875,0.28125
191,0.45043945,0.03265381,-0.8401489,-0.4375,0.21875,0.40625
192,0.4560547,0.03704834,-0.83843994,-0.421875,0.203125,0.4375
193,0.4560547,0.035583496,-0.8399048,-0.625,0.046875,0.359375
194,0.4580078,0.027770996,-0.8401489,-0.453125,-0.03125,0.40625
195,0.45947266,0.03656006,-0.83966064,-0.4375,0.109375,0.421875
196,0.4580078,0.030212402,-0.83721924,-0.53125,0.1875,0.40625
197,0.4572754,0.034118652,-0.8423462,-0.53125,0.015625,0.28125
198,0.45410156,0.034362793,-0.8389282,-0.421875,-0.09375,0.390625
199,0.45288086,0.034118652,-0.829895,-0.375,-0.140625,0.328125
200,0.4580078,0.032409668,-0.8345337,-0.53125,-0.140625,0.421875
201,0.4519043,0.03338623,-0.8386841,-0.640625,-0.234375,0.375
202,0.45898438,0.035583496,-0.83795166,-0.28125,-0.078125,0.421875
203,0.46142578,0.035095215,-0.8345337,-0.59375,0.390625,0.40625
204,0.45922852,0.03387451,-0.8303833,-0.671875,0.46875,0.4375
205,0.46411133,0.028747559,-0.8340454,-0.640625,0.21875,0.375
206,0.46240234,0.03387451,-0.8401489,-0.546875,0.125,0.4375
207,0.45825195,0.035095215,-0.8369751,-0.53125,-0.40625,0.421875
208,0.453125,0.032165527,-0.8328247,-0.515625,-0.84375,0.640625
209,0.46069336,0.034118652,-0.8335571,-0.671875,-1.296875,0.40625
210,0.45825195,0.030944824,-0.83380127,-0.453125,-1.375,0.4375
211,0.45922852,0.02947998,-0.833313,-0.4375,-0.1875,0.515625
212,0.4633789,0.036315918,-0.8328247,-0.328125,-0.3125,0.421875
213,0.46533203,0.036315918,-0.83917236,-0.484375,0.1875,0.28125
214,0.46191406,0.03363037,-0.8340454,-0.5,-0.03125,0.421875
215,0.45898438,0.028747559,-0.83306885,-0.546875,-0.109375,0.296875
216,0.46484375,0.034118652,-0.83428955,-0.515625,-0.875,0.421875
217,0.4609375,0.031677246,-0.83477783,-0.90625,-0.71875,0.421875
218,0.46435547,0.036315918,-0.8362427,-0.828125,-0.625,0.578125
219,0.46801758,0.03314209,-0.8220825,-0.359375,-0.375,0.578125
220,0.46044922,0.03314209,-0.8357544,-0.375,-0.34375,0.5625
221,0.46289062,0.038024902,-0.835022,-0.4375,-0.09375,0.453125
222,0.4633789,0.029968262,-0.8291626,-0.515625,-0.078125,0.4375
223,0.4633789,0.031677246,-0.8296509,-0.46875,-0.125,0.390625
224,0.47021484,0.034851074,-0.8296509,-0.125,0.125,0.46875
225,0.46557617,0.03314209,-0.8323364,-0.5,0.15625,0.515625
226,0.46875,0.035583496,-0.82940674,-0.53125,0.0,0.34375
227,0.46655273,0.032409668,-0.8257446,-0.546875,0.046875,0.390625
228,0.46435547,0.034118652,-0.8291626,-0.4375,-0.28125,0.453125
229,0.46923828,0.031921387,-0.829895,-0.3125,-0.15625,0.515625
230,0.46679688,0.04071045,-0.83135986,-0.515625,0.15625,0.28125
231,0.46191406,0.032165527,-0.83062744,-0.5,0.140625,0.296875
232,0.46020508,0.03753662,-0.83306885,-0.40625,0.203125,0.375
233,0.4675293,0.030700684,-0.8335571,-0.34375,0.234375,0.40625
234,0.4716797,0.030212402,-0.83258057,-0.59375,0.78125,0.453125
235,0.46875,0.035095215,-0.8262329,-0.671875,2.578125,0.1875
236,0.45996094,0.026550293,-0.8411255,-1.09375,4.828125,0.015625
237,0.45629883,0.035583496,-0.84576416,0.15625,2.234375,0.390625
238,0.45288086,0.02947998,-0.84210205,0.296875,2.125,0.3125
239,0.45141602,0.02947998,-0.8335571,0.0,1.546875,0.34375
240,0.44555664,0.031433105,-0.8423462,-0.015625,2.140625,0.28125
241,0.44677734,0.03729248,-0.84259033,-0.015625,1.953125,0.109375
242,0.44311523,0.04095459,-0.84869385,-0.171875,1.296875,0.234375
243,0.43896484,0.03778076,-0.8555298,-0.109375,-0.0625,0.296875
244,0.44213867,0.0368042,-0.8501587,-0.1875,-1.171875,0.484375
245,0.44873047,0.036315918,-0.84625244,-0.84375,-1.828125,0.6875
246,0.43798828,0.030456543,-0.815979,0.25,-2.71875,0.921875
247,0.45581055,0.031677246,-0.8501587,-0.265625,-0.59375,0.4375
248,0.46069336,0.034118652,-0.8428345,-0.421875,0.203125,0.390625
249,0.4584961,0.046569824,-0.8464966,-0.34375,0.015625,0.53125
250,0.44604492,0.045837402,-0.8296509,-0.375,-0.234375,0.515625
251,0.44677734,0.039489746,-0.8311157,-0.953125,-0.3125,0.34375
252,0.45117188,0.026550293,-0.8328247,-1.046875,-0.640625,0.3125
253,0.45581055,0.028747559,-0.8381958,-0.125,-0.515625,0.578125
254,0.46484375,0.03729248,-0.8452759,-0.171875,0.328125,0.515625
255,0.4543457,0.042419434,-0.84259033,-0.515625,0.125,0.375
256,0.44702148,0.042419434,-0.82818604,-0.671875,0.0625,0.390625
257,0.4489746,0.04071045,-0.8369751,-0.671875,-0.375,0.4375
258,0.45239258,0.036315918,-0.83673096,-0.5625,-0.078125,0.5
259,0.45654297,0.029724121,-0.8430786,-0.671875,-0.0625,0.34375
260,0.45385742,0.02947998,-0.8362427,-0.40625,0.0,0.421875
261,0.45361328,0.035095215,-0.8311157,-0.140625,0.109375,0.5625
262,0.4506836,0.04510498,-0.831604,-0.40625,0.09375,0.484375
263,0.45117188,0.030700684,-0.84088135,-0.515625,-0.265625,0.359375
264,0.4572754,0.038269043,-0.84039307,-0.640625,-0.3125,0.453125
265,0.453125,0.036071777,-0.83599854,-0.40625,-0.8125,0.484375
266,0.46044922,0.03363037,-0.8386841,-0.40625,-0.65625,0.390625
267,0.45166016,0.03363037,-0.8328247,-0.359375,-0.015625,0.46875
268,0.45214844,0.04119873,-0.82940674,-0.3125,-0.015625,0.390625
269,0.45776367,0.039001465,-0.8423462,-0.59375,-0.1875,0.3125
270,0.46069336,0.039978027,-0.8389282,-0.734375,-0.1875,0.34375
271,0.45898438,0.035827637,-0.8381958,-0.59375,-0.328125,0.359375
272,0.4560547,0.03289795,-0.83135986,-0.484375,-0.53125,0.453125
273,0.45629883,0.03387451,-0.84454346,-0.5625,-0.1875,0.421875
274,0.45776367,0.034118652,-0.84088135,-0.515625,-0.515625,0.453125
275,0.45263672,0.038513184,-0.8357544,-0.546875,-0.25,0.515625
276,0.45410156,0.0289917,-0.8335571,-0.1875,0.078125,0.4375
277,0.4609375,0.038757324,-0.8303833,-0.8125,0.375,0.359375
278,0.45996094,0.036315918,-0.83673096,-0.515625,0.3125,0.28125
279,0.45922852,0.035827637,-0.8364868,-0.359375,0.328125,0.421875
280,0.45751953,0.03265381,-0.83380127,-0.546875,-0.140625,0.359375
281,0.4597168,0.03265381,-0.833313,-0.703125,-0.0625,0.4375
282,0.45751953,0.034118652,-0.8413696,-0.609375,-0.109375,0.3125
283,0.44921875,0.027282715,-0.8303833,-0.46875,-0.453125,0.515625
284,0.4597168,0.029968262,-0.8369751,-0.515625,-0.375,0.5
285,0.46020508,0.031921387,-0.83258057,-0.375,-0.84375,0.53125
286,0.4597168,0.030944824,-0.8381958,-0.34375,-0.515625,0.453125
287,0.45898438,0.03363037,-0.8311157,-0.375,-0.359375,0.40625
288,0.46191406,0.03778076,-0.83258057,-0.515625,-0.078125,0.421875
289,0.4597168,0.032409668,-0.82696533,-0.390625,-0.125,0.5
290,0.4567871,0.036071777,-0.83673096,-0.484375,0.109375,0.53125
291,0.45751953,0.034606934,-0.83184814,-0.625,0.09375,0.4375
292,0.4621582,0.02947998,-0.83184814,-0.4375,-0.140625,0.46875
293,0.46557617,0.030944824,-0.8399048,-0.578125,0.015625,0.359375
294,0.46142578,0.038269043,-0.83258057,-0.21875,-0.046875,0.453125
295,0.46435547,0.03778076,-0.8381958,-0.5,0.078125,0.484375
296,0.45947266,0.039489746,-0.8335571,-0.625,-0.25,0.4375
297,0.46704102,0.03387451,-0.8377075,-0.484375,-0.125,0.21875
298,0.46020508,0.02947998,-0.8328247,-0.59375,-0.28125,0.46875
299,0.4597168,0.034362793,-0.82769775,-0.390625,-0.09375,0.4375
300,0.46118164,0.03289795,-0.8369751,-0.4375,-0.171875,0.4375
301,0.46826172,0.038757324,-0.84039307,-0.5625,-0.015625,0.359375
302,0.46289062,0.028503418,-0.8386841,-0.6875,-0.390625,0.34375
303,0.46289062,0.029724121,-0.83062744,-0.734375,-0.171875,0.578125
304,0.46264648,0.02923584,-0.83551025,-0.453125,-0.125,0.421875
305,0.46411133,0.031433105,-0.8352661,-0.28125,0.171875,0.359375
306,0.45996094,0.031921387,-0.831604,-0.40625,0.015625,0.28125
307,0.46313477,0.032409668,-0.8272095,-0.28125,-0.078125,0.53125
308,0.46289062,0.038513184,-0.83966064,-0.625,0.078125,0.421875
309,0.46850586,0.031677246,-0.8364868,-0.609375,-0.09375,0.328125
310,0.45898438,0.032409668,-0.829895,-0.59375,-0.109375,0.296875
311,0.4638672,0.03387451,-0.8320923,-0.53125,-0.078125,0.46875
312,0.4572754,0.035095215,-0.82598877,-0.4375,-0.453125,0.375
313,0.4638672,0.028747559,-0.83428955,-0.453125,-0.8125,0.46875
314,0.47143555,0.036071777,-0.8399048,-0.59375,-0.328125,0.515625
315,0.4663086,0.02508545,-0.8311157,-0.421875,-0.53125,0.3125
316,0.45996094,0.03338623,-0.8208618,-0.421875,-0.75,0.625
317,0.46362305,0.036071777,-0.8311157,-0.5,-0.28125,0.53125
318,0.46484375,0.03363037,-0.8279419,-0.421875,-0.375,0.46875
319,0.4711914,0.038757324,-0.8257446,-0.515625,-0.734375,0.4375
320,0.46679688,0.03778076,-0.8245239,-0.578125,-0.34375,0.5
321,0.46679688,0.026306152,-0.8320923,-0.5625,-0.640625,0.46875
322,0.46679688,0.038513184,-0.8272095,-0.46875,-0.46875,0.5
323,0.47265625,0.026794434,-0.8286743,-0.421875,-0.5,0.4375
324,0.47070312,0.02947998,-0.8345337,-0.421875,-0.265625,0.40625
325,0.47265625,0.03729248,-0.82940674,-0.5,-0.328125,0.34375
326,0.47485352,0.030944824,-0.83135986,-0.421875,-0.296875,0.453125
327,0.4716797,0.034118652,-0.82476807,-0.453125,-0.09375,0.453125
328,0.4638672,0.031921387,-0.8279419,-0.4375,-0.09375,0.34375
329,0.47558594,0.03387451,-0.83673096,-0.65625,-0.0625,0.4375
330,0.47314453,0.036315918,-0.82647705,-0.6875,-0.109375,0.375
331,0.4729004,0.03656006,-0.82281494,-0.34375,0.1875,0.484375
332,0.4716797,0.035583496,-0.82232666,-0.5,0.09375,0.484375
333,0.47680664,0.036315918,-0.831604,-0.75,0.03125,0.34375
334,0.47070312,0.035583496,-0.8279419,-0.671875,-0.15625,0.34375
335,0.47485352,0.02923584,-0.82403564,-0.5,-0.03125,0.4375
336,0.4753418,0.028015137,-0.8250122,-0.59375,0.546875,0.40625
337,0.46899414,0.03387451,-0.8323364,-0.734375,1.296875,0.28125
338,0.46801758,0.029724121,-0.8230591,-1.546875,3.46875,0.125
339,0.4621582,0.03387451,-0.83843994,-0.5625,3.453125,0.25
340,0.45776367,0.032409668,-0.8399048,0.1875,2.65625,0.40625
341,0.45703125,0.027770996,-0.83258057,0.03125,2.84375,0.328125
342,0.45141602,0.028259277,-0.83843994,0.15625,1.84375,0.34375
343,0.45166016,0.031188965,-0.8394165,0.0625,1.875,0.28125
344,0.44506836,0.03289795,-0.83917236,0.125,1.3125,0.234375
345,0.44580078,0.03778076,-0.8435669,-0.140625,0.765625,0.328125
346,0.44848633,0.03778076,-0.8442993,-0.3125,0.546875,0.34375
347,0.44555664,0.029724121,-0.8406372,-0.546875,0.125,0.359375
348,0.44580078,0.03314209,-0.8428345,-0.609375,-0.125,0.4375
349,0.4482422,0.03265381,-0.8386841,-0.8125,-0.8125,0.40625
350,0.4482422,0.03704834,-0.82940674,-0.5,-0.65625,0.546875
351,0.4453125,0.034362793,-0.8335571,-0.078125,-0.828125,0.734375
352,0.45458984,0.035583496,-0.84747314,-0.296875,-0.875,0.5
353,0.45385742,0.028015137,-0.84210205,-0.265625,-0.78125,0.484375
354,0.45361328,0.036315918,-0.83551025,-0.5,0.34375,0.328125
355,0.45385742,0.035583496,-0.8435669,-0.40625,0.015625,0.421875
356,0.4494629,0.035339355,-0.8369751,-0.6875,0.015625,0.53125
357,0.45922852,0.03363037,-0.8340454,-0.65625,-0.0625,0.375
358,0.45141602,0.032409668,-0.847229,-0.671875,0.015625,0.4375
359,0.44921875,0.03387451,-0.8377075,-0.375,-0.21875,0.4375
360,0.45410156,0.035339355,-0.8377075,-0.296875,0.0625,0.484375
361,0.4555664,0.032409668,-0.8394165,-0.609375,-0.03125,0.40625
362,0.46166992,0.035583496,-0.8423462,-0.484375,-0.03125,0.484375
363,0.45239258,0.035339355,-0.8340454,-0.59375,-0.171875,0.375
364,0.45166016,0.032165527,-0.835022,-0.359375,-0.265625,0.359375
365,0.45751953,0.03314209,-0.84210205,-0.484375,0.078125,0.4375
366,0.45166016,0.03314209,-0.8447876,-0.40625,0.078125,0.296875
367,0.45336914,0.036071777,-0.8389282,-0.453125,-0.109375,0.40625
368,0.4555664,0.030944824,-0.84454346,-0.6875,-0.40625,0.421875
369,0.45410156,0.030212402,-0.833313,-0.46875,-0.078125,0.359375
370,0.45361328,0.04071045,-0.835022,-0.65625,-0.203125,0.421875
371,0.453125,0.03363037,-0.83477783,-0.5,-0.34375,0.375
372,0.45361328,0.031433105,-0.8328247,-0.25,0.0,0.453125
373,0.45703125,0.03656006,-0.8430786,-0.5,-0.140625,0.375
374,0.45703125,0.039733887,-0.8430786,-0.71875,0.03125,0.453125
375,0.4543457,0.035583496,-0.83551025,-0.546875,-0.015625,0.4375
376,0.45703125,0.028015137,-0.8328247,-0.421875,-0.09375,0.28125
377,0.45703125,0.035095215,-0.8406372,-0.546875,-0.109375,0.453125
378,0.45532227,0.030456543,-0.83843994,-0.359375,-0.34375,0.328125
379,0.4580078,0.03265381,-0.83843994,-0.25,-0.1875,0.59375
380,0.45385742,0.035583496,-0.835022,-0.390625,-0.28125,0.375
381,0.46264648,0.036315918,-0.83428955,-0.5625,-0.25,0.515625
382,0.45214844,0.039245605,-0.83721924,-0.4375,-0.09375,0.46875
383,0.4584961,0.032165527,-0.8369751,-0.484375,0.171875,0.328125
384,0.44921875,0.029968262,-0.8308716,-0.46875,0.203125,0.390625
385,0.45483398,0.03338623,-0.83062744,-0.421875,-0.03125,0.40625
386,0.4567871,0.028747559,-0.8435669,-0.625,-0.09375,0.34375
387,0.45825195,0.03265381,-0.8340454,-0.4375,0.078125,0.40625
388,0.45532227,0.02508545,-0.83599854,-0.625,-0.125,0.40625
389,0.45458984,0.031433105,-0.83062744,-0.453125,-0.265625,0.453125
390,0.4567871,0.027526855,-0.84039307,-0.265625,-0.25,0.421875
391,0.45996094,0.034362793,-0.8452759,-0.34375,-0.0625,0.515625
392,0.4555664,0.028747559,-0.8340454,-0.578125,-0.078125,0.546875
393,0.46142578,0.039978027,-0.847229,-0.453125,-0.140625,0.484375
394,0.4543457,0.029968262,-0.8303833,-0.703125,-0.21875,0.46875
395,0.45385742,0.034118652,-0.8364868,-0.453125,-0.15625,0.53125
396,0.46240234,0.034362793,-0.83599854,-0.53125,-0.0625,0.34375
397,0.45288086,0.030700684,-0.83599854,-0.421875,0.09375,0.5625
398,0.45825195,0.029968262,-0.83135986,-0.375,0.078125,0.515625
399,0.45776367,0.034606934,-0.84161377,-0.59375,0.03125,0.4375
400,0.4597168,0.035827637,-0.8413696,-0.578125,-0.328125,0.390625
401,0.46142578,0.038757324,-0.8406372,-0.5625,-0.3125,0.546875
402,0.45385742,0.028503418,-0.83599854,-0.53125,-0.578125,0.40625
403,0.45751953,0.039245605,-0.8357544,-0.5625,-0.359375,0.46875
404,0.45507812,0.030944824,-0.8303833,-0.515625,-0.21875,0.25
405,0.46166992,0.03338623,-0.8362427,-0.75,-0.234375,0.296875
406,0.4609375,0.030700684,-0.82769775,-0.34375,-0.03125,0.375
407,0.45629883,0.035583496,-0.83258057,-0.5625,0.15625,0.5
408,0.46240234,0.0289917,-0.831604,-0.390625,0.015625,0.3125
409,0.46069336,0.036071777,-0.83721924,-0.4375,0.296875,0.390625
410,0.46118164,0.030700684,-0.8362427,-0.484375,0.234375,0.34375
411,0.46191406,0.034606934,-0.8357544,-0.5625,0.015625,0.484375
412,0.46362305,0.031921387,-0.83306885,-0.484375,0.21875,0.46875
413,0.46020508,0.03265381,-0.8286743,-0.296875,-0.09375,0.484375
414,0.4633789,0.035095215,-0.8411255,-0.5,0.03125,0.40625
415,0.45751953,0.031921387,-0.8303833,-0.34375,0.046875,0.515625
416,0.46533203,0.03363037,-0.8399048,-0.84375,0.140625,0.359375
417,0.453125,0.031677246,-0.82696533,-0.34375,-0.03125,0.609375
418,0.46240234,0.03729248,-0.83428955,-0.421875,-0.046875,0.34375
419,0.4650879,0.03387451,-0.8401489,-0.5625,-0.078125,0.359375
420,0.46069336,0.035827637,-0.8345337,-0.6875,-0.9375,0.28125
421,0.4663086,0.02923584,-0.82647705,-0.859375,-1.1875,0.421875
422,0.45776367,0.024353027,-0.82647705,-0.375,-1.28125,0.65625
423,0.46606445,0.031921387,-0.8374634,-0.4375,-0.890625,0.4375
424,0.4699707,0.030700684,-0.82940674,-0.296875,-0.125,0.46875
425,0.47045898,0.035827637,-0.831604,-0.171875,0.25,0.515625
426,0.4711914,0.036315918,-0.8284302,-0.703125,0.234375,0.375
427,0.4621582,0.04071045,-0.82354736,-0.78125,0.296875,0.21875
428,0.46679688,0.0289917,-0.829895,-0.484375,0.015625,0.578125
429,0.4621582,0.027770996,-0.8345337,-0.484375,0.109375,0.546875
430,0.4650879,0.031188965,-0.83013916,-0.46875,0.109375,0.34375
431,0.46166992,0.03387451,-0.8286743,-0.453125,-0.171875,0.390625
432,0.46044922,0.03387451,-0.8291626,-0.3125,-0.125,0.375
433,0.46704102,0.031677246,-0.83184814,-0.40625,-0.078125,0.4375
434,0.46655273,0.029968262,-0.83428955,-0.46875,-0.046875,0.515625
435,0.46948242,0.031921387,-0.8323364,-0.359375,0.140625,0.40625
436,0.46191406,0.030212402,-0.8237915,-0.5,-0.03125,0.359375
437,0.46069336,0.035827637,-0.83795166,-0.578125,0.1875,0.421875
438,0.46240234,0.03265381,-0.8340454,-0.578125,0.0625,0.46875
439,0.46533203,0.029724121,-0.83258057,-0.5625,0.515625,0.515625
440,0.46850586,0.032165527,-0.8340454,-0.609375,1.21875,0.234375
441,0.4609375,0.027526855,-0.82940674,-1.03125,3.90625,-0.015625
442,0.4543457,0.031677246,-0.83917236,-0.03125,2.59375,0.421875
443,0.45214844,0.03704834,-0.83721924,0.5625,1.84375,0.484375
444,0.45092773,0.036071777,-0.84210205,0.328125,1.546875,0.375
445,0.4501953,0.035339355,-0.83306885,0.109375,1.4375,0.34375
446,0.44921875,0.030212402,-0.83795166,0.0,1.5,0.375
447,0.44433594,0.035095215,-0.84210205,-0.046875,1.515625,0.171875
448,0.4477539,0.035583496,-0.84625244,-0.046875,0.296875,0.25
449,0.44433594,0.038757324,-0.8440552,-0.453125,-0.546875,0.515625
450,0.44873047,0.035339355,-0.8464966,-1.171875,-2.046875,0.46875
451,0.4404297,0.031677246,-0.8154907,0.125,-2.734375,1.03125
452,0.46069336,0.03338623,-0.848938,-0.421875,-0.9375,0.28125
453,0.4638672,0.036071777,-0.8464966,-0.4375,-0.5625,0.296875
454,0.45239258,0.04437256,-0.83380127,-0.03125,-0.265625,0.59375
455,0.45385742,0.038024902,-0.83380127,-0.1875,-0.0625,0.453125
456,0.453125,0.039733887,-0.83721924,-0.640625,-0.078125,0.46875
457,0.45043945,0.034118652,-0.83673096,-0.96875,-0.09375,0.09375
458,0.45776367,0.034362793,-0.83673096,-0.8125,-0.140625,0.421875
459,0.45214844,0.0368042,-0.8460083,-0.421875,0.0625,0.46875
460,0.45483398,0.03387451,-0.84039307,-0.28125,0.21875,0.5625
461,0.45166016,0.035095215,-0.83380127,-0.234375,-0.1875,0.484375
462,0.45483398,0.034851074,-0.8362427,-0.578125,-0.34375,0.359375
463,0.4501953,0.03338623,-0.83306885,-0.546875,-0.09375,0.53125
464,0.4597168,0.031188965,-0.8399048,-0.703125,-0.03125,0.515625
465,0.4560547,0.029968262,-0.831604,-0.4375,-0.296875,0.390625
466,0.44848633,0.032165527,-0.83599854,-0.234375,-0.5,0.546875
467,0.45532227,0.035827637,-0.8381958,-0.234375,0.125,0.453125
468,0.45166016,0.034118652,-0.8362427,-0.515625,0.03125,0.578125
469,0.4543457,0.042419434,-0.84039307,-0.765625,-0.34375,0.40625
470,0.45629883,0.042663574,-0.83428955,-0.796875,-0.71875,0.453125
471,0.45703125,0.038024902,-0.83013916,-0.59375,-0.9375,0.484375
472,0.44628906,0.026062012,-0.83477783,-0.484375,-0.6875,0.578125
473,0.45825195,0.0289917,-0.8340454,-0.375,-0.671875,0.484375
474,0.45703125,0.042663574,-0.8296509,-0.328125,-0.234375,0.578125
475,0.4584961,0.04144287,-0.83477783,-0.609375,0.15625,0.5
476,0.45581055,0.042175293,-0.83135986,-0.71875,0.046875,0.40625
477,0.46264648,0.035095215,-0.8362427,-0.71875,0.421875,0.296875
478,0.46166992,0.026794434,-0.8357544,-0.65625,0.078125,0.46875
479,0.4580078,0.03363037,-0.8335571,-0.734375,-0.078125,0.375
480,0.4609375,0.034606934,-0.82891846,-0.40625,-0.1875,0.484375
481,0.45703125,0.04046631,-0.8401489,-0.53125,-0.140625,0.578125
482,0.45922852,0.03778076,-0.8411255,-0.453125,0.078125,0.453125
483,0.45874023,0.031921387,-0.8296509,-0.640625,-0.328125,0.375
484,0.45751953,0.039245605,-0.835022,-0.59375,-0.3125,0.328125
485,0.4609375,0.030456543,-0.82940674,-0.4375,-0.03125,0.5
486,0.4638672,0.042175293,-0.83428955,-0.515625,0.0,0.390625
487,0.46069336,0.035827637,-0.8352661,-0.671875,0.015625,0.421875
488,0.46191406,0.03265381,-0.835022,-0.515625,-0.25,0.421875
489,0.4609375,0.034118652,-0.8399048,-0.5625,0.171875,0.296875
490,0.4658203,0.035583496,-0.8267212,-0.546875,-0.125,0.46875
491,0.4621582,0.03704834,-0.83380127,-0.6875,-0.21875,0.390625
492,0.46069336,0.035583496,-0.8335571,-0.390625,-0.3125,0.578125
493,0.45947266,0.039978027,-0.8303833,-0.53125,-0.296875,0.484375
494,0.4609375,0.034118652,-0.8303833,-0.4375,-0.25,0.390625
495,0.46484375,0.034118652,-0.83258057,-0.5625,-0.0625,0.375
496,0.4597168,0.04095459,-0.82647705,-0.53125,-0.03125,0.4375
497,0.46240234,0.034606934,-0.8308716,-0.46875,0.34375,0.296875
498,0.4663086,0.034606934,-0.8311157,-0.53125,0.390625,0.359375
499,0.46069336,0.03314209,-0.8352661,-0.640625,0.328125,0.46875
500,0.4519043,0.038757324,-0.829895,-0.390625,0.140625,0.40625
501,0.46264648,0.028747559,-0.829895,-0.578125,0.140625,0.328125
502,0.45703125,0.0289917,-0.831604,-0.578125,0.15625,0.46875
503,0.46044922,0.026306152,-0.83135986,-0.578125,0.0625,0.546875
504,0.46362305,0.032409668,-0.8406372,-0.515625,0.171875,0.359375
505,0.46533203,0.0289917,-0.8311157,-0.53125,0.09375,0.359375
506,0.46801758,0.03314209,-0.8296509,-0.53125,-0.046875,0.40625
507,0.45996094,0.0289917,-0.8328247,-0.546875,0.09375,0.734375
508,0.46728516,0.03363037,-0.8362427,-0.59375,-0.046875,0.453125
509,0.46411133,0.035583496,-0.8369751,-0.640625,0.15625,0.3125
510,0.46606445,0.026306152,-0.8389282,-0.53125,0.015625,0.390625
511,0.45263672,0.02947998,-0.835022,-0.359375,0.15625,0.453125
512,0.46069336,0.03704834,-0.833313,-0.359375,0.078125,0.453125
513,0.45825195,0.032409668,-0.8296509,-0.484375,0.171875,0.453125
514,0.4584961,0.034606934,-0.8340454,-0.46875,0.046875,0.296875
515,0.45629883,0.026062012,-0.83380127,-0.4375,-0.015625,0.40625
516,0.46313477,0.031677246,-0.8364868,-0.5625,-0.0625,0.578125
517,0.46240234,0.035339355,-0.8335571,-0.484375,0.03125,0.453125
518,0.46289062,0.03778076,-0.83795166,-0.59375,-0.046875,0.4375
519,0.4645996,0.03387451,-0.83795166,-0.78125,-0.21875,0.546875
520,0.4572754,0.03314209,-0.8364868,-0.5625,0.03125,0.46875
521,0.4584961,0.034851074,-0.8308716,-0.328125,0.171875,0.484375
522,0.4621582,0.029724121,-0.84039307,-0.671875,0.046875,0.3125
523,0.46118164,0.027770996,-0.829895,-0.4375,0.015625,0.375
524,0.46166992,0.035339355,-0.8428345,-0.578125,0.15625,0.4375
525,0.46118164,0.0368042,-0.83380127,-0.546875,0.0625,0.46875
526,0.46313477,0.027282715,-0.8335571,-0.4375,0.046875,0.46875
527,0.45654297,0.031433105,-0.8345337,-0.5625,0.078125,0.453125
528,0.4609375,0.0368042,-0.8320923,-0.71875,-0.0625,0.53125
529,0.45947266,0.035827637,-0.835022,-0.671875,-0.171875,0.53125
530,0.45947266,0.03363037,-0.8340454,-0.5,0.03125,0.28125
531,0.46191406,0.034118652,-0.83306885,-0.40625,0.015625,0.40625
532,0.46020508,0.0289917,-0.833313,-0.453125,-0.046875,0.4375
533,0.4621582,0.030944824,-0.83062744,-0.34375,0.0,0.421875
534,0.45532227,0.030212402,-0.8352661,-0.46875,0.21875,0.53125
535,0.45507812,0.036071777,-0.8303833,-0.5,0.203125,0.3125
536,0.46313477,0.03289795,-0.83013916,-0.453125,0.25,0.359375
537,0.45117188,0.03314209,-0.831604,-0.375,0.453125,0.34375
538,0.45654297,0.04095459,-0.8345337,-0.3125,0.109375,0.46875
539,0.45654297,0.026550293,-0.83673096,-0.28125,0.421875,0.390625
540,0.46264648,0.036071777,-0.835022,-0.1875,0.453125,0.453125
541,0.46069336,0.03704834,-0.83721924,-0.4375,0.640625,0.5625
542,0.4650879,0.03387451,-0.83258057,-0.421875,0.46875,0.40625
543,0.45117188,0.034362793,-0.8413696,-0.390625,0.75,0.375
544,0.45996094,0.03265381,-0.83721924,-0.25,0.984375,0.3125
545,0.45751953,0.030456543,-0.83551025,-0.28125,0.6875,0.4375
546,0.45361328,0.03338623,-0.8389282,-0.421875,0.796875,0.375
547,0.45483398,0.031677246,-0.8320923,-0.28125,0.6875,0.296875
548,0.45532227,0.03338623,-0.8362427,-0.1875,0.3125,0.421875
549,0.45214844,0.034851074,-0.83551025,-0.234375,0.609375,0.46875
550,0.44873047,0.034606934,-0.8357544,-0.234375,0.640625,0.421875
551,0.44970703,0.032165527,-0.83428955,-0.140625,0.921875,0.5
552,0.45117188,0.032409668,-0.8479614,-0.5,0.671875,0.328125
553,0.4494629,0.035583496,-0.83428955,-0.109375,0.359375,0.421875
554,0.4501953,0.031921387,-0.8386841,0.0,0.65625,0.34375
555,0.44482422,0.035827637,-0.83673096,-0.03125,1.109375,0.296875
556,0.44580078,0.03314209,-0.85284424,-0.375,0.9375,0.109375
557,0.44335938,0.032165527,-0.8513794,-0.484375,0.453125,0.3125
558,0.4411621,0.03387451,-0.8406372,-0.359375,-0.125,0.515625
559,0.44873047,0.034851074,-0.84869385,-0.78125,-0.984375,0.484375
560,0.44628906,0.031188965,-0.84088135,-0.484375,-1.484375,0.671875
561,0.44262695,0.028015137,-0.8189087,0.421875,-1.421875,0.734375
562,0.45996094,0.030456543,-0.85943604,-0.453125,-0.390625,0.328125
563,0.4572754,0.046813965,-0.8374634,-0.140625,0.03125,0.5
564,0.45141602,0.039489746,-0.83380127,-0.3125,-0.125,0.515625
565,0.44750977,0.039001465,-0.83477783,-0.921875,-0.296875,0.59375
566,0.44873047,0.029968262,-0.83135986,-1.09375,-0.21875,0.40625
567,0.44970703,0.02947998,-0.83795166,-0.984375,-0.34375,0.296875
568,0.453125,0.03363037,-0.8435669,-0.40625,-0.0625,0.5
569,0.45898438,0.034851074,-0.8501587,-0.28125,-0.015625,0.484375
570,0.4560547,0.038269043,-0.83380127,-0.328125,-0.125,0.5
571,0.45214844,0.043640137,-0.8320923,-0.640625,-0.203125,0.34375
572,0.45117188,0.034851074,-0.8323364,-0.53125,-0.234375,0.390625
573,0.453125,0.036071777,-0.84210205,-0.546875,0.0,0.4375
574,0.45507812,0.035827637,-0.84698486,-0.59375,0.0,0.421875
575,0.4489746,0.034362793,-0.83013916,-0.25,-0.390625,0.5625
576,0.4543457,0.03729248,-0.84088135,-0.703125,-0.15625,0.3125
577,0.45288086,0.04168701,-0.8340454,-0.484375,-0.046875,0.28125
578,0.45263672,0.039001465,-0.8364868,-0.671875,-0.1875,0.5
579,0.46069336,0.032409668,-0.83551025,-0.421875,-0.171875,0.453125
580,0.45361328,0.035095215,-0.83380127,-0.4375,0.109375,0.265625
581,0.4555664,0.04046631,-0.83428955,-0.53125,0.03125,0.453125
582,0.45483398,0.036315918,-0.8377075,-0.5,-0.078125,0.46875
583,0.44970703,0.03656006,-0.8381958,-0.609375,-0.203125,0.484375
584,0.45581055,0.039733887,-0.83795166,-0.59375,-0.265625,0.46875
585,0.45947266,0.028015137,-0.8401489,-0.578125,-0.453125,0.4375
586,0.45654297,0.03753662,-0.8399048,-0.46875,-0.296875,0.515625
587,0.4567871,0.03363037,-0.83013916,-0.625,-0.375,0.421875
588,0.4609375,0.034851074,-0.83428955,-0.328125,-0.1875,0.546875
589,0.45947266,0.034118652,-0.8340454,-0.46875,0.203125,0.53125
590,0.46142578,0.03656006,-0.83477783,-0.59375,0.140625,0.234375
591,0.45532227,0.04144287,-0.83673096,-0.625,0.203125,0.3125
592,0.46044922,0.032165527,-0.8374634,-0.515625,0.09375,0.484375
593,0.453125,0.03289795,-0.83258057,-0.4375,-0.15625,0.609375
594,0.45874023,0.0368042,-0.8418579,-0.578125,0.03125,0.359375
595,0.45874023,0.034851074,-0.8374634,-0.40625,0.03125,0.5
596,0.46191406,0.03778076,-0.8386841,-0.4375,0.046875,0.5
597,0.4555664,0.035339355,-0.8394165,-0.578125,0.140625,0.296875
598,0.45458984,0.03778076,-0.84088135,-0.59375,0.34375,0.484375
599,0.45629883,0.04119873,-0.83380127,-0.53125,-0.171875,0.40625
600,0.45825195,0.03363037,-0.8340454,-0.34375,-0.140625,0.609375
601,0.45874023,0.034118652,-0.84161377,-0.5625,-0.140625,0.46875
602,0.4555664,0.031921387,-0.8296509,-0.359375,-0.328125,0.421875
603,0.45654297,0.039489746,-0.8369751,-0.40625,0.140625,0.40625
604,0.4609375,0.044128418,-0.8399048,-0.53125,0.0625,0.25
605,0.4580078,0.02947998,-0.83306885,-0.578125,-0.171875,0.34375
606,0.45776367,0.034606934,-0.8345337,-0.421875,-0.234375,0.546875
607,0.4572754,0.034606934,-0.8411255,-0.578125,0.015625,0.46875
608,0.45751953,0.030944824,-0.8296509,-0.828125,-0.046875,0.328125
609,0.45776367,0.035827637,-0.835022,-0.46875,0.140625,0.484375
610,0.45410156,0.035095215,-0.8401489,-0.5,0.203125,0.453125
611,0.45776367,0.03363037,-0.8335571,-0.609375,-0.03125,0.578125
612,0.46118164,0.032409668,-0.83721924,-0.640625,-0.25,0.421875
613,0.45996094,0.04046631,-0.8352661,-0.546875,-0.015625,0.546875
614,0.4519043,0.034362793,-0.83380127,-0.21875,0.078125,0.421875
615,0.45776367,0.032409668,-0.831604,-0.46875,0.125,0.234375
616,0.45507812,0.039733887,-0.8386841,-0.515625,0.0625,0.421875
617,0.45703125,0.031921387,-0.8374634,-0.546875,0.015625,0.5
618,0.4580078,0.0368042,-0.8364868,-0.46875,-0.015625,0.453125
619,0.45703125,0.038269043,-0.83551025,-0.5625,-0.0625,0.34375
620,0.45507812,0.035095215,-0.835022,-0.609375,-0.25,0.359375
621,0.46411133,0.030700684,-0.8303833,-0.5,-0.140625,0.4375
622,0.46313477,0.034606934,-0.83380127,-0.21875,-0.1875,0.5625
623,0.45532227,0.038024902,-0.84088135,-0.328125,-0.15625,0.5
624,0.4609375,0.035339355,-0.8362427,-0.59375,0.015625,0.375
625,0.45898438,0.038757324,-0.8296509,-0.546875,-0.375,0.390625
626,0.45874023,0.029968262,-0.8335571,-0.703125,-0.6875,0.453125
627,0.4663086,0.034606934,-0.83258057,-0.703125,-0.796875,0.421875
628,0.46557617,0.035583496,-0.8386841,-0.625,-0.640625,0.359375
629,0.46142578,0.034362793,-0.8284302,-0.609375,-0.34375,0.546875
630,0.46191406,0.03289795,-0.8286743,-0.53125,-0.171875,0.484375
631,0.46484375,0.03289795,-0.8311157,-0.765625,-0.03125,0.28125
632,0.46411133,0.032165527,-0.83380127,-0.75,-0.046875,0.265625
633,0.4633789,0.028259277,-0.83062744,-0.5625,-0.234375,0.453125
634,0.46166992,0.03289795,-0.83184814,-0.484375,-0.1875,0.453125
635,0.4633789,0.030700684,-0.8323364,-0.5,0.015625,0.53125
636,0.4645996,0.02947998,-0.829895,-0.421875,0.15625,0.484375
637,0.46801758,0.039245605,-0.83306885,-0.4375,0.28125,0.453125
638,0.46289062,0.035095215,-0.8237915,-0.46875,0.109375,0.5625
639,0.46899414,0.028259277,-0.83380127,-0.640625,-0.046875,0.40625
640,0.46777344,0.0289917,-0.8303833,-0.546875,-0.140625,0.359375
641,0.46020508,0.034118652,-0.831604,-0.546875,0.140625,0.4375
642,0.45947266,0.036071777,-0.8245239,-0.328125,-0.03125,0.484375
643,0.46362305,0.036315918,-0.835022,-0.484375,0.125,0.4375
644,0.46948242,0.035095215,-0.83917236,-0.65625,0.375,0.34375
645,0.46362305,0.03289795,-0.8296509,-0.578125,0.109375,0.3125
646,0.4621582,0.038513184,-0.83721924,-0.46875,0.25,0.46875
647,0.4650879,0.02923584,-0.8394165,-0.453125,0.71875,0.4375
648,0.4580078,0.027282715,-0.82818604,-0.71875,2.0,0.234375
649,0.4482422,0.032409668,-0.8328247,-0.375,3.140625,0.234375
650,0.4555664,0.028747559,-0.84332275,0.140625,2.09375,0.421875
651,0.44848633,0.031677246,-0.83477783,0.171875,1.40625,0.296875
652,0.45336914,0.034606934,-0.8423462,-0.03125,1.203125,0.375
653,0.44702148,0.029968262,-0.8418579,-0.1875,0.921875,0.203125
654,0.44873047,0.035095215,-0.8428345,-0.15625,0.8125,0.359375
655,0.44677734,0.035583496,-0.8423462,-0.078125,0.765625,0.265625
656,0.4482422,0.034851074,-0.84088135,-0.265625,0.5,0.40625
657,0.4440918,0.0446167,-0.84039307,-0.5,-0.5,0.484375
658,0.45336914,0.03656006,-0.8418579,-1.0,-1.09375,0.359375
659,0.4428711,0.035095215,-0.8291626,-0.53125,-1.421875,0.625
660,0.45361328,0.032165527,-0.83917236,-0.421875,-1.046875,0.640625
661,0.45898438,0.03704834,-0.84991455,-0.328125,-0.953125,0.484375
662,0.4489746,0.03338623,-0.8377075,-0.140625,0.109375,0.453125
663,0.45361328,0.042175293,-0.8377075,-0.5625,-0.28125,0.375
664,0.45654297,0.038513184,-0.83062744,-0.5,-0.15625,0.53125
665,0.44604492,0.030212402,-0.833313,-0.46875,-0.34375,0.421875
666,0.46020508,0.032409668,-0.8374634,-0.6875,-0.359375,0.609375
667,0.4555664,0.024597168,-0.8389282,-0.5625,-0.125,0.46875
668,0.4501953,0.038513184,-0.83013916,-0.234375,-0.21875,0.53125
669,0.45410156,0.038269043,-0.8374634,-0.515625,-0.109375,0.21875
670,0.45336914,0.035827637,-0.8447876,-0.765625,-0.296875,0.296875
671,0.45874023,0.035339355,-0.8291626,-0.40625,-0.03125,0.515625
672,0.45214844,0.03289795,-0.84039307,-0.6875,-0.140625,0.5
673,0.45385742,0.034851074,-0.8311157,-0.578125,-0.109375,0.421875
674,0.45581055,0.035583496,-0.84088135,-0.296875,-0.015625,0.4375
675,0.4567871,0.03338623,-0.8374634,-0.28125,0.125,0.375
676,0.45166016,0.046081543,-0.829895,-0.578125,-0.078125,0.390625
677,0.44873047,0.03314209,-0.83721924,-0.578125,0.046875,0.390625
678,0.45385742,0.038269043,-0.8381958,-0.46875,-0.15625,0.46875
679,0.4560547,0.03363037,-0.8401489,-0.71875,-0.25,0.453125
680,0.45703125,0.034606934,-0.8340454,-0.625,-0.40625,0.40625
681,0.4506836,0.030944824,-0.8311157,-0.484375,-0.171875,0.421875
682,0.45654297,0.04095459,-0.83843994,-0.390625,-0.3125,0.5
683,0.45825195,0.03265381,-0.8430786,-0.40625,-0.375,0.5625
684,0.45166016,0.035095215,-0.83477783,-0.5625,-0.21875,0.578125
685,0.45825195,0.03656006,-0.8335571,-0.53125,-0.234375,0.484375
686,0.45654297,0.04168701,-0.8328247,-0.625,-0.28125,0.5625
687,0.4494629,0.04119873,-0.8340454,-0.5625,-0.453125,0.515625
688,0.45825195,0.031677246,-0.83843994,-0.546875,-0.046875,0.40625
689,0.46118164,0.03363037,-0.8320923,-0.53125,-0.171875,0.296875
690,0.45751953,0.03387451,-0.8335571,-0.46875,0.0,0.484375
691,0.4609375,0.034362793,-0.8340454,-0.59375,0.015625,0.359375
692,0.45825195,0.032409668,-0.83184814,-0.265625,0.125,0.421875
693,0.46069336,0.03314209,-0.83917236,-0.46875,0.1875,0.40625
694,0.45507812,0.035339355,-0.8352661,-0.484375,0.15625,0.421875
695,0.45874023,0.034362793,-0.835022,-0.671875,0.09375,0.328125
696,0.45703125,0.044128418,-0.82525635,-0.578125,-0.03125,0.34375
697,0.45751953,0.026794434,-0.8345337,-0.4375,-0.125,0.46875
698,0.4584961,0.030944824,-0.83795166,-0.734375,0.015625,0.3125
699,0.46118164,0.03265381,-0.83795166,-0.390625,-0.015625,0.46875
700,0.45922852,0.03338623,-0.83843994,-0.359375,-0.140625,0.34375
701,0.4609375,0.030944824,-0.8352661,-0.359375,-0.0625,0.46875
702,0.45385742,0.030456543,-0.83599854,-0.5,-0.203125,0.296875
703,0.46289062,0.03387451,-0.83184814,-0.546875,-0.03125,0.328125
704,0.46313477,0.034362793,-0.83673096,-0.46875,-0.203125,0.359375
705,0.45751953,0.030456543,-0.8279419,-0.359375,-0.234375,0.421875
706,0.46166992,0.03387451,-0.8352661,-0.328125,0.015625,0.5
707,0.4633789,0.03704834,-0.8311157,-0.265625,0.03125,0.515625
708,0.46362305,0.031433105,-0.8364868,-0.546875,0.125,0.453125
709,0.46020508,0.032165527,-0.84039307,-0.671875,0.125,0.25
710,0.46069336,0.030456543,-0.8296509,-0.484375,0.0,0.328125
711,0.4609375,0.029968262,-0.83258057,-0.5,-0.109375,0.4375
712,0.4543457,0.02947998,-0.83135986,-0.453125,0.078125,0.40625
713,0.4597168,0.03656006,-0.8377075,-0.40625,0.015625,0.53125
714,0.45898438,0.027282715,-0.8374634,-0.46875,0.078125,0.296875
715,0.45629883,0.034118652,-0.8286743,-0.484375,-0.171875,0.375
716,0.45898438,0.02947998,-0.833313,-0.53125,-0.140625,0.46875
717,0.45874023,0.036071777,-0.83380127,-0.421875,-0.171875,0.46875
718,0.46142578,0.031188965,-0.83258057,-0.359375,-0.140625,0.3125
719,0.46313477,0.030944824,-0.83966064,-0.4375,-0.15625,0.328125
720,0.46435547,0.028747559,-0.83673096,-0.484375,0.078125,0.390625
721,0.45458984,0.03338623,-0.8296509,-0.328125,0.15625,0.28125
722,0.4658203,0.03289795,-0.83599854,-0.6875,0.203125,0.296875
723,0.4580078,0.03338623,-0.835022,-0.46875,-0.140625,0.53125
724,0.46313477,0.031921387,-0.8352661,-0.65625,-0.15625,0.46875
725,0.45922852,0.03387451,-0.835022,-0.484375,-0.140625,0.359375
726,0.45898438,0.03656006,-0.8328247,-0.515625,-0.4375,0.296875
727,0.45922852,0.03289795,-0.8374634,-0.40625,-0.046875,0.4375
728,0.4609375,0.034118652,-0.8320923,-0.25,0.0,0.5
729,0.46191406,0.034118652,-0.83428955,-0.453125,-0.140625,0.484375
730,0.46044922,0.03314209,-0.8345337,-0.625,-0.578125,0.4375
731,0.47045898,0.04168701,-0.833313,-0.5625,-0.921875,0.34375
732,0.46972656,0.038513184,-0.83135986,-0.5,-1.09375,0.484375
733,0.46240234,0.032165527,-0.829895,-0.671875,-1.25,0.421875
734,0.46704102,0.03338623,-0.831604,-0.546875,-1.015625,0.25
735,0.4675293,0.035339355,-0.8369751,-0.53125,-0.875,0.40625
736,0.47485352,0.031921387,-0.8335571,-0.640625,-1.15625,0.453125
737,0.46850586,0.03363037,-0.82891846,-0.5,-1.015625,0.34375
738,0.47045898,0.032409668,-0.8272095,-0.578125,-0.625,0.421875
739,0.47436523,0.030456543,-0.8206177,-0.65625,-0.515625,0.3125
740,0.47680664,0.028259277,-0.83013916,-0.4375,-0.546875,0.4375
741,0.47216797,0.029724121,-0.8272095,-0.296875,-0.484375,0.546875
742,0.47875977,0.03778076,-0.8284302,-0.640625,-0.4375,0.234375
743,0.47216797,0.03289795,-0.8250122,-0.421875,-0.375,0.515625
744,0.47460938,0.027526855,-0.82598877,-0.40625,-0.734375,0.4375
745,0.4753418,0.031433105,-0.8279419,-0.453125,-0.703125,0.453125
746,0.4777832,0.03289795,-0.82598877,-0.484375,-0.140625,0.296875
747,0.4741211,0.030456543,-0.8230591,-0.5625,0.21875,0.328125
748,0.4790039,0.032409668,-0.82110596,-0.640625,0.21875,0.5625
749,0.47607422,0.032165527,-0.8196411,-0.4375,0.0625,0.65625
750,0.47851562,0.02947998,-0.8279419,-0.328125,0.578125,0.578125
751,0.47705078,0.026062012,-0.8284302,-0.59375,1.546875,0.328125
752,0.47705078,0.035827637,-0.81988525,-0.96875,4.21875,-0.03125
753,0.46435547,0.034362793,-0.82696533,-0.3125,4.765625,0.21875
754,0.46728516,0.041931152,-0.8411255,-0.03125,2.703125,0.34375
755,0.46679688,0.023620605,-0.8364868,0.015625,1.953125,0.4375
756,0.45166016,0.028747559,-0.8377075,-0.078125,2.171875,0.5
757,0.45532227,0.027770996,-0.83917236,-0.109375,1.765625,0.359375
758,0.4482422,0.030700684,-0.8357544,0.078125,1.375,0.296875
759,0.44970703,0.0368042,-0.83477783,-0.109375,0.703125,0.375
