sample_no,accel_x,accel_y,accel_z,gyro_x,gyro_y,gyro_z
0,0.8144531,-0.10308838,0.5656128,-0.734375,0.15625,0.625
1,0.8105469,-0.101135254,0.5519409,-0.8125,0.171875,0.28125
2,0.814209,-0.105041504,0.5722046,-0.046875,1.078125,0.09375
3,0.8166504,-0.10308838,0.5673218,-0.984375,0.703125,-0.265625
4,0.8203125,-0.10015869,0.5692749,-1.90625,-0.15625,-1.0625
5,0.8129883,-0.09259033,0.57440186,-2.09375,-0.046875,-0.984375
6,0.80029297,-0.10308838,0.5663452,-1.90625,1.21875,-1.0625
7,0.80566406,-0.101135254,0.56536865,-0.4375,1.46875,-0.9375
8,0.80688477,-0.10235596,0.5492554,-0.390625,2.328125,-0.65625
9,0.8041992,-0.10430908,0.57562256,0.34375,2.0625,-0.171875
10,0.80737305,-0.093811035,0.56781006,0.734375,3.140625,-0.203125
11,0.80859375,-0.09625244,0.55462646,0.453125,1.4375,0.0625
12,0.8112793,-0.09820557,0.53460693,0.625,1.265625,-0.125
13,0.8088379,-0.09307861,0.5380249,0.375,1.265625,0.40625
14,0.8154297,-0.089904785,0.52679443,1.234375,2.421875,0.921875
15,0.82666016,-0.11212158,0.5228882,1.96875,3.0,1.0
16,0.82421875,-0.10845947,0.5585327,3.875,3.28125,0.828125
17,0.82006836,-0.10089111,0.5309448,2.046875,1.203125,0.640625
18,0.8129883,-0.11431885,0.5458374,3.625,1.671875,1.515625
19,0.81518555,-0.12310791,0.5470581,1.921875,0.390625,0.765625
20,0.8234863,-0.113586426,0.5458374,0.828125,1.296875,0.09375
21,0.8195801,-0.10235596,0.5360718,0.359375,1.09375,0.53125
22,0.8210449,-0.11114502,0.53704834,0.234375,1.203125,0.53125
23,0.8342285,-0.11383057,0.5409546,-0.453125,1.078125,0.171875
24,0.7988281,-0.07476807,0.5231323,0.09375,-0.09375,0.625
25,0.8354492,-0.12628174,0.5302124,0.453125,1.40625,0.671875
26,0.82470703,-0.10699463,0.5507202,-0.03125,0.15625,0.34375
27,0.8105469,-0.11505127,0.5336304,0.265625,0.640625,0.25
28,0.81469727,-0.11480713,0.5477905,-0.078125,1.34375,0.609375
29,0.8239746,-0.11895752,0.5409546,-0.390625,1.421875,0.953125
30,0.8256836,-0.10479736,0.5272827,-0.90625,0.453125,0.53125
31,0.8305664,-0.11529541,0.5470581,-0.296875,-0.171875,0.125
32,0.8195801,-0.10821533,0.53656006,-0.28125,0.203125,0.484375
33,0.80981445,-0.11456299,0.5375366,-0.125,1.4375,0.96875
34,0.8269043,-0.11846924,0.5465698,-0.25,1.234375,1.296875
35,0.8310547,-0.10821533,0.5321655,-1.0625,1.703125,0.890625
36,0.8256836,-0.10406494,0.53533936,-0.046875,0.609375,0.484375
37,0.81762695,-0.101623535,0.5314331,-0.421875,0.5,0.390625
38,0.81884766,-0.120910645,0.53948975,0.3125,1.84375,0.59375
39,0.82958984,-0.10748291,0.5372925,0.03125,1.140625,0.59375
40,0.8220215,-0.11260986,0.5397339,-0.5,0.328125,0.46875
41,0.8261719,-0.11651611,0.5465698,-0.03125,1.109375,0.1875
42,0.8198242,-0.10650635,0.5307007,-0.4375,1.515625,0.078125
43,0.82421875,-0.121154785,0.53289795,-0.203125,1.78125,0.734375
44,0.8312988,-0.11407471,0.53118896,-1.03125,0.796875,0.453125
45,0.8234863,-0.12286377,0.5392456,-0.515625,1.140625,0.125
46,0.81933594,-0.09967041,0.51898193,-0.75,1.078125,0.125
47,0.8220215,-0.105529785,0.52801514,-0.3125,0.84375,0.609375
48,0.8222656,-0.10748291,0.5404663,-0.453125,1.328125,1.078125
49,0.8273926,-0.12677002,0.54315186,-0.21875,0.5625,0.515625
50,0.8249512,-0.1026001,0.5355835,-0.828125,0.328125,0.171875
51,0.8249512,-0.11187744,0.5258179,-0.734375,0.6875,0.765625
52,0.8273926,-0.11431885,0.54022217,-0.578125,0.578125,0.578125
53,0.826416,-0.09844971,0.51898193,-1.25,1.375,0.34375
54,0.82250977,-0.10089111,0.5331421,-0.4375,0.46875,0.46875
55,0.8330078,-0.10870361,0.52459717,-1.3125,0.765625,0.203125
56,0.8239746,-0.10797119,0.5331421,-0.796875,1.59375,0.546875
57,0.8288574,-0.11260986,0.5338745,-0.546875,0.765625,0.40625
58,0.826416,-0.09918213,0.5355835,-1.078125,0.4375,0.203125
59,0.83618164,-0.113342285,0.5336304,-0.34375,1.765625,0.53125
60,0.82543945,-0.105773926,0.5321655,-0.484375,0.859375,0.625
61,0.82373047,-0.105285645,0.54486084,-0.296875,1.125,0.40625
62,0.8234863,-0.09625244,0.53167725,-1.046875,0.015625,0.171875
63,0.8178711,-0.101867676,0.53948975,-0.640625,0.921875,0.40625
64,0.81762695,-0.10650635,0.5336304,-0.671875,0.859375,0.609375
65,0.8317871,-0.117492676,0.5372925,-0.828125,0.84375,0.28125
66,0.8273926,-0.10772705,0.5282593,-0.5,1.125,0.265625
67,0.82666016,-0.10211182,0.5309448,-1.125,0.453125,0.421875
68,0.826416,-0.10845947,0.53045654,-1.0,0.375,0.375
69,0.8239746,-0.10040283,0.545105,-1.125,-0.046875,0.359375
70,0.81689453,-0.10015869,0.5336304,-1.75,-0.375,0.40625
71,0.8244629,-0.09625244,0.5343628,-1.78125,0.15625,0.40625
72,0.82373047,-0.093322754,0.5414429,-1.59375,0.4375,0.703125
73,0.8198242,-0.09869385,0.5541382,-1.359375,-0.21875,0.609375
74,0.82373047,-0.09039307,0.52679443,-1.953125,1.1875,0.828125
75,0.8120117,-0.097717285,0.51971436,-1.90625,0.59375,0.40625
76,0.8234863,-0.1026001,0.5516968,-0.890625,1.625,0.75
77,0.8432617,-0.081604004,0.52557373,-2.390625,1.078125,1.296875
78,0.8190918,-0.09893799,0.5536499,-1.3125,1.359375,0.96875
79,0.82421875,-0.08795166,0.54022217,-1.53125,1.125,1.03125
80,0.82373047,-0.09698486,0.53533936,-0.859375,1.421875,0.5
81,0.83691406,-0.08868408,0.5231323,-1.78125,1.0625,0.578125
82,0.8239746,-0.074035645,0.53240967,-1.359375,0.359375,0.3125
83,0.826416,-0.08673096,0.5326538,-1.25,0.828125,0.53125
84,0.82836914,-0.07867432,0.5477905,-2.140625,0.40625,0.625
85,0.8210449,-0.08526611,0.5494995,-2.796875,0.296875,0.921875
86,0.826416,-0.070373535,0.5368042,-3.625,1.359375,1.1875
87,0.8366699,-0.07891846,0.5236206,-3.640625,1.171875,0.859375
88,0.8261719,-0.07159424,0.53167725,-2.671875,0.140625,0.515625
89,0.8198242,-0.0725708,0.5355835,-2.03125,-0.421875,0.5
90,0.8227539,-0.06915283,0.54803467,-1.859375,-0.15625,1.109375
91,0.81396484,-0.06964111,0.5429077,-2.25,1.15625,1.390625
92,0.8276367,-0.054992676,0.54241943,-1.9375,1.015625,1.171875
93,0.81933594,-0.059143066,0.5297241,-3.078125,1.09375,1.078125
94,0.8269043,-0.06719971,0.55511475,-1.6875,0.515625,0.859375
95,0.8354492,-0.055480957,0.5285034,-2.96875,0.828125,0.890625
96,0.8203125,-0.06060791,0.5458374,-1.90625,0.234375,0.5625
97,0.82250977,-0.061340332,0.5429077,-1.84375,0.671875,0.625
98,0.82373047,-0.05206299,0.55511475,-2.28125,-0.296875,0.46875
99,0.82543945,-0.04547119,0.54608154,-0.984375,0.40625,0.546875
100,0.8222656,-0.055725098,0.54193115,0.140625,0.21875,0.53125
101,0.8251953,-0.06011963,0.5487671,0.109375,0.40625,0.625
102,0.82714844,-0.05718994,0.54681396,-1.25,0.328125,0.53125
103,0.8227539,-0.0569458,0.5494995,-0.734375,0.84375,0.609375
104,0.8149414,-0.04522705,0.545105,-1.5,1.25,0.71875
105,0.82373047,-0.04888916,0.54486084,-1.578125,1.53125,0.609375
106,0.8203125,-0.05596924,0.54803467,-1.984375,1.5625,0.859375
107,0.82666016,-0.050109863,0.52996826,-1.78125,1.53125,0.875
108,0.83203125,-0.042297363,0.541687,-2.375,1.890625,1.28125
109,0.83154297,-0.04815674,0.5507202,-2.515625,1.703125,1.171875
110,0.82299805,-0.04449463,0.54241943,-2.1875,1.34375,0.96875
111,0.8251953,-0.04034424,0.5326538,-1.78125,1.65625,0.75
112,0.8256836,-0.04083252,0.52996826,-1.09375,1.53125,0.796875
113,0.8137207,-0.02154541,0.5414429,-0.71875,0.953125,0.734375
114,0.8288574,-0.042785645,0.54974365,-1.359375,1.859375,1.078125
115,0.83154297,-0.03326416,0.5314331,-1.328125,1.15625,1.34375
116,0.8273926,-0.026672363,0.52264404,-1.671875,1.296875,0.796875
117,0.82910156,-0.04473877,0.5355835,-1.125,1.859375,0.875
118,0.8354492,-0.03253174,0.51849365,-1.578125,0.765625,0.5
119,0.82470703,-0.026672363,0.53167725,-1.09375,1.578125,0.375
120,0.82910156,-0.042541504,0.5343628,-0.90625,1.28125,0.140625
121,0.8376465,-0.032287598,0.5380249,-1.5625,1.578125,0.234375
122,0.8408203,-0.028137207,0.53826904,-1.3125,1.859375,0.484375
123,0.82714844,-0.02154541,0.53338623,-1.421875,1.875,0.609375
124,0.8286133,-0.02911377,0.53338623,-1.359375,2.328125,0.765625
125,0.84106445,-0.020324707,0.51849365,-2.234375,1.5,0.703125
126,0.83862305,-0.0256958,0.51849365,-1.046875,1.15625,0.515625
127,0.83691406,-0.03253174,0.5158081,-0.78125,0.296875,0.640625
128,0.8339844,-0.027160645,0.5297241,-1.53125,0.09375,0.953125
129,0.84350586,-0.013000488,0.52337646,-2.25,0.640625,0.84375
130,0.83618164,-0.023986816,0.5368042,-1.78125,0.203125,0.859375
131,0.8330078,-0.018127441,0.53948975,-1.421875,1.09375,0.46875
132,0.82910156,-0.026184082,0.5338745,-1.890625,1.265625,0.65625
133,0.8383789,-0.018371582,0.5253296,-1.625,1.5625,0.453125
134,0.8364258,-0.013977051,0.51776123,-1.359375,1.890625,0.4375
135,0.8395996,-0.02178955,0.52020264,-1.25,1.484375,0.609375
136,0.8342285,-0.012756348,0.52215576,-1.828125,1.34375,0.515625
137,0.84277344,-0.014953613,0.5211792,-1.390625,1.8125,0.734375
138,0.8479004,-0.019836426,0.52948,-0.640625,1.484375,0.8125
139,0.84228516,-0.006652832,0.52215576,-0.703125,1.46875,0.3125
140,0.8330078,-0.010559082,0.5343628,-0.375,1.578125,1.125
141,0.8413086,-0.003967285,0.51605225,0.5625,2.671875,1.0
142,0.842041,-0.003479004,0.50775146,0.75,1.71875,0.765625
143,0.84643555,-0.023742676,0.5050659,0.375,1.734375,0.59375
144,0.842041,-0.0022583008,0.50994873,0.328125,1.546875,0.34375
145,0.84936523,-0.0178833,0.5170288,-0.359375,0.375,0.59375
146,0.8444824,-0.013244629,0.5072632,-0.890625,0.875,0.609375
147,0.8371582,-0.012512207,0.49969482,-0.234375,0.890625,0.859375
148,0.8383789,-0.012268066,0.51776123,0.234375,0.953125,0.875
149,0.8483887,-0.0115356445,0.51483154,-1.109375,0.90625,0.375
150,0.84472656,-0.0010375977,0.5126343,-0.34375,-0.578125,0.453125
151,0.83569336,-0.015686035,0.51361084,0.03125,0.734375,0.734375
152,0.8395996,-0.0115356445,0.52630615,-0.546875,0.515625,1.046875
153,0.8413086,-0.011047363,0.526062,-1.0,0.6875,0.609375
154,0.8395996,-0.004699707,0.5114136,-0.84375,0.9375,0.3125
155,0.84155273,-0.0095825195,0.51361084,-0.796875,0.796875,0.515625
156,0.8503418,-0.018859863,0.5026245,-1.046875,0.90625,0.484375
157,0.8395996,-0.007873535,0.5145874,-0.015625,1.1875,0.59375
158,0.8444824,-0.006652832,0.51434326,-0.84375,0.90625,0.5625
159,0.845459,-0.0068969727,0.5126343,-0.828125,0.671875,0.5625
160,0.84521484,-0.007385254,0.51361084,-0.484375,1.25,0.453125
161,0.8378906,-0.00592041,0.5145874,-0.46875,0.40625,0.25
162,0.84106445,-0.003967285,0.5206909,-0.28125,1.484375,0.4375
163,0.84375,-0.011291504,0.51116943,-0.765625,1.375,0.4375
164,0.8359375,-0.00030517578,0.5211792,-0.671875,0.90625,0.359375
165,0.8486328,-0.0064086914,0.508728,-0.796875,0.71875,0.59375
166,0.8461914,0.00018310547,0.5355835,-0.3125,0.578125,0.5
167,0.84521484,-0.009338379,0.5126343,-1.25,1.109375,1.078125
168,0.84643555,-0.022033691,0.50701904,-1.0,1.15625,0.59375
169,0.84472656,-0.00079345703,0.5072632,-0.984375,1.265625,0.078125
170,0.8444824,-0.0020141602,0.49847412,-0.953125,0.171875,0.578125
171,0.8371582,-0.0049438477,0.5182495,-0.59375,1.03125,0.71875
172,0.8383789,-0.0025024414,0.512146,-0.15625,1.625,1.03125
173,0.8432617,-0.004211426,0.49993896,-0.34375,1.40625,0.625
174,0.84033203,0.005065918,0.51898193,-0.4375,0.984375,0.609375
175,0.85253906,0.0040893555,0.4989624,-0.71875,0.609375,0.484375
176,0.84228516,-0.006164551,0.50286865,-0.171875,1.171875,0.4375
177,0.84472656,-0.0049438477,0.5062866,-0.203125,1.203125,0.515625
178,0.8442383,0.0028686523,0.5043335,-0.453125,0.9375,0.546875
179,0.8491211,0.005065918,0.5079956,-0.65625,0.75,0.40625
180,0.8483887,0.010437012,0.49871826,-0.828125,1.046875,0.796875
181,0.8479004,0.0021362305,0.5153198,-0.875,0.703125,1.703125
182,0.8479004,-0.00079345703,0.52337646,-1.59375,0.59375,1.1875
183,0.84594727,0.00579834,0.49945068,-1.203125,0.765625,0.453125
184,0.8449707,-0.006652832,0.50897217,-1.0,1.265625,0.53125
185,0.8522949,0.007751465,0.49945068,-0.1875,1.0625,0.046875
186,0.8444824,0.008728027,0.49212646,-0.046875,0.953125,0.359375
187,0.845459,0.0048217773,0.5062866,-0.609375,0.8125,0.71875
188,0.8430176,0.002380371,0.51190186,-0.5625,0.796875,0.484375
189,0.8474121,-0.0020141602,0.5128784,-0.578125,0.578125,0.578125
190,0.8442383,0.010437012,0.5036011,-0.84375,1.171875,0.203125
191,0.8469238,0.008483887,0.510437,-0.9375,1.15625,0.703125
192,0.84350586,0.011413574,0.49798584,-0.8125,0.703125,0.5
193,0.8503418,0.011413574,0.508728,-0.609375,0.65625,-0.265625
194,0.84277344,0.01361084,0.51312256,-1.109375,-0.109375,-0.03125
195,0.84594727,0.015563965,0.49505615,-0.34375,0.25,-0.078125
196,0.83691406,0.0065307617,0.51239014,0.3125,1.53125,0.34375
197,0.85424805,-0.023742676,0.5060425,-1.4375,2.125,-0.75
198,0.8483887,0.0040893555,0.5309448,2.671875,-1.234375,-1.859375
199,0.8586426,-0.014465332,0.5192261,1.171875,-2.25,-3.15625
200,0.8483887,-0.004699707,0.5350952,3.671875,-0.09375,-2.625
201,0.84716797,-0.015686035,0.52337646,6.734375,1.984375,-3.140625
202,0.8535156,-0.025939941,0.52801514,4.15625,0.421875,-2.90625
203,0.84472656,-0.031066895,0.5241089,0.78125,2.875,-1.640625
204,0.84887695,-0.031799316,0.5153198,1.96875,1.578125,-1.984375
205,0.8261719,-0.012023926,0.49505615,0.1875,-1.34375,-1.234375
206,0.82788086,-0.020324707,0.47625732,1.1875,-1.359375,0.234375
207,0.82592773,-0.042053223,0.47625732,2.34375,0.0625,0.515625
208,0.82788086,-0.014953613,0.46502686,1.6875,0.5625,1.046875
209,0.8342285,-0.057678223,0.49822998,6.84375,2.484375,1.703125
210,0.8757324,-0.066711426,0.5414429,6.046875,-0.0625,0.640625
211,0.87475586,-0.03302002,0.52630615,0.28125,-2.671875,-0.65625
212,0.83447266,-0.04498291,0.52142334,2.484375,-1.515625,-0.015625
213,0.8293457,-0.039367676,0.51434326,3.59375,0.578125,0.25
214,0.83984375,-0.06060791,0.51898193,1.25,-0.59375,0.03125
215,0.8359375,-0.06109619,0.543396,2.46875,-0.328125,0.40625
216,0.8457031,-0.047912598,0.50115967,1.34375,0.75,0.265625
217,0.8317871,-0.066467285,0.52874756,-0.296875,0.75,0.546875
218,0.8269043,-0.062072754,0.52459717,0.28125,0.875,0.3125
219,0.8354492,-0.04864502,0.52386475,-0.1875,0.4375,0.578125
220,0.8256836,-0.07086182,0.5321655,0.0625,1.34375,0.984375
221,0.8449707,-0.061584473,0.50946045,-1.0625,2.484375,0.375
222,0.8522949,-0.054504395,0.5180054,-0.4375,0.828125,-0.09375
223,0.8547363,-0.055480957,0.51556396,-0.40625,-0.34375,-0.34375
224,0.83203125,-0.061584473,0.5211792,-0.265625,-0.5625,-0.390625
225,0.8305664,-0.055236816,0.52142334,-0.375,0.1875,0.390625
226,0.8334961,-0.059387207,0.52020264,-0.09375,0.4375,0.515625
227,0.8234863,-0.066223145,0.5363159,-0.65625,0.46875,0.53125
228,0.84936523,-0.042541504,0.5067749,-0.875,-0.21875,0.578125
229,0.83081055,-0.08258057,0.5272827,-1.1875,-0.46875,1.140625
230,0.8391113,-0.057678223,0.52557373,-1.984375,1.25,0.71875
231,0.84472656,-0.04449463,0.50994873,-1.15625,0.84375,0.109375
232,0.8569336,-0.04156494,0.52093506,-0.03125,-0.46875,-0.109375
233,0.83081055,-0.059631348,0.53289795,0.4375,-0.609375,0.265625
234,0.81591797,-0.058898926,0.52874756,-0.125,1.015625,0.984375
235,0.81225586,-0.058410645,0.5458374,-0.328125,1.359375,1.0625
236,0.84155273,-0.053527832,0.5236206,-1.4375,1.09375,0.796875
237,0.85009766,-0.05303955,0.5236206,-0.25,1.78125,0.703125
238,0.842041,-0.059143066,0.51776123,-1.75,0.140625,0.046875
239,0.83374023,-0.05303955,0.5204468,-1.25,0.9375,0.171875
240,0.8395996,-0.051330566,0.53778076,-0.84375,1.125,0.0625
241,0.8408203,-0.047424316,0.52630615,-1.375,0.53125,-0.546875
242,0.8234863,-0.04547119,0.5165405,-0.828125,0.34375,-0.125
243,0.8322754,-0.043762207,0.5150757,-0.484375,1.71875,1.0
244,0.8186035,-0.06451416,0.5307007,-0.46875,1.734375,1.84375
245,0.8300781,-0.07940674,0.53240967,-1.84375,2.046875,2.078125
246,0.83740234,-0.047424316,0.5145874,-0.921875,2.65625,1.453125
247,0.85253906,-0.046203613,0.49505615,-1.171875,1.46875,0.453125
248,0.8310547,-0.044006348,0.5289917,-1.46875,2.59375,0.84375
249,0.85180664,-0.043273926,0.49676514,-2.953125,4.25,0.578125
250,0.8249512,-0.027893066,0.52923584,-3.453125,0.109375,-0.078125
251,0.8496094,-0.03668213,0.5380249,-1.875,-0.671875,0.40625
252,0.8486328,-0.039367676,0.52337646,-0.796875,-0.078125,0.171875
253,0.8383789,-0.057434082,0.5075073,-1.078125,1.953125,0.671875
254,0.8183594,-0.03668213,0.5223999,-2.0,0.953125,0.859375
255,0.8544922,-0.023254395,0.51776123,-1.890625,0.625,0.21875
256,0.8457031,-0.022033691,0.5018921,-2.171875,-0.234375,0.046875
257,0.8354492,-0.039367676,0.5031128,-1.0625,-2.453125,0.5
258,0.8491211,-0.04156494,0.50042725,-0.828125,-2.453125,0.40625
259,0.8339844,-0.043518066,0.53778076,1.03125,-2.71875,0.171875
260,0.8366699,-0.04547119,0.5060425,-0.984375,-1.875,0.21875
261,0.83251953,-0.038635254,0.5297241,-1.359375,-0.53125,0.46875
262,0.83740234,-0.043273926,0.52801514,-0.796875,0.8125,0.34375
263,0.8359375,-0.035949707,0.5285034,-1.015625,-0.53125,-0.078125
264,0.8288574,-0.031311035,0.5285034,-0.484375,-0.6875,-0.015625
265,0.83251953,-0.046936035,0.5319214,-0.171875,0.0,0.15625
266,0.8322754,-0.041809082,0.53338623,1.140625,-0.328125,0.421875
267,0.81640625,-0.039855957,0.5387573,-0.296875,-0.03125,0.6875
268,0.81884766,-0.03717041,0.5477905,-0.4375,0.546875,0.875
269,0.81591797,-0.045959473,0.5453491,-0.59375,1.96875,1.03125
270,0.826416,-0.033996582,0.53582764,-1.09375,1.609375,0.640625
271,0.83691406,-0.034240723,0.5512085,-0.6875,1.109375,0.53125
272,0.83569336,-0.019348145,0.5307007,-0.953125,0.328125,0.203125
273,0.8312988,-0.036193848,0.53240967,-0.796875,0.578125,0.265625
274,0.8312988,-0.035949707,0.5392456,-1.0,-0.328125,0.015625
275,0.8312988,-0.027404785,0.54486084,-0.765625,-0.375,0.15625
276,0.8186035,-0.031066895,0.54486084,-0.421875,0.5,0.453125
277,0.82666016,-0.031799316,0.5438843,-0.375,0.96875,0.453125
278,0.82470703,-0.03253174,0.5272827,-0.546875,1.359375,0.59375
279,0.8269043,-0.03765869,0.5487671,-0.734375,1.5625,1.03125
280,0.83081055,-0.026916504,0.53289795,-0.671875,1.796875,0.6875
281,0.8317871,-0.02960205,0.52801514,-0.9375,1.09375,0.390625
282,0.8334961,-0.032043457,0.5375366,-1.234375,1.5625,0.671875
283,0.83374023,-0.03692627,0.51971436,-1.3125,1.90625,0.171875
284,0.8342285,-0.024963379,0.5477905,-0.609375,2.0625,0.625
285,0.83691406,-0.023254395,0.524353,-1.765625,1.5,0.265625
286,0.8339844,-0.03692627,0.54071045,-1.546875,1.375,0.46875
287,0.83618164,-0.03277588,0.5414429,-0.4375,2.078125,0.3125
288,0.83032227,-0.026672363,0.5409546,-1.390625,1.03125,0.140625
289,0.83618164,-0.024230957,0.527771,-0.484375,1.875,0.234375
290,0.8288574,-0.028625488,0.5216675,-0.34375,1.671875,0.265625
291,0.8347168,-0.032043457,0.5060425,-0.46875,1.8125,0.609375
292,0.84033203,-0.025939941,0.52020264,-0.84375,1.46875,0.6875
293,0.8352051,-0.034484863,0.5297241,-0.9375,0.703125,0.828125
294,0.8154297,-0.03326416,0.5336304,-1.0,1.0625,0.65625
295,0.8408203,-0.028869629,0.52142334,-0.984375,2.203125,0.78125
296,0.8444824,-0.02960205,0.527771,-0.96875,1.890625,0.625
297,0.83862305,-0.01739502,0.52630615,-0.703125,0.59375,0.046875
298,0.83447266,-0.028869629,0.5223999,-0.59375,0.828125,0.1875
299,0.8312988,-0.022521973,0.5223999,-0.546875,1.515625,0.640625
300,0.83496094,-0.019104004,0.51849365,-0.125,1.25,0.609375
301,0.83618164,-0.020568848,0.5182495,-0.4375,0.75,0.34375
302,0.8405762,-0.026428223,0.52630615,-0.984375,1.4375,0.25
303,0.8342285,-0.018859863,0.52948,-0.671875,1.046875,0.4375
304,0.8405762,-0.022521973,0.5187378,-1.0625,0.6875,0.3125
305,0.8388672,-0.026672363,0.5204468,-0.546875,1.109375,0.46875
306,0.83569336,-0.012512207,0.52948,-0.640625,1.4375,0.65625
307,0.84033203,-0.013244629,0.52386475,-0.890625,1.3125,0.53125
308,0.8395996,-0.020812988,0.5223999,-0.828125,0.921875,0.21875
309,0.842041,-0.022521973,0.51361084,-1.140625,0.765625,-0.015625
310,0.84594727,-0.0095825195,0.494812,-1.0,1.453125,-0.03125
311,0.8334961,-0.023498535,0.5309448,0.078125,1.25,0.375
312,0.85546875,-0.026916504,0.5192261,-0.859375,0.8125,-0.09375
313,0.8244629,-0.035949707,0.53045654,-0.84375,0.1875,-0.796875
314,0.8425293,-0.027160645,0.5228882,0.140625,0.375,-0.828125
315,0.8359375,-0.022277832,0.51849365,-0.140625,-0.09375,-0.953125
316,0.8618164,-0.0413208,0.5355835,2.875,0.5625,-1.234375
317,0.8339844,-0.034729004,0.5270386,1.265625,-1.484375,-2.796875
318,0.8347168,-0.047180176,0.52337646,1.984375,-0.78125,-2.34375
319,0.826416,-0.035705566,0.53045654,1.078125,0.546875,-1.9375
320,0.8461914,-0.053527832,0.55804443,0.609375,2.28125,-1.84375
321,0.82373047,-0.04449463,0.5228882,0.359375,2.40625,-1.875
322,0.8251953,-0.055725098,0.51898193,2.0,2.3125,-1.4375
323,0.85058594,-0.058654785,0.52557373,2.3125,2.3125,-0.03125
324,0.8232422,-0.042053223,0.49163818,-0.03125,0.109375,-0.09375
325,0.8132324,-0.035705566,0.48675537,-0.34375,1.1875,0.71875
326,0.83325195,-0.022033691,0.4784546,2.9375,3.765625,2.34375
327,0.82177734,-0.062805176,0.5092163,7.453125,4.515625,2.25
328,0.8786621,-0.07672119,0.5241089,8.359375,3.6875,1.375
329,0.87231445,-0.07330322,0.5236206,3.234375,1.890625,0.015625
330,0.8413086,-0.06500244,0.49676514,2.296875,1.296875,0.078125
331,0.8251953,-0.061340332,0.49456787,2.25,2.71875,1.234375
332,0.8520508,-0.07720947,0.49554443,2.171875,2.03125,0.96875
333,0.8540039,-0.08087158,0.50531006,1.09375,-0.5625,-0.09375
334,0.8366699,-0.070129395,0.5062866,0.515625,-2.1875,-0.15625
335,0.8442383,-0.06768799,0.47772217,-0.90625,0.296875,0.25
336,0.83447266,-0.08721924,0.52459717,-0.609375,0.765625,0.578125
337,0.84375,-0.073791504,0.50213623,0.75,1.453125,0.546875
338,0.8498535,-0.06451416,0.4928589,0.359375,0.765625,0.46875
339,0.8474121,-0.06964111,0.49310303,0.15625,0.875,0.609375
340,0.8444824,-0.074279785,0.496521,-0.296875,1.109375,0.296875
341,0.8474121,-0.070373535,0.5014038,-0.25,0.015625,0.046875
342,0.8400879,-0.07208252,0.4977417,-0.84375,0.8125,0.390625
343,0.84228516,-0.077697754,0.4989624,-1.5625,0.3125,0.453125
344,0.8510742,-0.08673096,0.50946045,-0.53125,-0.84375,0.25
345,0.84936523,-0.07232666,0.50457764,-1.109375,-1.296875,-0.328125
346,0.8388672,-0.06915283,0.52215576,-0.546875,-1.1875,0.046875
347,0.83862305,-0.074279785,0.4940796,-1.46875,-0.234375,0.0625
348,0.85009766,-0.070373535,0.5114136,-0.828125,0.328125,0.25
349,0.8510742,-0.08087158,0.51483154,-0.3125,0.53125,0.515625
350,0.83496094,-0.06939697,0.5158081,-1.359375,-0.203125,0.140625
351,0.8317871,-0.06939697,0.50531006,-1.515625,0.515625,0.65625
352,0.84228516,-0.07696533,0.5223999,-0.453125,1.90625,1.109375
353,0.84594727,-0.078186035,0.5270386,-0.390625,1.609375,1.03125
354,0.842041,-0.08135986,0.5211792,0.03125,0.65625,0.703125
355,0.8354492,-0.06793213,0.49847412,-1.046875,0.390625,-0.0625
356,0.85913086,-0.0647583,0.50775146,-0.28125,1.046875,0.03125
357,0.8413086,-0.057678223,0.4989624,-1.328125,0.015625,-0.109375
358,0.8388672,-0.074523926,0.51605225,-0.453125,0.65625,0.421875
359,0.8442383,-0.066711426,0.5158081,-0.734375,0.34375,0.265625
360,0.8359375,-0.06549072,0.52630615,-1.09375,-0.140625,0.15625
361,0.84033203,-0.06890869,0.52264404,-0.59375,-0.0625,0.3125
362,0.83374023,-0.06890869,0.50701904,-0.375,0.359375,0.28125
363,0.8256836,-0.07989502,0.51727295,-0.59375,0.6875,0.5
364,0.8359375,-0.06524658,0.5079956,-0.890625,0.84375,0.484375
365,0.8317871,-0.07159424,0.5206909,-0.984375,-0.171875,0.203125
366,0.8400879,-0.070373535,0.52020264,-0.640625,0.046875,0.328125
367,0.83447266,-0.06744385,0.51678467,-1.03125,-0.359375,0.234375
368,0.8417969,-0.061584473,0.5175171,-0.859375,-0.1875,0.09375
369,0.8408203,-0.06378174,0.51849365,-0.765625,0.328125,0.125
370,0.83813477,-0.07208252,0.52337646,-0.640625,0.078125,0.09375
371,0.8408203,-0.07476807,0.5253296,-1.265625,-0.21875,0.359375
372,0.83569336,-0.06842041,0.5285034,-1.03125,0.140625,0.078125
373,0.8293457,-0.059387207,0.51556396,-0.796875,0.484375,0.234375
374,0.84155273,-0.062561035,0.5248413,-0.203125,0.71875,0.4375
375,0.82714844,-0.07183838,0.5248413,-0.6875,0.234375,0.390625
376,0.8339844,-0.06744385,0.52459717,-0.53125,-0.046875,0.140625
377,0.82958984,-0.07867432,0.53460693,-0.875,-0.90625,0.4375
378,0.84350586,-0.070617676,0.524353,-0.921875,0.078125,0.21875
379,0.8334961,-0.08843994,0.51727295,-2.5,-0.84375,-0.46875
380,0.8312988,-0.06329346,0.5348511,-0.90625,0.71875,0.03125
381,0.828125,-0.06842041,0.53900146,-1.140625,-0.046875,-0.25
382,0.8383789,-0.06549072,0.5314331,-0.734375,0.625,-0.09375
383,0.82128906,-0.0647583,0.5258179,-0.578125,0.546875,0.234375
384,0.8273926,-0.07208252,0.5258179,-0.203125,1.1875,0.640625
385,0.83374023,-0.06793213,0.52386475,0.03125,1.015625,0.484375
386,0.83251953,-0.07281494,0.527771,-1.046875,0.640625,0.625
387,0.8310547,-0.066223145,0.54071045,-0.78125,0.484375,0.46875
388,0.8293457,-0.06524658,0.52801514,-1.375,0.171875,0.28125
389,0.8334961,-0.06768799,0.52996826,-1.125,0.0625,0.203125
390,0.8310547,-0.06378174,0.5363159,-0.890625,0.078125,0.21875
391,0.8322754,-0.06329346,0.5302124,-0.625,0.625,0.46875
392,0.8327637,-0.06500244,0.5387573,-0.625,0.5,0.1875
393,0.8330078,-0.06036377,0.5368042,-0.765625,0.65625,0.71875
394,0.83203125,-0.06524658,0.53948975,-1.515625,0.96875,0.515625
395,0.8312988,-0.059631348,0.5314331,-1.578125,0.78125,0.25
396,0.83374023,-0.066223145,0.5307007,-1.90625,0.734375,0.359375
397,0.82958984,-0.053771973,0.5314331,-1.828125,0.703125,0.5
398,0.82666016,-0.05230713,0.53582764,-1.234375,0.71875,0.71875
399,0.8251953,-0.0256958,0.50457764,-1.5625,1.546875,2.0
400,0.82470703,-0.0881958,0.571228,-1.078125,0.3125,2.328125
401,0.81274414,-0.06109619,0.5194702,-2.578125,2.734375,2.484375
402,0.8249512,-0.047180176,0.543396,-1.265625,0.765625,1.3125
403,0.8564453,-0.030822754,0.5182495,-1.296875,1.5,0.796875
404,0.8515625,-0.045715332,0.5429077,-0.453125,1.234375,-0.125
405,0.8371582,-0.051086426,0.5231323,-0.6875,1.390625,-0.53125
406,0.8364258,-0.053527832,0.5331421,-1.640625,0.578125,-0.796875
407,0.82543945,-0.047424316,0.5309448,-1.875,-0.078125,-0.828125
408,0.81640625,-0.051330566,0.53338623,-1.796875,0.953125,-0.109375
409,0.8269043,-0.050109863,0.5372925,-1.03125,1.109375,0.34375
410,0.82470703,-0.039123535,0.5355835,-0.984375,1.03125,0.40625
411,0.8288574,-0.04473877,0.53582764,-0.890625,0.78125,0.515625
412,0.8249512,-0.05255127,0.5175171,-1.40625,0.71875,0.578125
413,0.8486328,-0.06427002,0.5368042,-1.75,2.609375,1.484375
414,0.8347168,-0.03643799,0.5350952,-1.125,3.421875,0.984375
415,0.8391113,-0.04473877,0.52264404,-1.625,1.75,0.28125
416,0.8334961,-0.04107666,0.51190186,-1.515625,1.234375,0.5
417,0.8359375,-0.043029785,0.512146,-2.234375,2.0,0.90625
418,0.8811035,-0.03717041,0.49945068,-7.75,6.4375,1.09375
419,0.8408203,-0.038146973,0.5297241,-7.078125,1.6875,-1.875
420,0.8173828,-0.027160645,0.52093506,-6.015625,-1.171875,-1.515625
421,0.8408203,-0.023742676,0.52996826,-4.4375,0.1875,-0.015625
422,0.8208008,-0.027160645,0.526062,-3.046875,-0.8125,0.0625
423,0.8183594,-0.026672363,0.52996826,-1.90625,-0.46875,0.96875
424,0.8395996,-0.024475098,0.5236206,-1.6875,0.65625,1.40625
425,0.83251953,-0.024475098,0.51678467,-1.546875,0.578125,0.828125
426,0.8388672,-0.019104004,0.5307007,-1.421875,0.765625,0.984375
427,0.83618164,-0.014953613,0.52679443,-0.984375,0.625,0.6875
428,0.83691406,-0.020812988,0.5282593,-1.0,0.25,0.40625
429,0.84350586,-0.019592285,0.5272827,-0.78125,0.921875,0.34375
430,0.83813477,-0.014709473,0.5162964,-0.9375,0.546875,0.546875
431,0.8317871,-0.014953613,0.51605225,-0.375,0.5625,0.703125
432,0.8347168,-0.016418457,0.53118896,0.03125,0.78125,1.046875
433,0.83081055,-0.02520752,0.5265503,-0.671875,1.578125,0.90625
434,0.83862305,-0.014465332,0.5392456,-0.5625,2.46875,0.609375
435,0.8466797,-0.009338379,0.51483154,-0.203125,2.171875,0.734375
436,0.84033203,-0.01739502,0.52386475,-0.375,1.265625,0.625
437,0.8330078,-0.018371582,0.52142334,-0.296875,0.953125,0.4375
438,0.82958984,-0.0134887695,0.52459717,-0.703125,0.9375,0.390625
439,0.8457031,-0.016418457,0.51068115,0.046875,0.59375,0.171875
440,0.8430176,-0.0134887695,0.524353,0.203125,0.859375,0.484375
441,0.8378906,-0.0068969727,0.5253296,-0.71875,0.1875,0.328125
442,0.8330078,-0.016906738,0.52801514,-0.28125,0.46875,0.703125
443,0.8388672,-0.007385254,0.527771,-0.453125,0.703125,0.34375
444,0.8371582,-0.0076293945,0.5187378,-0.15625,0.453125,0.359375
445,0.8378906,-0.020812988,0.5162964,-0.390625,0.390625,0.4375
446,0.8322754,-0.020080566,0.5282593,-0.484375,1.453125,0.5625
447,0.8391113,-0.012023926,0.51971436,-0.390625,1.6875,0.515625
448,0.8376465,-0.007385254,0.51727295,-0.203125,1.484375,0.421875
449,0.8371582,-0.01763916,0.52142334,-0.9375,1.375,0.515625
450,0.8359375,-0.013000488,0.5170288,-2.046875,1.046875,-0.1875
451,0.8449707,-0.018371582,0.5258179,-1.796875,0.671875,-0.546875
452,0.8449707,-0.01373291,0.5241089,-0.40625,-1.53125,-1.09375
453,0.83251953,-0.0095825195,0.5331421,-0.1875,0.90625,0.171875
454,0.83618164,-0.03741455,0.54071045,-1.046875,1.890625,0.28125
455,0.84765625,-0.028625488,0.541687,0.6875,0.375,-0.9375
456,0.84399414,-0.023498535,0.5368042,0.21875,-3.859375,-2.375
457,0.8364258,-0.014221191,0.52948,-0.140625,-2.328125,-2.40625
458,0.82910156,-0.03277588,0.54364014,1.46875,0.09375,-1.734375
459,0.8251953,-0.039367676,0.5487671,0.0625,1.828125,-1.296875
460,0.83374023,-0.019104004,0.57489014,1.09375,4.1875,0.296875
461,0.83203125,-0.034973145,0.5048218,-2.125,2.71875,0.515625
462,0.8234863,-0.042541504,0.53167725,-2.09375,1.3125,-0.296875
463,0.8334961,-0.00079345703,0.48358154,1.625,1.96875,-0.234375
464,0.83496094,-0.014953613,0.49700928,0.8125,-0.4375,-0.171875
465,0.8269043,-0.008361816,0.47576904,1.109375,0.328125,0.484375
466,0.82373047,-0.046936035,0.5023804,5.84375,3.859375,1.0
467,0.85717773,-0.062561035,0.5621948,8.453125,2.8125,0.640625
468,0.8562012,-0.043273926,0.5380249,0.390625,-2.734375,-0.75
469,0.8305664,-0.04547119,0.5133667,1.0,-0.359375,-0.109375
470,0.8095703,-0.024475098,0.52142334,3.859375,2.359375,0.03125
471,0.84350586,-0.07550049,0.52215576,2.0625,1.421875,-0.3125
472,0.8535156,-0.05255127,0.51776123,1.125,1.078125,-0.515625
473,0.8364258,-0.057434082,0.5206909,1.609375,0.546875,-0.28125
474,0.8371582,-0.070373535,0.5387573,1.28125,1.1875,0.15625
475,0.83081055,-0.062316895,0.5192261,0.25,0.59375,0.15625
476,0.8334961,-0.053771973,0.52093506,0.234375,-0.015625,0.40625
477,0.8371582,-0.05303955,0.52679443,0.5625,-0.15625,0.453125
478,0.84033203,-0.059387207,0.52093506,0.421875,0.125,-0.046875
479,0.82592773,-0.06451416,0.51312256,0.078125,-0.15625,0.0
480,0.84399414,-0.06793213,0.52948,0.71875,0.109375,-0.046875
481,0.8342285,-0.062805176,0.5133667,0.34375,0.34375,-0.359375
482,0.83984375,-0.062805176,0.52923584,1.234375,0.515625,-0.140625
483,0.8249512,-0.053527832,0.5026245,-0.078125,0.09375,-0.34375
484,0.8312988,-0.06695557,0.5331421,-0.65625,0.734375,0.359375
485,0.8354492,-0.07525635,0.5248413,-0.65625,0.328125,0.296875
486,0.8330078,-0.06109619,0.5228882,-0.6875,0.8125,0.625
487,0.83496094,-0.06939697,0.5360718,0.78125,0.9375,0.546875
488,0.83813477,-0.06549072,0.5133667,-0.140625,1.328125,0.234375
489,0.83154297,-0.07159424,0.52508545,0.140625,0.875,0.296875
490,0.8425293,-0.06378174,0.5241089,-0.46875,1.140625,0.578125
491,0.8339844,-0.053527832,0.5109253,-0.375,0.53125,0.234375
492,0.8327637,-0.06695557,0.52557373,-0.078125,0.953125,0.46875
493,0.83325195,-0.06573486,0.53338623,-0.109375,0.765625,0.625
494,0.83935547,-0.066711426,0.5223999,-0.03125,0.515625,0.4375
495,0.83081055,-0.06744385,0.5241089,0.125,0.921875,0.40625
496,0.8395996,-0.070129395,0.5307007,0.265625,1.15625,0.4375
497,0.8286133,-0.066711426,0.51361084,-0.5625,0.484375,-0.046875
498,0.83618164,-0.062316895,0.52264404,-0.046875,0.109375,-0.09375
499,0.8371582,-0.066467285,0.52093506,-0.03125,0.90625,0.265625
500,0.83447266,-0.07183838,0.52459717,0.078125,0.640625,0.359375
501,0.8312988,-0.0725708,0.5307007,-0.6875,0.640625,0.578125
502,0.82543945,-0.07086182,0.5475464,-0.109375,0.625,0.71875
503,0.83813477,-0.061584473,0.5170288,-0.0625,1.265625,0.578125
504,0.8276367,-0.0713501,0.5126343,-1.140625,0.21875,0.125
505,0.8305664,-0.06817627,0.5194702,-0.390625,1.828125,0.671875
506,0.8413086,-0.07159424,0.5360718,-0.328125,0.734375,0.828125
507,0.8376465,-0.066223145,0.5314331,-0.625,0.40625,0.046875
508,0.8276367,-0.07281494,0.5248413,-0.5625,1.0625,0.5
509,0.8322754,-0.06695557,0.51898193,-0.515625,1.796875,0.65625
510,0.8366699,-0.06573486,0.5272827,0.015625,1.296875,0.734375
511,0.8400879,-0.06915283,0.51434326,-1.171875,0.078125,0.25
512,0.8354492,-0.0635376,0.5282593,-0.859375,0.953125,0.8125
513,0.8371582,-0.06719971,0.524353,-0.515625,0.953125,0.625
514,0.83496094,-0.06744385,0.5285034,-0.78125,0.71875,0.203125
515,0.8457031,-0.06939697,0.5258179,0.421875,0.4375,0.203125
516,0.8366699,-0.061340332,0.5170288,-0.5,0.234375,0.015625
517,0.8293457,-0.06304932,0.52337646,-0.3125,0.421875,0.359375
518,0.8312988,-0.06524658,0.527771,-0.453125,0.875,0.46875
519,0.8300781,-0.061828613,0.51971436,-1.0625,0.28125,0.390625
520,0.8400879,-0.06744385,0.5338745,-0.671875,0.65625,0.765625
521,0.8444824,-0.06402588,0.5228882,-0.328125,0.9375,0.421875
522,0.8395996,-0.06060791,0.52337646,-0.5,0.828125,0.359375
523,0.8339844,-0.06500244,0.51849365,-0.15625,0.4375,0.375
524,0.83691406,-0.06695557,0.51971436,-0.90625,0.734375,0.59375
525,0.8322754,-0.06866455,0.5343628,-0.140625,0.609375,0.765625
526,0.83251953,-0.047668457,0.5192261,-0.78125,0.3125,0.390625
527,0.8342285,-0.062316895,0.5216675,-1.328125,0.09375,0.125
528,0.8408203,-0.07183838,0.52337646,-0.234375,1.484375,0.453125
529,0.8354492,-0.055480957,0.53118896,-0.5,0.578125,0.3125
530,0.83569336,-0.055725098,0.52923584,-0.53125,0.40625,0.390625
531,0.82714844,-0.061828613,0.5150757,-0.375,1.34375,0.546875
532,0.8327637,-0.066467285,0.5336304,0.015625,0.875,0.46875
533,0.8339844,-0.058654785,0.5270386,-0.171875,1.140625,0.625
534,0.8300781,-0.06451416,0.52337646,-0.96875,0.265625,0.3125
535,0.84643555,-0.06890869,0.5289917,-0.125,1.171875,0.5
536,0.8327637,-0.059631348,0.51483154,-0.875,0.1875,0.375
537,0.83154297,-0.06329346,0.527771,-0.796875,0.34375,0.265625
538,0.8330078,-0.06060791,0.51898193,-1.46875,0.625,0.5625
539,0.8378906,-0.066711426,0.52874756,-1.421875,0.453125,0.4375
540,0.8288574,-0.059631348,0.51849365,-2.109375,1.140625,0.65625
541,0.8244629,-0.04864502,0.5216675,-2.15625,0.328125,0.1875
542,0.83154297,-0.058166504,0.52801514,-2.078125,0.390625,0.46875
543,0.8276367,-0.058166504,0.5265503,-1.4375,0.40625,0.34375
544,0.8322754,-0.058898926,0.53045654,-1.0625,0.09375,0.171875
545,0.83447266,-0.057434082,0.52996826,-0.6875,0.34375,0.21875
546,0.83984375,-0.04815674,0.5272827,-1.09375,1.28125,0.328125
547,0.8261719,-0.055480957,0.52996826,-0.78125,0.609375,0.421875
548,0.84277344,-0.05596924,0.5338745,-1.171875,1.078125,0.359375
549,0.83203125,-0.045959473,0.5258179,-1.03125,0.484375,0.234375
550,0.8322754,-0.043518066,0.52264404,-0.609375,0.546875,0.234375
551,0.8425293,-0.062072754,0.53118896,-0.71875,1.125,0.65625
552,0.8391113,-0.062072754,0.5343628,-0.890625,0.515625,0.5
553,0.8339844,-0.054260254,0.52948,-0.734375,0.859375,0.546875
554,0.8310547,-0.040100098,0.5204468,-0.953125,0.65625,0.4375
555,0.83325195,-0.057434082,0.53289795,-0.890625,0.96875,0.46875
556,0.83203125,-0.06060791,0.5101929,-2.0,0.78125,0.390625
557,0.8364258,-0.050354004,0.5285034,-1.015625,0.90625,0.71875
558,0.8408203,-0.047180176,0.526062,-1.84375,0.21875,0.375
559,0.8322754,-0.04840088,0.5363159,-0.515625,1.515625,0.296875
560,0.8366699,-0.04522705,0.5253296,-0.515625,0.9375,0.546875
561,0.8342285,-0.04864502,0.5265503,-0.84375,0.703125,0.40625
562,0.8312988,-0.047424316,0.5302124,-0.46875,1.0,0.5625
563,0.83813477,-0.0569458,0.5282593,-0.703125,1.078125,0.40625
564,0.8366699,-0.046936035,0.5199585,-0.734375,0.953125,0.328125
565,0.8312988,-0.04547119,0.52386475,-1.203125,0.71875,0.21875
566,0.82373047,-0.047424316,0.5302124,-1.265625,0.734375,0.59375
567,0.8273926,-0.04815674,0.5307007,-0.890625,0.875,0.9375
568,0.8317871,-0.039123535,0.53778076,-1.359375,0.515625,0.71875
569,0.8491211,-0.03643799,0.52996826,-0.796875,0.4375,0.390625
570,0.8334961,-0.045959473,0.53460693,-0.921875,0.96875,0.546875
571,0.8347168,-0.042541504,0.5307007,-0.78125,1.015625,0.484375
572,0.82836914,-0.040100098,0.52752686,-1.328125,0.03125,0.515625
573,0.83447266,-0.04449463,0.5302124,-1.125,1.375,0.5625
574,0.8383789,-0.035949707,0.5180054,-1.03125,1.234375,0.421875
575,0.8413086,-0.04425049,0.52142334,-1.015625,1.0,0.421875
576,0.8342285,-0.041809082,0.53338623,-1.265625,0.875,0.625
577,0.82910156,-0.038635254,0.5326538,-1.71875,1.375,0.59375
578,0.8293457,-0.030090332,0.5265503,-1.515625,0.828125,0.421875
579,0.8310547,-0.031799316,0.5265503,-1.390625,0.234375,0.421875
580,0.8347168,-0.039611816,0.5265503,-1.21875,0.53125,0.609375
581,0.83032227,-0.030334473,0.5285034,-1.84375,0.90625,0.765625
582,0.8413086,-0.043762207,0.5223999,-1.5,1.46875,0.65625
583,0.8371582,-0.034973145,0.52801514,-1.25,1.328125,0.46875
584,0.8400879,-0.031799316,0.5258179,-1.453125,1.375,0.375
585,0.8347168,-0.033996582,0.5482788,-1.03125,2.1875,0.765625
586,0.82958984,-0.023010254,0.50775146,-2.25,1.953125,0.296875
587,0.8352051,-0.03692627,0.5128784,-2.03125,1.875,0.28125
588,0.83862305,-0.033996582,0.5150757,-1.234375,2.234375,0.484375
589,0.8312988,-0.024719238,0.5140991,-1.765625,1.109375,0.359375
590,0.83935547,-0.0256958,0.51678467,-1.265625,1.421875,0.484375
591,0.8339844,-0.029846191,0.5084839,-1.390625,1.53125,0.578125
592,0.83813477,-0.022521973,0.5223999,-0.671875,1.296875,0.453125
593,0.8378906,-0.02154541,0.5133667,-0.921875,1.03125,0.28125
594,0.83813477,-0.024475098,0.5182495,-0.921875,0.0,0.359375
595,0.8395996,-0.019592285,0.5231323,-0.21875,0.3125,0.375
596,0.83691406,-0.020324707,0.51776123,-0.46875,-0.296875,0.3125
597,0.8388672,-0.016418457,0.51678467,-0.375,0.21875,0.4375
598,0.8466797,-0.026184082,0.50823975,-0.640625,0.5,0.625
599,0.84521484,-0.019836426,0.51971436,-0.375,0.859375,0.40625
600,0.83740234,-0.022766113,0.51727295,-0.3125,0.484375,0.125
601,0.8366699,-0.023986816,0.51678467,-0.703125,0.59375,0.453125
602,0.8334961,-0.01739502,0.526062,-0.234375,0.640625,0.171875
603,0.84106445,-0.028381348,0.51483154,-0.5,0.90625,0.390625
604,0.8388672,-0.020080566,0.52679443,-0.328125,1.078125,0.40625
605,0.8405762,-0.024475098,0.5116577,-0.765625,0.6875,0.375
606,0.83984375,-0.016906738,0.5248413,-0.609375,1.1875,0.515625
607,0.8305664,-0.022277832,0.5145874,-0.109375,1.390625,0.625
608,0.8522949,-0.020812988,0.52215576,-0.609375,1.609375,0.65625
609,0.83935547,-0.028625488,0.513855,-0.4375,1.203125,0.171875
610,0.8510742,-0.019836426,0.5036011,-1.140625,1.1875,0.171875
611,0.8413086,-0.016662598,0.527771,-0.28125,0.609375,0.296875
612,0.84106445,-0.018859863,0.50946045,-1.3125,0.828125,0.40625
613,0.8347168,-0.02935791,0.5187378,-1.21875,1.21875,0.609375
614,0.84277344,-0.03253174,0.5187378,-0.671875,1.578125,0.5
615,0.8432617,-0.019348145,0.52337646,-0.796875,1.328125,0.625
616,0.8486328,-0.013244629,0.5097046,-0.515625,1.5,0.578125
617,0.8395996,-0.022277832,0.5114136,-0.46875,1.296875,0.4375
618,0.84277344,-0.018859863,0.50897217,-0.1875,1.375,0.421875
619,0.84155273,-0.014953613,0.50701904,-0.65625,1.15625,0.53125
620,0.83984375,-0.024230957,0.5109253,-1.328125,1.359375,0.640625
621,0.84228516,-0.022277832,0.513855,-0.921875,1.421875,0.484375
622,0.84643555,-0.024475098,0.51116943,-1.203125,0.703125,0.4375
623,0.8474121,-0.016418457,0.50823975,-0.640625,0.90625,0.453125
624,0.8413086,-0.027648926,0.52093506,-0.484375,1.1875,0.578125
625,0.8330078,-0.0029907227,0.51190186,-0.421875,0.375,0.4375
626,0.85791016,-0.018859863,0.512146,-0.234375,1.71875,0.640625
627,0.84375,-0.016174316,0.513855,-0.0625,1.3125,0.765625
628,0.8413086,-0.014465332,0.50897217,-0.546875,0.890625,0.71875
629,0.8469238,-0.023010254,0.5043335,-0.203125,1.921875,0.9375
630,0.84033203,-0.008117676,0.5128784,-0.34375,1.484375,0.546875
631,0.8508301,-0.02178955,0.5038452,-0.734375,0.9375,0.59375
632,0.84887695,-0.0115356445,0.50653076,-1.390625,0.1875,0.5625
633,0.83813477,-0.008605957,0.50579834,-1.0,0.125,0.515625
634,0.8430176,-0.010070801,0.51361084,-1.4375,0.5,0.734375
635,0.8491211,-0.010803223,0.5158081,-1.046875,1.046875,0.6875
636,0.8564453,-0.008117676,0.49871826,-1.125,1.609375,0.515625
637,0.8474121,-0.0012817383,0.50946045,-0.421875,1.328125,0.578125
638,0.84228516,-0.007873535,0.49920654,-1.53125,0.484375,0.015625
639,0.84033203,-0.012268066,0.50823975,-0.796875,1.390625,0.25
640,0.8417969,-0.010803223,0.49627686,-0.6875,0.90625,0.328125
641,0.8498535,-0.010070801,0.51116943,-0.484375,1.25,0.671875
642,0.85058594,-0.003479004,0.51556396,-0.1875,0.609375,0.234375
643,0.84643555,-0.007873535,0.4977417,-0.40625,0.59375,0.234375
644,0.84814453,-0.006164551,0.48797607,-0.765625,0.921875,0.3125
645,0.8522949,-0.014465332,0.49554443,-0.78125,1.40625,0.453125
646,0.8469238,-0.0064086914,0.5043335,-0.625,1.109375,0.546875
647,0.8496094,-0.00982666,0.512146,-1.03125,0.625,0.109375
648,0.8491211,-0.0095825195,0.49456787,-0.796875,1.03125,0.375
649,0.8508301,-0.014709473,0.50457764,-0.890625,1.421875,0.5
650,0.85131836,-0.0029907227,0.49261475,-1.609375,0.3125,0.40625
651,0.8483887,-0.019592285,0.5199585,-1.765625,0.15625,-0.09375
652,0.8371582,-0.0076293945,0.50286865,-2.25,0.625,-0.5625
653,0.8469238,-0.016418457,0.49798584,-1.78125,1.71875,-0.171875
654,0.8496094,-0.0005493164,0.50408936,-1.96875,1.53125,-0.171875
655,0.8544922,-0.008117676,0.49456787,-1.140625,1.8125,0.046875
656,0.84765625,-0.007385254,0.5060425,-0.9375,1.296875,0.5
657,0.8469238,-0.0005493164,0.5036011,-0.921875,0.828125,0.90625
658,0.8522949,-0.008117676,0.49383545,-0.140625,0.03125,1.0625
659,0.8483887,-0.004699707,0.5175171,-0.796875,-1.03125,1.0625
660,0.8413086,0.007751465,0.50408936,-0.6875,0.875,0.484375
661,0.8371582,-0.0022583008,0.51116943,-0.578125,0.65625,1.09375
662,0.8547363,0.0033569336,0.5014038,-1.671875,0.890625,0.484375
663,0.8562012,0.00091552734,0.49725342,-1.34375,0.921875,0.65625
664,0.842041,0.0021362305,0.4960327,-1.71875,1.078125,0.34375
665,0.85009766,-0.003967285,0.50286865,-1.546875,1.859375,0.078125
666,0.8547363,0.0014038086,0.47991943,-2.421875,0.328125,-0.359375
667,0.8486328,-0.007385254,0.48895264,-2.0,-0.671875,0.140625
668,0.84155273,0.007019043,0.52142334,-1.046875,-1.734375,0.40625
669,0.84399414,0.016784668,0.5158081,-1.5,-0.09375,0.328125
670,0.8503418,0.005065918,0.5116577,-0.828125,2.0625,0.453125
671,0.8395996,0.0018920898,0.5075073,-0.578125,1.53125,1.1875
672,0.8574219,0.00018310547,0.5006714,-1.140625,1.0625,0.96875
673,0.8496094,0.004333496,0.5062866,-0.375,1.21875,0.59375
674,0.845459,0.008728027,0.50286865,-0.5625,0.6875,0.96875
675,0.8474121,0.0067749023,0.50897217,-0.21875,0.734375,0.921875
676,0.8544922,0.011657715,0.50164795,-1.34375,0.96875,0.609375
677,0.84936523,0.013122559,0.50994873,-0.390625,1.21875,0.78125
678,0.8510742,0.008239746,0.5048218,0.015625,1.453125,0.53125
679,0.84375,0.0040893555,0.49749756,-0.375,0.8125,0.53125
680,0.8515625,0.0033569336,0.5009155,-0.875,1.953125,0.78125
681,0.8466797,0.0211792,0.50335693,-0.671875,1.734375,0.796875
682,0.8503418,0.010925293,0.5048218,0.09375,2.140625,0.796875
683,0.86035156,0.011413574,0.49554443,-0.0625,1.640625,0.671875
684,0.84521484,0.014343262,0.48284912,-0.984375,1.03125,0.140625
685,0.85424805,0.005554199,0.50286865,-0.234375,1.203125,0.53125
686,0.85302734,0.008483887,0.4940796,-1.375,1.25,0.203125
687,0.8535156,0.016052246,0.4882202,-0.796875,1.5625,1.203125
688,0.84521484,0.018005371,0.49578857,-0.28125,1.921875,0.421875
689,0.85913086,0.00970459,0.48529053,-0.734375,2.03125,0.359375
690,0.85595703,0.019714355,0.4899292,-0.421875,1.296875,0.625
691,0.8515625,0.01751709,0.49212646,-0.234375,1.125,0.796875
692,0.859375,0.003112793,0.4953003,-0.53125,1.671875,0.9375
693,0.8486328,0.008239746,0.49163818,-0.921875,1.90625,0.828125
694,0.85302734,0.034606934,0.47821045,-0.65625,0.8125,0.609375
695,0.8547363,0.014831543,0.4821167,0.09375,1.03125,0.484375
696,0.84716797,0.018493652,0.49066162,-0.21875,0.71875,0.484375
697,0.8522949,0.0038452148,0.4874878,-0.390625,1.15625,0.53125
698,0.8630371,0.015075684,0.49505615,-0.1875,1.1875,0.921875
699,0.8654785,0.016784668,0.47869873,-0.078125,0.953125,0.375
700,0.85791016,0.009460449,0.4862671,-0.171875,0.46875,0.375
701,0.85961914,0.010192871,0.48919678,-0.4375,0.890625,0.0
702,0.8405762,0.024841309,0.48260498,-0.34375,-0.171875,0.125
703,0.8625488,0.008483887,0.49163818,-0.03125,0.765625,0.265625
704,0.85546875,0.018493652,0.48480225,-0.421875,0.125,-0.046875
705,0.85058594,0.013122559,0.48431396,0.15625,-0.9375,-0.5
706,0.89038086,-0.031311035,0.5265503,-1.59375,-2.375,-1.671875
707,0.8334961,0.03387451,0.50531006,-0.375,-8.828125,-3.078125
708,0.83496094,-0.00030517578,0.52337646,0.65625,-5.859375,-2.15625
709,0.8510742,-0.0020141602,0.5414429,5.265625,-1.953125,-2.140625
710,0.8659668,-0.004699707,0.5314331,4.171875,2.609375,-1.03125
711,0.8352051,-0.0051879883,0.53948975,9.203125,8.03125,0.421875
712,0.85131836,-0.018615723,0.49554443,5.90625,5.875,-0.4375
713,0.8232422,-0.019592285,0.49822998,9.4375,7.953125,-0.703125
714,0.8474121,-0.010070801,0.4467163,2.78125,1.3125,0.21875
715,0.8376465,-0.008850098,0.4550171,1.640625,0.453125,0.4375
716,0.83374023,0.014587402,0.43328857,3.5,3.453125,1.40625
717,0.8354492,-0.05645752,0.5038452,9.078125,2.75,2.421875
718,0.89697266,-0.05987549,0.5128784,6.3125,-1.90625,0.5625
719,0.9016113,-0.039367676,0.50701904,-0.78125,-6.09375,-1.171875
720,0.83081055,-0.03302002,0.5014038,2.140625,-1.046875,0.234375
721,0.8354492,-0.04815674,0.4940796,3.265625,1.484375,0.515625
722,0.8618164,-0.045959473,0.48846436,0.859375,-0.140625,-0.125
723,0.85058594,-0.043029785,0.49212646,0.5625,-0.5625,0.046875
724,0.8479004,-0.04034424,0.494812,0.28125,-0.375,-0.140625
725,0.8522949,-0.057434082,0.49676514,-0.484375,-0.140625,-0.109375
726,0.8557129,-0.04473877,0.513855,-0.375,0.078125,0.25
727,0.8425293,-0.04864502,0.50164795,-1.125,1.609375,0.390625
728,0.85058594,-0.04425049,0.50701904,-0.375,3.0625,0.859375
729,0.8496094,-0.054016113,0.4772339,-0.390625,1.0625,0.203125
730,0.8430176,-0.038391113,0.4874878,-0.8125,0.171875,0.296875
731,0.8598633,-0.05230713,0.5140991,0.328125,0.203125,0.453125
732,0.8395996,-0.05645752,0.4940796,-1.28125,-0.984375,0.296875
733,0.8334961,-0.051818848,0.49822998,-0.34375,0.625,0.34375
734,0.85302734,-0.040100098,0.50994873,-0.078125,1.03125,0.671875
735,0.8544922,-0.045715332,0.5031128,-0.25,0.640625,0.21875
736,0.84106445,-0.042785645,0.50115967,0.046875,0.421875,0.484375
737,0.8503418,-0.042053223,0.49310303,-0.34375,0.09375,0.390625
738,0.84033203,-0.054992676,0.51849365,0.265625,0.578125,0.6875
739,0.84643555,-0.049865723,0.49969482,-0.28125,0.8125,0.390625
740,0.8483887,-0.05596924,0.4960327,-0.34375,1.140625,0.375
741,0.8496094,-0.054504395,0.5075073,0.125,0.9375,0.65625
742,0.8515625,-0.039123535,0.49945068,-0.421875,0.71875,0.34375
743,0.8474121,-0.030822754,0.4940796,-0.265625,0.5625,0.328125
744,0.83813477,-0.035949707,0.496521,0.015625,0.5625,0.5625
745,0.8449707,-0.05670166,0.49334717,-0.234375,0.171875,0.21875
746,0.8515625,-0.05303955,0.50335693,-0.625,0.765625,0.453125
747,0.8442383,-0.04449463,0.5084839,-0.65625,0.640625,0.359375
748,0.8503418,-0.057434082,0.4977417,-0.796875,1.0625,0.234375
749,0.8532715,-0.038635254,0.4923706,-0.484375,0.703125,0.421875
750,0.8354492,-0.043518066,0.5231323,0.234375,-0.109375,0.40625
751,0.8544922,-0.04058838,0.5026245,-0.546875,0.78125,0.28125
752,0.8432617,-0.053771973,0.49871826,-1.59375,0.0,0.28125
753,0.842041,-0.04864502,0.50946045,-0.0625,1.515625,0.546875
754,0.84814453,-0.046936035,0.5072632,-0.25,0.921875,0.3125
755,0.8547363,-0.049621582,0.5109253,-0.390625,0.953125,-0.046875
756,0.8483887,-0.046691895,0.50946045,-0.234375,1.328125,0.484375
757,0.8383789,-0.042297363,0.5145874,-0.421875,0.671875,0.234375
758,0.8461914,-0.0491333,0.5014038,-0.578125,0.3125,0.171875
759,0.8413086,-0.04498291,0.50408936,-1.34375,-0.03125,0.203125
760,0.8483887,-0.05255127,0.5109253,-0.203125,0.71875,0.0625
761,0.84521484,-0.04937744,0.49920654,-0.96875,-0.234375,0.3125
762,0.8562012,-0.054016113,0.50213623,-1.234375,1.015625,0.265625
763,0.83813477,-0.045715332,0.5116577,-0.84375,0.765625,0.21875
764,0.8547363,-0.05718994,0.5060425,-1.421875,-0.296875,-0.34375
