sample_no,accel_x,accel_y,accel_z,gyro_x,gyro_y,gyro_z
0,-0.10083008,-0.9512329,0.32562256,0.46875,-1.78125,0.328125
1,-0.0871582,-0.95806885,0.29608154,-0.71875,-1.09375,-0.28125
2,-0.08935547,-0.93927,0.36468506,2.296875,-4.328125,-0.1875
3,-0.08691406,-0.9746704,0.3397827,-0.859375,-0.59375,-0.1875
4,-0.10424805,-0.9397583,0.34051514,0.28125,-1.75,0.46875
5,-0.09033203,-0.95025635,0.3439331,0.40625,-1.4375,0.296875
6,-0.09838867,-0.93878174,0.3319702,0.71875,-1.5,1.15625
7,-0.0859375,-0.9451294,0.34075928,0.71875,-1.734375,1.296875
8,-0.08154297,-0.94610596,0.33441162,-0.078125,-1.53125,1.765625
9,-0.08984375,-0.958313,0.33563232,-1.203125,-1.03125,0.65625
10,-0.064941406,-0.95635986,0.32122803,0.40625,-2.46875,-0.0625
11,-0.10424805,-0.93951416,0.34124756,-0.625,-0.0625,0.984375
12,-0.083496094,-0.94415283,0.32244873,0.890625,-0.78125,0.515625
13,-0.09814453,-0.94244385,0.34075928,-1.125,-0.953125,1.953125
14,-0.072509766,-0.9456177,0.3078003,-1.03125,-0.109375,-0.703125
15,-0.07006836,-0.9578247,0.3414917,-0.0625,-1.265625,0.6875
16,-0.09423828,-0.95928955,0.33416748,0.625,-0.75,1.515625
17,-0.07495117,-0.9312134,0.32025146,0.015625,-1.125,0.8125
18,-0.10522461,-0.9780884,0.3300171,-0.328125,-2.296875,0.296875
19,-0.052001953,-0.9234009,0.32659912,-3.109375,0.6875,-1.46875
20,-0.1081543,-0.9661255,0.33709717,-1.296875,0.15625,0.859375
21,-0.10083008,-0.9483032,0.31781006,-0.40625,-1.53125,-0.578125
22,-0.092285156,-0.9578247,0.33587646,0.21875,-0.28125,-1.03125
23,-0.06298828,-0.9619751,0.32366943,-0.296875,1.0625,0.46875
24,-0.095703125,-0.94537354,0.31732178,-0.546875,1.28125,1.109375
25,-0.087402344,-0.9536743,0.32855225,0.578125,0.6875,0.78125
26,-0.0637207,-0.94903564,0.3361206,-0.234375,0.484375,1.9375
27,-0.0703125,-0.94073486,0.3366089,-1.15625,-2.0,0.9375
28,-0.084228516,-0.98809814,0.32269287,-0.71875,-0.828125,0.609375
29,-0.037597656,-0.9224243,0.33050537,0.9375,-1.734375,0.765625
30,-0.07763672,-0.9746704,0.3287964,-0.921875,-1.328125,2.0
31,-0.09301758,-0.9331665,0.32904053,-0.875,-0.578125,0.515625
32,-0.07128906,-0.9702759,0.33172607,-1.84375,0.734375,0.90625
33,-0.08886719,-0.9614868,0.32757568,-1.140625,1.046875,0.671875
34,-0.07299805,-0.942688,0.33099365,-0.171875,1.0,1.515625
35,-0.053222656,-0.9463501,0.34222412,1.015625,-0.890625,0.703125
36,-0.04663086,-0.96221924,0.34906006,-0.859375,0.15625,-0.28125
37,-0.07519531,-0.9421997,0.31341553,-0.78125,-2.859375,0.375
38,-0.048339844,-0.94317627,0.31097412,0.671875,-3.359375,-1.5
39,-0.05493164,-0.9458618,0.31170654,2.09375,-3.609375,-1.15625
40,-0.08544922,-0.95513916,0.3444214,2.03125,-2.359375,0.34375
41,-0.052246094,-0.9500122,0.29193115,-0.1875,-0.796875,1.53125
42,-0.1184082,-1.0005493,0.3156128,5.765625,-4.21875,2.921875
43,-0.06665039,-0.9312134,0.28753662,3.015625,-0.203125,2.234375
44,-0.07470703,-0.9639282,0.3131714,1.171875,1.640625,-0.1875
45,-0.068359375,-0.94537354,0.3151245,1.15625,-0.515625,-0.21875
46,-0.0949707,-0.9841919,0.34661865,1.0625,-1.703125,0.390625
47,-0.06713867,-0.9697876,0.31219482,-1.3125,-1.078125,-0.0625
48,-0.04638672,-0.96051025,0.3060913,-1.359375,-1.390625,-1.578125
49,-0.053710938,-0.93634033,0.31243896,-0.59375,0.34375,-1.171875
50,-0.08105469,-0.9639282,0.31585693,-0.578125,-2.015625,2.078125
51,-0.06689453,-0.9483032,0.31365967,-0.953125,0.140625,0.515625
52,-0.056640625,-0.9734497,0.3163452,0.96875,-0.984375,0.578125
53,-0.068603516,-0.94903564,0.30413818,-0.453125,0.703125,-1.109375
54,-0.076171875,-0.96954346,0.29315186,-0.390625,-0.046875,0.359375
55,-0.057861328,-0.96051025,0.3053589,0.328125,0.359375,-0.03125
56,-0.08251953,-0.9612427,0.31903076,0.6875,0.25,-0.328125
57,-0.087402344,-0.9649048,0.30828857,-0.4375,1.375,0.75
58,-0.041503906,-0.9644165,0.28045654,-2.109375,0.296875,1.0
59,-0.05810547,-0.94659424,0.29388428,-1.203125,0.65625,0.484375
60,-0.041992188,-0.96099854,0.29119873,-0.0625,-0.484375,-0.25
61,-0.048583984,-0.95758057,0.31048584,1.265625,-0.25,-0.234375
62,-0.07910156,-0.9624634,0.31219482,1.453125,-2.8125,0.328125
63,-0.051757812,-0.9517212,0.2970581,0.375,-0.53125,-1.03125
64,-0.072509766,-0.972229,0.2982788,0.21875,-1.578125,0.15625
65,-0.057861328,-0.95147705,0.2909546,0.0,-1.046875,-0.25
66,-0.07006836,-0.96173096,0.2921753,-0.0625,-1.390625,0.609375
67,-0.076171875,-0.98101807,0.27557373,-1.21875,-0.875,-0.046875
68,-0.03149414,-0.95025635,0.2994995,-0.0625,-0.984375,0.625
69,-0.095703125,-0.97247314,0.2958374,-0.90625,0.171875,-0.203125
70,-0.057373047,-0.94537354,0.32073975,-0.375,0.453125,0.15625
71,-0.08227539,-0.9639282,0.29681396,-0.90625,-1.125,0.125
72,-0.022949219,-0.95025635,0.30023193,-1.296875,-0.34375,0.03125
73,-0.0715332,-0.9585571,0.31048584,0.15625,-1.09375,0.5625
74,-0.05883789,-0.9678345,0.29193115,-1.828125,-1.484375,0.75
75,-0.08203125,-0.9326782,0.30804443,-0.15625,-0.984375,0.875
76,-0.05493164,-0.9649048,0.3036499,-0.40625,0.65625,0.234375
77,-0.049804688,-0.9595337,0.2970581,-0.59375,0.21875,0.609375
78,-0.060546875,-0.9702759,0.30389404,-1.984375,-0.375,0.328125
79,-0.053710938,-0.96759033,0.29486084,-2.515625,-2.09375,0.3125
80,-0.044921875,-0.9585571,0.2843628,-1.53125,-1.875,-1.59375
81,-0.068359375,-0.9692993,0.3139038,-1.03125,-2.453125,-1.640625
82,-0.052490234,-0.95562744,0.30023193,-1.890625,-2.171875,-1.5
83,-0.06225586,-0.9522095,0.32562256,-0.6875,-3.078125,-0.6875
84,-0.07055664,-0.97662354,0.2975464,-2.015625,-3.15625,-0.3125
85,-0.067871094,-0.9260864,0.32196045,-0.734375,0.46875,-1.328125
86,-0.1003418,-0.99224854,0.32855225,-0.1875,-2.125,0.109375
87,-0.076171875,-0.9246216,0.322937,1.03125,-0.6875,0.078125
88,-0.14648438,-0.9690552,0.2597046,-6.25,6.3125,5.125
89,-0.007080078,-0.9483032,0.29681396,-1.703125,0.203125,3.78125
90,-0.037597656,-0.9780884,0.32659912,-0.4375,-1.34375,0.359375
91,-0.02709961,-0.9636841,0.3114624,1.84375,-2.34375,-2.3125
92,-0.04272461,-0.9456177,0.30462646,2.5625,-2.578125,-0.984375
93,-0.087402344,-0.9817505,0.32635498,1.5625,-1.796875,1.09375
94,-0.068847656,-0.9517212,0.31243896,1.078125,0.546875,0.296875
95,-0.06689453,-0.9541626,0.3024292,0.171875,-0.40625,0.078125
96,-0.0625,-0.9651489,0.2975464,0.859375,-0.390625,-0.828125
97,-0.08081055,-0.9639282,0.29412842,1.578125,-1.34375,-0.671875
98,-0.068359375,-0.9619751,0.28167725,1.25,-0.546875,-1.125
99,-0.072021484,-0.9729614,0.2929077,-0.328125,-0.21875,-1.84375
100,-0.07128906,-0.9524536,0.27069092,-0.8125,-0.375,-2.3125
101,-0.068359375,-0.97198486,0.31854248,-1.296875,-1.546875,-2.75
102,-0.09301758,-0.942688,0.30218506,-3.125,-0.484375,-4.84375
103,-0.08666992,-0.9507446,0.3192749,-5.796875,2.46875,-4.75
104,-0.10424805,-0.9624634,0.40472412,-0.625,-0.96875,-1.96875
105,-0.125,-1.008606,0.355896,-2.625,2.375,1.828125
106,-0.08886719,-0.94122314,0.2897339,-1.328125,0.359375,2.671875
107,-0.07397461,-0.94903564,0.29803467,-1.359375,1.078125,4.890625
108,-0.05102539,-0.93878174,0.26190186,3.328125,-3.015625,4.21875
109,-0.0146484375,-0.91070557,0.24139404,3.21875,-2.953125,2.078125
110,-0.0703125,-0.9529419,0.2670288,1.65625,-3.78125,-0.328125
111,-0.0546875,-0.95977783,0.29730225,1.46875,-4.765625,1.015625
112,-0.092285156,-0.9834595,0.31414795,-0.0625,-4.765625,0.8125
113,-0.075683594,-0.9558716,0.30999756,-0.828125,-1.5625,-0.90625
114,-0.08886719,-0.9805298,0.31756592,-1.4375,0.671875,-0.171875
115,-0.05102539,-0.95147705,0.28656006,-0.609375,-1.015625,0.546875
116,-0.07739258,-0.9590454,0.29193115,0.4375,-1.34375,0.9375
117,-0.06225586,-0.95147705,0.29803467,0.890625,-2.890625,-0.109375
118,-0.08618164,-0.9524536,0.29656982,1.21875,-3.109375,0.171875
119,-0.07104492,-0.96343994,0.30804443,0.6875,-1.328125,-1.171875
120,-0.08300781,-0.97125244,0.30218506,-0.46875,-1.125,-0.953125
121,-0.053466797,-0.95880127,0.30413818,-0.15625,0.875,-2.28125
122,-0.046142578,-0.956604,0.34173584,-0.109375,-0.296875,-0.328125
123,0.014160156,-0.99176025,0.37347412,1.828125,-7.125,1.046875
124,-0.1809082,-0.99102783,0.27630615,7.625,-10.84375,1.953125
125,-0.19799805,-0.9116821,0.22357178,2.71875,-3.96875,1.359375
126,-0.07299805,-0.9627075,0.2218628,0.203125,-1.53125,1.640625
127,-0.091308594,-0.94317627,0.23309326,-1.109375,1.0,2.296875
128,-0.05078125,-0.9846802,0.2538452,-1.75,1.3125,-0.921875
129,-0.030029297,-0.95025635,0.27459717,-0.890625,1.953125,0.015625
130,-0.07128906,-1.0049438,0.2741089,-1.921875,1.109375,-1.515625
131,-0.07470703,-0.9668579,0.29559326,-0.140625,-0.328125,0.1875
132,-0.110839844,-0.96539307,0.28704834,-2.34375,1.078125,0.421875
133,-0.07495117,-0.9631958,0.29510498,-1.296875,0.171875,0.21875
134,-0.08959961,-0.9746704,0.27947998,-2.671875,-0.09375,0.9375
135,-0.036132812,-0.9529419,0.2838745,0.421875,-1.640625,0.640625
136,-0.08203125,-0.9714966,0.27069092,-2.046875,-1.578125,0.109375
137,-0.08129883,-0.9673462,0.29559326,-0.140625,0.015625,0.21875
138,-0.080078125,-0.97076416,0.29071045,-0.703125,-0.234375,0.4375
139,-0.087646484,-0.96710205,0.28851318,-2.15625,-0.46875,0.1875
140,-0.06347656,-0.97906494,0.28338623,-2.59375,0.6875,-0.390625
141,-0.052978516,-0.9529419,0.26849365,-1.6875,0.40625,0.53125
142,-0.076660156,-0.954895,0.29974365,0.3125,-0.09375,0.5625
143,-0.08642578,-0.975647,0.3012085,0.5625,-0.59375,0.578125
144,-0.05419922,-0.9644165,0.28533936,-0.84375,-0.5,0.078125
145,-0.088134766,-0.9656372,0.30877686,-0.125,-0.203125,0.46875
146,-0.0703125,-0.96173096,0.29559326,-0.984375,0.40625,-0.578125
147,-0.049804688,-0.9590454,0.2814331,0.0625,-1.234375,0.65625
148,-0.06738281,-0.97052,0.2855835,0.515625,-0.421875,0.375
149,-0.06347656,-0.958313,0.28070068,-0.234375,-1.15625,0.359375
150,-0.087890625,-0.97198486,0.26531982,-1.875,-0.546875,-0.390625
151,-0.052246094,-0.95318604,0.29193115,0.796875,-0.765625,-1.390625
152,-0.071777344,-0.97247314,0.2694702,-1.0,-0.4375,-0.4375
153,-0.076416016,-0.96417236,0.29852295,0.21875,-0.5,-0.21875
154,-0.0859375,-0.9859009,0.28900146,-0.703125,-0.53125,-0.1875
155,-0.0703125,-0.9483032,0.29608154,0.03125,-0.75,0.453125
156,-0.088134766,-0.9949341,0.29364014,-1.921875,1.828125,-0.515625
157,-0.07714844,-0.94122314,0.3053589,-2.3125,1.859375,1.171875
158,-0.06542969,-0.9817505,0.3036499,-2.53125,0.8125,-0.21875
159,-0.07446289,-0.9578247,0.2838745,-1.265625,-0.65625,-0.015625
160,-0.06982422,-0.9434204,0.26385498,0.109375,-2.703125,0.390625
161,-0.072509766,-0.9429321,0.23602295,4.734375,-9.28125,-1.625
162,-0.09790039,-0.9849243,0.3143921,1.875,-5.328125,-1.421875
163,-0.06298828,-0.9331665,0.2772827,-0.171875,-2.53125,0.390625
164,-0.04736328,-0.94195557,0.3258667,-0.875,-0.4375,-1.640625
165,-0.07421875,-0.98687744,0.26971436,-0.0625,0.5625,-3.0
166,-0.056640625,-0.97784424,0.27508545,-0.4375,1.25,0.3125
167,-0.1730957,-0.9968872,0.27972412,-2.046875,2.5,3.484375
168,-0.06982422,-0.93951416,0.2772827,-0.125,2.140625,0.0625
169,-0.06616211,-0.9627075,0.309021,-0.140625,0.765625,-0.765625
170,-0.08300781,-0.9697876,0.30560303,-0.796875,-3.625,0.0
171,-0.048583984,-0.9385376,0.2892456,-2.53125,-3.03125,-2.5
172,-0.088378906,-0.9639282,0.29388428,-0.640625,-5.25,0.046875
173,-0.0793457,-0.9697876,0.262146,-1.703125,-5.75,1.15625
174,-0.06762695,-0.93707275,0.29071045,1.1875,-5.796875,0.171875
175,-0.10595703,-0.9795532,0.28240967,0.0,-5.4375,3.546875
176,-0.05810547,-0.9468384,0.30633545,-0.640625,-4.015625,2.71875
177,-0.061767578,-0.97857666,0.29071045,-2.453125,-1.484375,2.046875
178,-0.04711914,-0.97198486,0.29241943,-1.0,-0.953125,0.65625
179,-0.07348633,-0.9314575,0.30926514,0.1875,-0.1875,-0.15625
180,-0.100097656,-0.9939575,0.3036499,-0.078125,-0.890625,0.265625
181,-0.110839844,-0.954895,0.2958374,-0.125,-0.53125,-0.71875
182,-0.072265625,-0.9697876,0.2843628,-0.609375,-0.34375,-1.859375
183,-0.0769043,-0.9402466,0.2694702,0.09375,-0.03125,-0.671875
184,-0.08496094,-0.9612427,0.2904663,-0.203125,0.34375,0.15625
185,-0.057861328,-0.96661377,0.29681396,-1.171875,0.21875,-0.109375
186,-0.09057617,-0.97735596,0.28289795,-1.609375,0.390625,0.046875
187,-0.07128906,-0.9380493,0.29412842,0.265625,-0.375,0.40625
188,-0.0690918,-0.9529419,0.28118896,-1.234375,0.21875,-0.46875
189,-0.09692383,-0.97857666,0.31195068,0.09375,-0.203125,0.25
190,-0.080078125,-0.9458618,0.2929077,-0.25,0.09375,0.046875
191,-0.0703125,-0.96343994,0.28460693,-0.921875,-0.28125,0.390625
192,-0.08105469,-0.97003174,0.29022217,-0.8125,-0.046875,-0.03125
193,-0.08129883,-0.96221924,0.28900146,-0.640625,-0.640625,0.15625
194,-0.068847656,-0.954895,0.30047607,-0.578125,-0.359375,0.234375
195,-0.091308594,-0.97003174,0.307312,-0.5,-0.609375,-0.046875
196,-0.0769043,-0.95806885,0.2946167,-0.578125,-0.75,0.828125
197,-0.0715332,-0.94244385,0.29071045,-0.484375,-0.515625,-0.5625
198,-0.0847168,-0.9817505,0.30047607,-0.71875,0.0,1.3125
199,-0.06713867,-0.9475708,0.2982788,-0.640625,-0.359375,0.34375
200,-0.076660156,-0.9807739,0.30584717,-0.625,-0.46875,0.484375
201,-0.0769043,-0.9561157,0.2855835,-0.96875,-0.484375,0.28125
202,-0.07006836,-0.9627075,0.30047607,-0.234375,-0.4375,0.0
203,-0.078125,-0.9534302,0.29534912,-0.515625,-0.53125,0.53125
204,-0.07788086,-0.9656372,0.29852295,-0.546875,-0.796875,-0.3125
205,-0.06689453,-0.96295166,0.30316162,-0.546875,0.0625,-0.25
206,-0.083740234,-0.956604,0.28997803,-0.21875,-0.625,-0.046875
207,-0.068603516,-0.960022,0.307312,0.484375,-0.3125,0.25
208,-0.064453125,-0.96539307,0.2999878,-2.421875,1.546875,0.359375
209,-0.095703125,-0.9573364,0.2850952,-1.046875,-1.265625,0.5625
210,-0.07006836,-0.9639282,0.28656006,-1.0,-0.796875,-0.09375
211,-0.06933594,-0.9734497,0.29315186,-0.1875,-0.390625,0.21875
212,-0.072021484,-0.9558716,0.29437256,0.078125,-0.703125,0.484375
213,-0.072753906,-0.958313,0.2958374,-0.09375,-0.09375,-0.0625
214,-0.072265625,-0.95928955,0.29193115,-0.796875,-0.28125,0.1875
215,-0.064697266,-0.96759033,0.29681396,-0.953125,-0.640625,-0.09375
216,-0.068847656,-0.96343994,0.30560303,-0.9375,-0.5625,-0.296875
217,-0.07299805,-0.95391846,0.29852295,-0.703125,-0.75,-0.421875
218,-0.080322266,-0.9663696,0.30633545,-0.828125,-0.78125,-0.296875
219,-0.07739258,-0.9624634,0.31781006,-1.96875,0.0625,0.375
220,-0.076171875,-0.9668579,0.30023193,-3.109375,1.25,-0.859375
221,-0.053955078,-0.9692993,0.3283081,-2.8125,0.265625,-1.03125
222,-0.09472656,-0.9439087,0.28533936,-2.734375,-1.234375,-0.84375
223,-0.07519531,-0.9607544,0.30975342,-1.296875,-1.15625,-0.28125
224,-0.0715332,-0.9573364,0.30950928,0.34375,-2.984375,0.40625
225,-0.09863281,-0.9558716,0.32440186,0.765625,-3.5,1.03125
226,-0.119628906,-0.989563,0.33343506,3.03125,-2.421875,1.078125
227,-0.033447266,-0.9036255,0.23382568,1.890625,1.59375,2.546875
228,-0.048095703,-0.9585571,0.28216553,0.484375,-2.46875,1.46875
229,-0.037353516,-0.9636841,0.28338623,0.03125,-3.5625,-0.890625
230,-0.061523438,-0.96343994,0.26678467,-0.515625,-0.78125,-0.234375
231,-0.06762695,-0.973938,0.29559326,-0.1875,-0.953125,-0.359375
232,-0.0690918,-0.9673462,0.29022217,-0.75,-1.453125,-0.453125
233,-0.076171875,-0.95928955,0.29193115,-0.890625,-1.171875,-0.65625
234,-0.07910156,-0.960022,0.2850952,-1.1875,-1.625,0.0625
235,-0.0949707,-0.9668579,0.30804443,-0.625,-1.296875,-0.09375
236,-0.08251953,-0.9692993,0.30682373,0.359375,-1.25,0.21875
237,-0.08862305,-0.96051025,0.30828857,0.125,-1.484375,-0.1875
238,-0.068359375,-0.960022,0.29779053,-0.328125,-1.15625,-0.015625
239,-0.08251953,-0.94976807,0.293396,-0.78125,-0.765625,0.5625
240,-0.064941406,-0.96759033,0.28729248,-0.84375,-0.390625,0.65625
241,-0.06933594,-0.97491455,0.2958374,-0.625,-0.6875,0.171875
242,-0.07763672,-0.9651489,0.2904663,-0.21875,-0.78125,0.234375
243,-0.06640625,-0.95025635,0.2909546,-1.015625,-0.28125,-0.265625
244,-0.06542969,-0.96466064,0.2814331,-1.328125,-0.03125,0.046875
245,-0.08251953,-0.96661377,0.29852295,-0.65625,-0.671875,0.09375
246,-0.08154297,-0.95562744,0.29534912,0.75,0.0625,-0.046875
247,-0.07080078,-0.9507446,0.309021,0.171875,0.578125,0.484375
248,-0.095458984,-0.95635986,0.322937,-0.53125,-0.875,0.515625
249,-0.057128906,-0.9590454,0.27825928,-0.75,-1.078125,-0.96875
250,-0.091796875,-0.9536743,0.30804443,0.796875,-0.4375,-0.421875
251,-0.07836914,-0.97003174,0.3024292,-0.84375,-0.109375,0.25
252,-0.08642578,-0.9463501,0.2987671,-1.140625,-1.171875,-0.0625
253,-0.06616211,-0.96954346,0.28997803,-0.8125,-0.546875,0.28125
254,-0.08300781,-0.96173096,0.2994995,-0.703125,-1.328125,0.296875
255,-0.059326172,-0.9429321,0.2946167,-0.53125,-0.296875,0.203125
256,-0.087646484,-0.9590454,0.29925537,-0.59375,-0.84375,0.515625
257,-0.060058594,-0.9702759,0.30218506,-0.890625,-0.953125,0.09375
258,-0.08618164,-0.9517212,0.29241943,-0.546875,-0.828125,-0.125
259,-0.078125,-0.9649048,0.30218506,-0.5,-0.234375,0.28125
260,-0.075927734,-0.9590454,0.2921753,-0.015625,-0.515625,0.3125
261,-0.072265625,-0.9612427,0.30340576,-0.421875,-0.640625,0.234375
262,-0.08154297,-0.96173096,0.30828857,-0.8125,-0.375,0.484375
263,-0.071777344,-0.9541626,0.28704834,-1.0,-1.328125,0.53125
264,-0.063964844,-0.9710083,0.2929077,-0.984375,-0.578125,-0.5625
265,-0.076660156,-0.9602661,0.28778076,-1.390625,0.796875,0.328125
266,-0.08935547,-0.9595337,0.30316162,-1.09375,-0.53125,0.15625
267,-0.0715332,-0.96343994,0.2975464,-0.09375,-0.828125,0.296875
268,-0.07373047,-0.9434204,0.28656006,-0.140625,-1.140625,0.0625
269,-0.07788086,-0.9812622,0.31195068,0.046875,-2.109375,-0.359375
270,-0.07397461,-0.96221924,0.28875732,-0.484375,-0.90625,0.125
271,-0.06201172,-0.9553833,0.30096436,0.15625,-0.734375,0.21875
272,-0.07128906,-0.9697876,0.29486084,-0.71875,-0.390625,0.28125
273,-0.0793457,-0.9546509,0.29803467,-0.5,-0.578125,-0.03125
274,-0.091308594,-0.96051025,0.31072998,-0.3125,-0.875,-0.09375
275,-0.072753906,-0.96221924,0.29559326,-0.796875,-0.46875,-0.09375
276,-0.076416016,-0.9585571,0.30145264,-0.25,-0.453125,0.21875
277,-0.06982422,-0.9661255,0.2946167,-0.0625,-0.6875,0.15625
278,-0.06567383,-0.95880127,0.29437256,-0.4375,-0.25,0.484375
279,-0.08081055,-0.97369385,0.30096436,-1.015625,-0.5,0.734375
280,-0.072265625,-0.96759033,0.27630615,-1.140625,0.96875,1.96875
281,-0.06347656,-0.9446411,0.29071045,0.171875,0.53125,1.359375
282,-0.07348633,-0.96051025,0.31072998,0.15625,-0.21875,1.578125
283,-0.07128906,-0.9624634,0.3168335,-0.265625,0.046875,0.15625
284,-0.08105469,-0.9602661,0.3007202,-0.015625,-1.75,0.671875
285,-0.046142578,-0.95977783,0.28485107,-0.75,-0.84375,-0.78125
286,-0.057373047,-0.9585571,0.29632568,0.046875,-0.828125,-0.0625
287,-0.05444336,-0.9631958,0.2880249,-0.78125,-1.0,-0.546875
288,-0.07739258,-0.9717407,0.29779053,-0.59375,-1.53125,0.03125
289,-0.07861328,-0.9619751,0.28167725,-0.296875,-0.921875,0.0
290,-0.06982422,-0.973938,0.28900146,-0.171875,-1.28125,-0.15625
291,-0.08105469,-0.95391846,0.2868042,-0.4375,-0.875,0.171875
292,-0.057617188,-0.958313,0.28167725,-0.4375,-0.359375,0.015625
293,-0.061523438,-0.95806885,0.30291748,-0.484375,-0.84375,1.828125
294,-0.09106445,-0.9788208,0.30096436,-0.4375,-1.453125,0.78125
295,-0.056396484,-0.96417236,0.28289795,-0.78125,-1.328125,0.09375
296,-0.07006836,-0.9614868,0.29852295,-0.65625,-1.453125,-0.140625
297,-0.049072266,-0.9561157,0.29241943,-0.921875,-0.984375,-0.0625
298,-0.052490234,-0.9673462,0.29632568,-0.578125,-0.890625,0.15625
299,-0.05029297,-0.956604,0.2970581,-1.078125,-0.34375,0.34375
300,-0.07299805,-0.96051025,0.3007202,-1.484375,-1.546875,1.484375
301,-0.051757812,-0.960022,0.2789917,-2.15625,-1.578125,1.3125
302,-0.07519531,-0.96759033,0.29901123,-0.03125,-3.296875,2.1875
303,-0.06982422,-0.96832275,0.3139038,0.375,-1.859375,0.265625
304,-0.059814453,-0.9529419,0.2909546,0.84375,-1.5625,0.171875
305,-0.060058594,-0.95880127,0.2814331,0.171875,-1.25,-0.296875
306,-0.056884766,-0.94976807,0.30218506,0.109375,-0.484375,-0.234375
307,-0.06982422,-0.96417236,0.3139038,0.234375,-1.03125,0.21875
308,-0.04663086,-0.9541626,0.27801514,-1.15625,-0.484375,0.46875
309,-0.06958008,-0.9768677,0.29730225,-0.671875,-1.140625,-0.625
310,-0.061035156,-0.9651489,0.30950928,0.0,-0.984375,0.15625
311,-0.0793457,-0.97735596,0.2831421,-0.65625,-1.34375,-1.203125
312,-0.046875,-0.9505005,0.28900146,0.140625,-0.109375,0.484375
313,-0.07788086,-0.9805298,0.29510498,-0.5625,0.015625,-0.296875
314,-0.072021484,-0.9512329,0.29730225,-0.546875,-1.09375,0.25
315,-0.059814453,-0.98565674,0.29779053,-0.296875,-0.671875,-0.578125
316,-0.059326172,-0.9546509,0.29241943,-0.25,-0.40625,0.515625
317,-0.068115234,-0.95684814,0.29193115,-0.640625,0.15625,-0.25
318,-0.06518555,-0.954895,0.2843628,-0.6875,-0.5,0.8125
319,-0.06225586,-0.95513916,0.29681396,-0.734375,-0.015625,-0.171875
320,-0.05053711,-0.9763794,0.2892456,-0.921875,-0.015625,-0.078125
321,-0.067871094,-0.9663696,0.29925537,-0.5,-0.484375,-0.09375
322,-0.053222656,-0.96588135,0.2838745,-1.234375,0.203125,-0.28125
323,-0.0703125,-0.9602661,0.29656982,0.0,-0.265625,0.453125
324,-0.0703125,-0.96466064,0.29559326,0.0625,-1.03125,-0.0625
325,-0.050048828,-0.9627075,0.29803467,-1.046875,-1.34375,0.078125
326,-0.0703125,-0.95928955,0.29486084,-1.515625,-1.890625,0.171875
327,-0.06738281,-0.97320557,0.30682373,-2.09375,-0.75,-0.25
328,-0.04736328,-0.97052,0.31488037,-1.609375,-0.125,-0.0625
329,-0.08862305,-0.9421997,0.2748413,0.421875,-2.015625,-0.3125
330,-0.056640625,-0.9627075,0.29022217,-0.25,-0.40625,0.078125
331,-0.06591797,-0.96588135,0.2904663,0.078125,-1.125,0.578125
332,-0.06542969,-0.9663696,0.29486084,0.078125,-1.71875,0.34375
333,-0.039794922,-0.95880127,0.28533936,-0.84375,-1.65625,0.765625
334,-0.06762695,-0.9631958,0.2765503,0.609375,-1.984375,0.9375
335,-0.05834961,-0.96466064,0.29852295,0.234375,-1.09375,0.625
336,-0.08300781,-0.9729614,0.2982788,0.34375,-1.4375,0.15625
337,-0.06274414,-0.9553833,0.28533936,0.03125,-0.359375,0.09375
338,-0.0637207,-0.97784424,0.30291748,0.171875,-1.53125,-0.15625
339,-0.06518555,-0.9673462,0.293396,-1.109375,0.03125,-0.421875
340,-0.075927734,-0.9661255,0.2831421,-0.171875,-1.15625,-0.015625
341,-0.045898438,-0.9500122,0.28338623,-0.046875,0.125,0.21875
342,-0.0871582,-0.9873657,0.2958374,-0.234375,-0.40625,0.203125
343,-0.036132812,-0.97052,0.2946167,-0.046875,-1.09375,0.078125
344,-0.08959961,-0.95928955,0.28875732,-0.0625,-0.328125,-0.34375
345,-0.057128906,-0.94317627,0.28704834,-0.390625,-0.859375,0.390625
346,-0.057861328,-0.97735596,0.30340576,-0.875,-0.59375,-0.40625
347,-0.06640625,-0.9627075,0.29364014,-1.40625,-1.078125,0.984375
348,-0.068115234,-0.95025635,0.2909546,0.078125,-0.390625,-0.3125
349,-0.08300781,-0.97369385,0.29779053,0.578125,1.046875,0.484375
350,-0.060546875,-0.95562744,0.28240967,0.90625,1.078125,-2.8125
351,-0.049560547,-0.95513916,0.28631592,-0.109375,-0.109375,-0.53125
352,-0.06640625,-0.97320557,0.29388428,-0.265625,-1.03125,0.34375
353,-0.056396484,-0.97003174,0.29315186,-0.6875,-1.03125,-0.125
354,-0.064697266,-0.96661377,0.2904663,-0.328125,-1.765625,-0.421875
355,-0.06591797,-0.956604,0.28485107,-0.390625,-1.328125,0.546875
356,-0.059814453,-0.95758057,0.2909546,-0.828125,-1.1875,-0.1875
357,-0.072509766,-0.9824829,0.28826904,-0.625,-1.15625,-0.078125
358,-0.07006836,-0.9607544,0.26898193,-0.4375,-0.890625,0.09375
359,-0.09375,-0.97003174,0.27752686,-0.5,-0.65625,-0.09375
360,-0.05102539,-0.9624634,0.2958374,-0.59375,0.34375,-0.4375
361,-0.0690918,-0.96710205,0.28045654,-1.421875,-0.015625,-0.140625
362,-0.068847656,-0.9619751,0.29364014,-0.484375,-0.15625,-0.6875
363,-0.06225586,-0.9546509,0.30145264,0.765625,-0.375,0.375
364,-0.072021484,-0.96832275,0.28826904,-0.546875,-0.203125,0.453125
365,-0.063964844,-0.9590454,0.2843628,-0.421875,-0.09375,0.375
366,-0.07055664,-0.96417236,0.2946167,0.203125,-0.78125,0.421875
367,-0.06982422,-0.960022,0.28851318,-0.609375,-0.203125,0.765625
368,-0.06567383,-0.9614868,0.28997803,-0.5,0.171875,0.328125
369,-0.084228516,-0.972229,0.29803467,-0.484375,-0.109375,-0.0625
370,-0.052734375,-0.9651489,0.2819214,-0.828125,0.5625,-0.578125
371,-0.06591797,-0.9678345,0.29364014,0.046875,-0.484375,-0.375
372,-0.060302734,-0.9680786,0.28729248,-0.03125,-0.453125,-0.9375
373,-0.07861328,-0.95806885,0.28875732,-0.46875,-0.484375,-0.28125
374,-0.06225586,-0.9573364,0.28656006,-0.9375,-0.6875,0.21875
375,-0.080322266,-0.95880127,0.27923584,-1.0625,-1.875,0.0625
376,-0.08691406,-0.97003174,0.29193115,-1.640625,-1.84375,-0.390625
377,-0.057861328,-0.9651489,0.26556396,-1.875,-1.5,0.25
378,-0.05859375,-0.94537354,0.28997803,-0.890625,0.0,-0.59375
379,-0.09838867,-1.000061,0.2904663,-0.453125,-1.359375,0.484375
380,-0.040527344,-0.9336548,0.2814331,-0.0625,-0.421875,0.375
381,-0.07421875,-0.9783325,0.2994995,0.15625,0.140625,0.0625
382,-0.071777344,-0.96099854,0.28656006,-0.796875,-0.09375,0.46875
383,-0.0637207,-0.96588135,0.29119873,-0.375,-0.359375,-0.1875
384,-0.06958008,-0.9678345,0.3065796,-0.078125,-0.265625,0.0625
385,-0.064208984,-0.9573364,0.28485107,-0.53125,-0.171875,-0.078125
386,-0.08105469,-0.9692993,0.2868042,-0.828125,-0.890625,0.125
387,-0.057373047,-0.95977783,0.2904663,-0.125,-1.09375,-0.46875
388,-0.0871582,-0.9697876,0.28607178,-0.4375,-0.890625,-0.09375
389,-0.060302734,-0.96173096,0.28070068,0.046875,0.171875,-0.21875
390,-0.07885742,-0.9902954,0.2880249,2.78125,0.453125,0.96875
391,-0.04638672,-0.9553833,0.28656006,1.71875,0.484375,-0.125
392,-0.072509766,-0.9673462,0.29656982,0.90625,-2.15625,0.046875
393,-0.08178711,-0.95025635,0.27386475,-0.09375,-2.234375,-0.4375
394,-0.0859375,-0.987854,0.2802124,-0.4375,-1.78125,0.546875
395,-0.07104492,-0.9644165,0.27825928,0.015625,-1.8125,0.46875
396,-0.07055664,-0.95928955,0.26531982,-1.453125,-1.296875,0.546875
397,-0.07519531,-0.96051025,0.28118896,-0.46875,-1.21875,0.265625
398,-0.07348633,-0.97979736,0.30194092,-0.515625,-1.40625,-0.09375
399,-0.06591797,-0.96051025,0.293396,0.046875,-2.0625,-0.328125
400,-0.052978516,-0.956604,0.277771,-0.28125,0.328125,-0.484375
401,-0.072509766,-0.96539307,0.28118896,0.46875,-0.8125,0.53125
402,-0.068115234,-0.95806885,0.2880249,-0.078125,-2.140625,1.140625
403,-0.06640625,-0.9710083,0.28118896,-0.8125,-1.75,0.109375
404,-0.079589844,-0.9690552,0.27581787,-0.46875,-1.296875,0.390625
405,-0.075927734,-0.97369385,0.2682495,-0.78125,-0.484375,-0.1875
406,-0.061523438,-0.96417236,0.28411865,-0.40625,-0.609375,0.09375
407,-0.0690918,-0.9614868,0.28216553,-1.4375,-1.1875,-0.390625
408,-0.091552734,-0.9649048,0.29071045,-0.453125,-1.34375,0.15625
409,-0.046142578,-0.95562744,0.2772827,-0.734375,0.15625,0.15625
410,-0.09887695,-0.99468994,0.2929077,-0.609375,-1.59375,0.5
411,-0.057373047,-0.95684814,0.27459717,-0.40625,0.0,0.21875
412,-0.06323242,-0.9644165,0.277771,-0.078125,-0.90625,0.078125
413,-0.05444336,-0.96759033,0.2699585,-0.078125,0.625,0.3125
414,-0.068847656,-0.9373169,0.27874756,0.84375,1.4375,0.5625
415,-0.06347656,-0.98394775,0.31097412,2.5,-0.625,0.203125
416,-0.10180664,-0.987854,0.27459717,-0.78125,-0.21875,2.046875
417,-0.07324219,-0.94659424,0.25628662,-0.65625,-1.609375,-0.09375
418,-0.05883789,-0.9729614,0.2789917,0.09375,-0.828125,-1.09375
419,-0.053222656,-0.97052,0.27288818,-0.8125,-0.203125,-0.4375
420,-0.052734375,-0.9578247,0.2711792,-1.171875,-0.921875,-0.578125
421,-0.07104492,-0.97076416,0.2682495,-0.765625,-2.21875,-0.703125
422,-0.048095703,-0.960022,0.27850342,-0.03125,-0.984375,-0.875
423,-0.09350586,-0.9807739,0.29119873,0.125,-1.734375,0.4375
424,-0.08227539,-0.95440674,0.26605225,-0.328125,-0.703125,0.796875
425,-0.068603516,-0.96832275,0.27386475,0.796875,-0.828125,-0.25
426,-0.052734375,-0.9702759,0.25897217,0.265625,-0.6875,-0.328125
427,-0.061279297,-0.9685669,0.26898193,-0.078125,-0.234375,-0.1875
428,-0.083984375,-0.99176025,0.30169678,-0.703125,0.296875,-0.84375
429,-0.08984375,-0.9883423,0.27044678,0.515625,1.421875,-3.8125
430,-0.08935547,-0.9595337,0.2765503,1.859375,0.203125,-6.265625
431,-0.07080078,-0.9187622,0.25579834,-0.53125,0.046875,-0.46875
432,-0.07861328,-1.0010376,0.29193115,-0.5625,-6.375,-1.046875
433,-0.099609375,-0.98223877,0.29730225,-0.40625,-3.171875,-1.09375
434,-0.031982422,-0.913147,0.23944092,-2.40625,-2.4375,5.203125
435,-0.11743164,-1.0193481,0.2765503,-1.78125,-2.796875,5.0625
436,-0.08203125,-0.9351196,0.25335693,0.140625,-0.65625,0.28125
437,-0.08911133,-0.954895,0.26361084,2.171875,-0.875,2.0625
438,-0.072509766,-0.9854126,0.25750732,-0.1875,1.46875,0.1875
439,-0.04321289,-0.97003174,0.25579834,-0.671875,0.203125,1.21875
440,-0.08276367,-0.98565674,0.28118896,-1.015625,0.484375,0.484375
441,-0.072509766,-0.9639282,0.25750732,-0.984375,0.53125,-0.125
442,-0.07885742,-0.9668579,0.27020264,-1.53125,0.203125,-0.125
443,-0.08520508,-0.9668579,0.276062,-1.109375,-0.71875,0.421875
444,-0.048095703,-0.94537354,0.2687378,-1.28125,0.015625,0.859375
445,-0.068359375,-0.9727173,0.27142334,-0.453125,-1.109375,1.59375
446,-0.068847656,-0.9644165,0.26849365,-0.015625,-0.640625,0.203125
447,-0.05517578,-0.9729614,0.2802124,0.6875,-1.328125,0.8125
448,-0.060058594,-0.96539307,0.26605225,-0.9375,-0.828125,-1.875
449,-0.05517578,-0.95025635,0.27508545,0.78125,-1.21875,-2.0625
450,-0.063964844,-0.9685669,0.26263428,-0.28125,-1.6875,-3.265625
451,-0.10839844,-0.96881104,0.27093506,-0.03125,-0.796875,-0.90625
452,-0.09692383,-0.9973755,0.26483154,-0.546875,0.390625,0.265625
453,-0.0859375,-0.9561157,0.2218628,-2.265625,1.890625,0.484375
454,-0.099853516,-0.9932251,0.25286865,-0.390625,0.15625,0.734375
455,-0.08520508,-0.9963989,0.23577881,-1.703125,0.34375,0.53125
456,-0.051513672,-0.956604,0.24481201,-1.734375,-0.640625,3.046875
457,-0.0769043,-0.975647,0.2489624,-2.75,-0.53125,-0.546875
458,-0.021240234,-0.89385986,0.29534912,1.1875,-2.34375,-1.671875
459,-0.1081543,-1.0117798,0.340271,2.03125,-2.734375,-3.125
460,-0.046142578,-0.97662354,0.28070068,-0.03125,0.25,0.71875
461,-0.09057617,-0.9854126,0.27801514,-1.328125,-0.171875,4.28125
462,-0.0769043,-0.97613525,0.25823975,-4.046875,0.0625,2.25
463,-0.08496094,-0.94854736,0.23895264,-3.5625,0.25,2.78125
464,-0.05078125,-0.95269775,0.26239014,-2.21875,2.515625,0.59375
465,-0.08618164,-0.99664307,0.28070068,-1.59375,-0.25,1.3125
466,-0.049560547,-0.96295166,0.28240967,-1.65625,-0.234375,-0.40625
467,-0.07324219,-0.9668579,0.30169678,-1.203125,-1.140625,-0.34375
468,-0.04638672,-0.9463501,0.29071045,-1.21875,0.171875,0.46875
469,-0.06323242,-0.96221924,0.30975342,-0.578125,-0.890625,1.203125
470,-0.048095703,-0.9714966,0.28900146,-0.0625,0.171875,0.34375
471,-0.05102539,-0.9661255,0.28240967,0.90625,-0.78125,-0.8125
472,-0.072265625,-0.97320557,0.2616577,2.234375,-0.6875,-3.78125
473,-0.06542969,-0.9668579,0.27679443,2.03125,0.453125,-4.921875
474,-0.048828125,-0.9500122,0.2802124,2.359375,-2.828125,0.953125
475,-0.10473633,-0.99346924,0.2723999,2.75,-1.484375,-0.734375
476,-0.059814453,-0.9612427,0.29022217,2.5625,-3.453125,0.546875
477,-0.087890625,-0.99713135,0.28753662,1.484375,-3.921875,0.796875
478,-0.07714844,-0.9492798,0.25115967,1.09375,-5.109375,0.375
479,-0.040527344,-0.96759033,0.2506714,-1.03125,-5.65625,1.1875
480,-0.07910156,-0.9734497,0.2802124,-3.734375,-3.046875,2.421875
481,-0.07885742,-0.96221924,0.2387085,-2.328125,-1.046875,0.6875
482,-0.07446289,-0.96539307,0.24700928,-2.421875,-0.328125,2.0625
483,-0.0793457,-0.96051025,0.2526245,-0.796875,-0.0625,0.546875
484,-0.060302734,-0.9702759,0.26068115,-0.828125,-0.296875,0.21875
485,-0.06982422,-0.96221924,0.2819214,-0.828125,-0.71875,0.296875
486,-0.07080078,-0.97198486,0.28411865,-0.71875,-0.453125,0.09375
487,-0.06591797,-0.9644165,0.28216553,-0.890625,-0.625,0.34375
488,-0.059814453,-0.9661255,0.27801514,-0.734375,-0.578125,0.0625
489,-0.079833984,-0.9651489,0.26239014,-2.09375,-2.03125,0.484375
490,-0.03955078,-0.9690552,0.26385498,-1.4375,-1.046875,0.328125
491,-0.06518555,-0.9763794,0.25946045,-1.828125,-0.5625,-0.03125
492,-0.068115234,-0.96295166,0.26605225,-0.453125,-0.5,0.125
493,-0.06323242,-0.97540283,0.27288818,0.078125,-0.109375,-0.203125
494,-0.061035156,-0.9656372,0.27313232,-1.1875,-0.5,0.328125
495,-0.068847656,-0.95440674,0.27459717,-0.578125,-0.40625,-0.546875
496,-0.061767578,-0.973938,0.27850342,-0.953125,-0.25,0.046875
497,-0.072509766,-0.9763794,0.2765503,-0.78125,-0.71875,-0.078125
498,-0.07446289,-0.96295166,0.27972412,-0.078125,-1.03125,-0.265625
499,-0.06958008,-0.9741821,0.2765503,0.25,-1.046875,-0.375
500,-0.06591797,-0.9553833,0.27801514,-0.328125,-0.796875,-0.15625
501,-0.06616211,-0.97979736,0.25457764,-1.484375,-0.984375,-0.03125
502,-0.05078125,-0.9558716,0.2802124,-0.59375,-0.78125,1.03125
503,-0.09472656,-0.99664307,0.2682495,-1.328125,-0.125,-0.296875
504,-0.057861328,-0.9434204,0.2831421,0.015625,-0.765625,0.625
505,-0.0715332,-0.991272,0.27801514,-0.46875,-0.859375,-0.625
506,-0.040771484,-0.95806885,0.27874756,-0.546875,-0.34375,0.1875
507,-0.08935547,-0.9680786,0.27508545,-0.171875,-0.59375,-0.21875
508,-0.072509766,-0.96710205,0.2765503,-0.546875,-0.609375,0.3125
509,-0.0715332,-0.9685669,0.27508545,-0.453125,-0.515625,-0.046875
510,-0.076660156,-0.9663696,0.27557373,-0.75,-0.515625,-0.359375
511,-0.07910156,-0.9612427,0.29144287,0.46875,-1.65625,0.0
512,-0.053466797,-0.97442627,0.2802124,-3.09375,1.53125,-0.9375
513,-0.08129883,-0.99224854,0.31195068,-1.828125,0.015625,-0.46875
514,-0.06201172,-0.9421997,0.24481201,-0.359375,-0.578125,1.25
515,-0.07373047,-0.95318604,0.28167725,1.53125,-2.765625,0.5
516,-0.05444336,-0.975647,0.2711792,0.125,-2.53125,0.640625
517,-0.08227539,-0.9475708,0.27850342,0.125,-2.3125,0.296875
518,-0.055419922,-0.96954346,0.24969482,-2.265625,-2.125,-0.796875
519,-0.08300781,-0.9678345,0.29071045,-1.296875,-2.421875,-0.453125
520,-0.06689453,-0.9612427,0.27215576,-0.5,-1.765625,-0.109375
521,-0.06542969,-0.98150635,0.26898193,-0.828125,-0.71875,0.078125
522,-0.075683594,-0.9595337,0.26678467,0.15625,-0.921875,0.390625
523,-0.07324219,-0.97125244,0.2711792,-0.84375,-0.46875,0.078125
524,-0.07324219,-0.96759033,0.2838745,-0.109375,-0.359375,0.390625
525,-0.095214844,-0.9841919,0.28045654,-1.15625,0.59375,0.421875
526,-0.04736328,-0.93585205,0.26776123,-0.28125,0.984375,0.265625
527,-0.06689453,-0.97320557,0.26849365,-0.765625,-0.4375,0.828125
528,-0.052001953,-0.9570923,0.2699585,-0.703125,-0.296875,0.359375
529,-0.06225586,-0.96295166,0.28118896,-0.4375,-0.40625,0.015625
530,-0.07519531,-0.958313,0.28045654,-0.75,-0.453125,0.25
531,-0.06713867,-0.94366455,0.27459717,-0.296875,-0.390625,-0.453125
532,-0.061523438,-0.9729614,0.26434326,-0.625,-0.640625,-0.125
533,-0.071777344,-0.9614868,0.2958374,-0.453125,-0.921875,-0.453125
534,-0.07128906,-0.972229,0.2675171,-1.4375,-0.3125,-1.140625
535,-0.07739258,-0.960022,0.293396,0.265625,-1.390625,0.078125
536,-0.0703125,-0.9678345,0.26898193,-1.046875,-0.75,-0.234375
537,-0.06982422,-0.9553833,0.29437256,-0.03125,-1.359375,0.046875
538,-0.059570312,-0.97369385,0.2789917,-1.234375,-0.140625,0.46875
539,-0.07446289,-0.96295166,0.2772827,-0.96875,-1.203125,0.515625
540,-0.0625,-0.96417236,0.2748413,-0.5625,0.5625,0.78125
541,-0.07543945,-0.9578247,0.2772827,0.421875,-0.71875,1.71875
542,-0.079833984,-0.97247314,0.28631592,0.28125,-1.46875,0.296875
543,-0.043701172,-0.94976807,0.26922607,-0.984375,0.015625,-0.34375
544,-0.067871094,-0.99224854,0.28363037,-0.53125,-0.796875,-0.171875
545,-0.05859375,-0.9585571,0.28118896,-0.703125,-0.765625,0.078125
546,-0.059570312,-0.97052,0.28118896,-0.078125,-0.875,-0.15625
547,-0.071777344,-0.9673462,0.27752686,0.390625,-0.171875,0.203125
548,-0.06542969,-0.9578247,0.27166748,-0.0625,-0.4375,-0.171875
549,-0.07763672,-0.9841919,0.2789917,0.078125,-1.09375,0.046875
550,-0.063964844,-0.96417236,0.27508545,0.125,-1.046875,-0.25
551,-0.068359375,-0.9636841,0.27801514,-0.671875,-0.84375,0.078125
552,-0.07543945,-0.9685669,0.27044678,-0.265625,-0.859375,0.59375
553,-0.068847656,-0.97784424,0.27142334,-0.640625,-0.96875,0.421875
554,-0.030517578,-0.9619751,0.2772827,-0.03125,-0.640625,0.09375
555,-0.08325195,-0.97003174,0.2658081,-1.21875,-0.40625,0.109375
556,-0.056640625,-0.9649048,0.26849365,-0.125,-0.6875,0.078125
557,-0.068359375,-0.9685669,0.27703857,-0.015625,-0.609375,-0.125
558,-0.06274414,-0.9656372,0.2831421,-0.734375,-0.546875,-0.03125
559,-0.08496094,-0.9661255,0.27825928,-1.5625,0.421875,0.109375
560,-0.08496094,-0.97003174,0.27679443,-2.25,1.375,1.53125
561,-0.06542969,-0.94366455,0.26483154,-0.46875,-1.203125,0.71875
562,-0.06323242,-0.97125244,0.29730225,-0.8125,-0.875,0.28125
563,-0.03540039,-0.9649048,0.27923584,-0.28125,-0.71875,-0.21875
564,-0.064453125,-0.96954346,0.277771,0.03125,-1.34375,0.0
565,-0.03930664,-0.9517212,0.26849365,-0.734375,-0.890625,-0.46875
566,-0.06591797,-0.9685669,0.28216553,-0.734375,-1.984375,0.984375
567,-0.05419922,-0.9631958,0.26849365,-1.34375,-1.078125,-0.015625
568,-0.0793457,-0.98150635,0.28118896,-0.390625,-1.9375,0.140625
569,-0.07739258,-0.9631958,0.27850342,-0.125,-0.78125,-0.390625
570,-0.072265625,-0.9602661,0.27752686,0.34375,-1.15625,0.0625
571,-0.07128906,-0.96051025,0.27923584,-0.03125,-0.234375,-0.546875
572,-0.07006836,-0.97442627,0.27166748,-0.5625,-0.921875,0.0
573,-0.06713867,-0.96881104,0.28411865,-0.234375,-0.171875,-0.078125
574,-0.06958008,-0.9602661,0.28045654,-0.390625,-0.90625,0.28125
575,-0.072265625,-0.96759033,0.2765503,-0.375,0.0,0.21875
576,-0.068359375,-0.97003174,0.26239014,-0.71875,-0.328125,0.171875
577,-0.057128906,-0.9692993,0.27874756,-0.109375,-0.578125,0.515625
578,-0.068603516,-0.97247314,0.2567749,-2.609375,-1.265625,0.03125
579,-0.056152344,-0.96881104,0.28363037,-1.46875,-1.390625,0.015625
580,-0.064453125,-0.95758057,0.28411865,-0.265625,-0.4375,0.296875
581,-0.09716797,-0.9644165,0.27215576,1.734375,0.1875,-0.390625
582,-0.041015625,-0.96221924,0.2826538,0.8125,-1.03125,0.109375
583,-0.064453125,-0.9678345,0.27166748,-0.5,-1.765625,1.125
584,-0.061035156,-0.96466064,0.27044678,-0.109375,-1.59375,0.828125
585,-0.07836914,-0.97857666,0.27142334,0.3125,-1.59375,1.140625
586,-0.06518555,-0.9627075,0.27801514,0.0,1.0,0.75
587,-0.053222656,-0.9619751,0.27191162,-0.78125,-0.96875,0.390625
588,-0.0637207,-0.9614868,0.26483154,-0.84375,-0.46875,0.75
589,-0.046875,-0.9678345,0.26507568,-1.21875,0.21875,0.625
590,-0.056640625,-0.96661377,0.28411865,-0.625,0.40625,0.21875
591,-0.0715332,-0.9729614,0.28631592,-0.53125,-0.53125,0.5
592,-0.052246094,-0.9663696,0.27972412,-1.09375,-0.53125,-0.234375
593,-0.06347656,-0.95147705,0.28851318,-1.078125,-0.359375,-0.140625
594,-0.067871094,-0.96881104,0.27386475,-0.015625,-1.171875,-0.484375
595,-0.060058594,-0.9680786,0.27557373,-0.265625,-1.609375,0.125
596,-0.036621094,-0.97198486,0.2814331,-0.21875,-1.125,-0.484375
597,-0.06542969,-0.96417236,0.27142334,-0.75,-0.890625,-0.203125
598,-0.052001953,-0.9536743,0.26849365,-0.15625,-0.640625,0.28125
599,-0.07373047,-0.9795532,0.30096436,-0.71875,-0.578125,-0.3125
600,-0.06225586,-0.9668579,0.29388428,-0.1875,-1.84375,-0.078125
601,-0.064208984,-0.9768677,0.2670288,1.140625,-0.46875,0.234375
602,-0.049804688,-0.95758057,0.26531982,2.34375,-0.75,0.046875
603,-0.0690918,-0.9800415,0.27020264,-0.671875,-1.890625,0.71875
604,-0.06689453,-0.95196533,0.26654053,1.171875,-3.078125,1.5
605,-0.07885742,-0.94537354,0.25701904,-1.96875,-1.28125,0.015625
606,-0.041992188,-0.9668579,0.2819214,-1.171875,-2.546875,-0.015625
607,-0.05493164,-0.98101807,0.28607178,-1.546875,-1.0,0.140625
608,-0.030273438,-0.95025635,0.28729248,-0.25,0.3125,1.46875
609,-0.10668945,-0.9819946,0.30560303,1.546875,-1.0,1.578125
610,-0.052734375,-0.97003174,0.28460693,1.0625,0.453125,1.046875
611,-0.059814453,-0.9651489,0.2538452,1.28125,-0.78125,-0.125
612,-0.041259766,-0.98638916,0.25091553,0.90625,-1.484375,-1.21875
613,-0.060058594,-0.98321533,0.2531128,0.828125,-1.578125,-1.734375
614,-0.00390625,-0.99176025,0.24481201,-2.59375,0.40625,-2.109375
615,-0.03100586,-0.9561157,0.2453003,-1.953125,-0.984375,-1.25
616,-0.055419922,-0.954895,0.26727295,-2.390625,-1.1875,-1.703125
617,-0.10864258,-0.97906494,0.27264404,-2.796875,-1.40625,-1.203125
618,-0.0859375,-0.96881104,0.28656006,-0.6875,-1.421875,-0.046875
619,-0.10131836,-0.9837036,0.2880249,0.0625,-1.171875,0.3125
620,-0.045166016,-0.9529419,0.276062,-0.375,-1.0,0.5625
621,-0.072753906,-0.9631958,0.2538452,-0.484375,-1.171875,0.90625
622,-0.052490234,-0.97491455,0.27337646,0.328125,-0.6875,0.828125
623,-0.06298828,-0.9817505,0.27996826,0.71875,0.59375,0.328125
624,-0.03881836,-0.9624634,0.262146,-0.46875,1.609375,0.671875
625,-0.041259766,-0.9541626,0.26116943,-1.296875,0.46875,-0.625
626,-0.05810547,-0.9649048,0.26385498,-1.03125,0.234375,-0.25
627,-0.072021484,-0.98394775,0.26385498,-1.328125,0.703125,-0.6875
628,-0.06567383,-0.97076416,0.27020264,-0.59375,0.015625,-1.40625
629,-0.072021484,-0.9639282,0.26190186,-0.140625,1.8125,-1.90625
630,-0.05493164,-0.9771118,0.27850342,1.546875,1.109375,-0.71875
631,-0.0690918,-0.95318604,0.2748413,1.421875,-0.546875,-0.609375
632,-0.0637207,-0.97735596,0.27166748,0.90625,-0.15625,-0.390625
633,-0.06958008,-0.96173096,0.27435303,0.859375,-2.84375,-0.09375
634,-0.0715332,-0.97198486,0.26409912,-0.03125,-1.84375,0.640625
635,-0.053466797,-0.9768677,0.2597046,-0.5625,-1.4375,0.40625
636,-0.06958008,-0.9500122,0.24822998,-1.046875,-4.328125,1.484375
637,-0.049560547,-0.9746704,0.23065186,-1.5,-3.375,1.0
638,-0.06591797,-0.9841919,0.2616577,-0.96875,-2.59375,1.09375
639,-0.07446289,-0.9590454,0.24212646,-0.96875,-0.34375,2.3125
640,-0.05102539,-0.9976196,0.2789917,-1.328125,-0.15625,1.5
641,-0.049316406,-0.9776001,0.2633667,-0.796875,-0.265625,1.5625
642,-0.049804688,-0.94537354,0.25897217,-1.046875,-0.25,1.359375
643,-0.05859375,-0.9788208,0.27923584,-1.53125,0.625,1.546875
644,-0.046875,-0.99005127,0.27679443,-2.15625,1.875,1.46875
645,-0.05834961,-1.0327759,0.24578857,-6.453125,2.046875,4.375
646,-0.03466797,-0.8948364,0.17327881,-3.90625,-2.46875,1.734375
647,-0.08276367,-0.94854736,0.2958374,-1.265625,-3.78125,0.328125
648,-0.044921875,-0.9763794,0.32611084,-1.015625,-2.5625,-1.296875
649,-0.020507812,-0.9656372,0.37542725,0.0625,-4.59375,-1.390625
650,0.0,-0.95928955,0.32781982,-0.609375,-1.796875,-0.640625
651,-0.0234375,-0.960022,0.31951904,-0.375,-2.203125,2.359375
652,-0.022949219,-0.9685669,0.29071045,-1.8125,-0.015625,3.046875
653,-0.05078125,-0.9783325,0.27581787,-1.296875,-1.765625,1.46875
654,-0.052490234,-0.93536377,0.25164795,-0.25,-2.453125,-0.390625
655,-0.05102539,-0.958313,0.2399292,0.109375,-2.765625,-0.640625
656,-0.11645508,-0.9944458,0.27215576,0.0,-2.15625,-1.3125
657,-0.06542969,-1.0059204,0.29193115,-1.90625,-0.4375,-3.0
658,-0.046875,-0.94073486,0.27288818,-2.234375,1.984375,-2.109375
659,-0.064453125,-0.96661377,0.31854248,-0.078125,0.328125,-1.234375
660,-0.03540039,-0.94610596,0.27703857,-0.484375,2.296875,-0.34375
661,-0.041503906,-0.9619751,0.2868042,-0.1875,0.734375,1.21875
662,-0.045898438,-0.97540283,0.2897339,-0.53125,1.46875,0.515625
663,-0.052246094,-0.97662354,0.2723999,0.328125,0.71875,-0.359375
664,-0.06689453,-0.9937134,0.2748413,1.046875,0.59375,-1.84375
665,-0.0625,-0.973938,0.28778076,1.390625,-0.71875,-3.53125
666,-0.052734375,-0.9463501,0.29632568,2.3125,-1.578125,-1.265625
667,-0.083984375,-0.9817505,0.31658936,-0.71875,-2.6875,-0.984375
668,-0.024414062,-0.99346924,0.26287842,-4.125,-0.609375,-0.421875
669,-0.11035156,-0.95806885,0.29071045,-0.46875,-3.0625,0.390625
670,-0.033691406,-0.9417114,0.26727295,-1.15625,-2.21875,1.015625
671,-0.09887695,-0.97198486,0.30926514,-2.046875,-2.96875,2.390625
672,-0.064941406,-0.96759033,0.2994995,-0.59375,-0.578125,1.015625
673,-0.04638672,-0.95513916,0.25579834,0.796875,-2.78125,1.453125
674,-0.0234375,-0.95513916,0.28045654,0.609375,0.359375,0.78125
675,-0.047607422,-0.96759033,0.26507568,-1.046875,-0.1875,0.34375
676,-0.03881836,-0.97735596,0.2736206,-0.390625,0.078125,0.53125
677,-0.07861328,-0.98931885,0.293396,0.0625,-0.25,0.40625
678,-0.043701172,-0.9714966,0.27679443,-0.828125,0.09375,0.6875
679,-0.056152344,-0.95928955,0.27337646,0.484375,-1.65625,-1.34375
680,-0.040527344,-0.96417236,0.28167725,0.171875,-1.4375,-1.125
681,-0.043701172,-0.9612427,0.2838745,-0.234375,-1.59375,-0.71875
682,-0.04663086,-0.96295166,0.2789917,0.171875,-1.203125,-0.1875
683,-0.06958008,-0.98809814,0.31536865,0.609375,-2.296875,-0.453125
684,-0.06323242,-0.96661377,0.28240967,-0.84375,0.0625,-0.28125
685,-0.072753906,-0.9692993,0.2897339,-0.125,-1.046875,-0.46875
686,-0.05883789,-0.9602661,0.26263428,-0.546875,-0.828125,0.265625
687,-0.03857422,-0.9746704,0.26531982,-2.5,-2.40625,-1.15625
688,-0.06762695,-0.95147705,0.29022217,-0.1875,-0.25,-2.453125
689,-0.083496094,-0.98638916,0.3012085,0.703125,1.15625,-0.890625
690,-0.056396484,-0.9644165,0.28289795,1.21875,1.765625,0.515625
691,-0.060791016,-0.96343994,0.27947998,1.15625,2.453125,-1.390625
692,-0.07788086,-0.9644165,0.27630615,3.140625,-0.5625,-1.734375
693,-0.08618164,-0.94610596,0.26556396,1.609375,-2.03125,-1.59375
694,-0.05834961,-0.987854,0.24188232,-0.296875,-1.46875,-1.578125
695,-0.059814453,-0.97906494,0.28753662,-2.3125,-2.6875,-1.890625
696,-0.10107422,-0.96051025,0.3209839,-5.546875,-0.40625,-1.484375
697,-0.088134766,-0.99346924,0.27703857,-5.84375,1.234375,-0.6875
698,-0.10473633,-0.95758057,0.29608154,-3.640625,-0.640625,-0.640625
699,-0.056396484,-0.9627075,0.29559326,-0.78125,-2.125,0.0625
700,-0.049804688,-0.94073486,0.27972412,1.109375,-3.390625,1.9375
701,-0.072509766,-0.9434204,0.27166748,-0.265625,-1.53125,0.984375
702,-0.048339844,-0.94122314,0.27679443,0.984375,-2.734375,2.484375
703,-0.09399414,-1.00177,0.2999878,-0.1875,-3.0,0.078125
704,-0.07446289,-0.95806885,0.27142334,0.03125,-1.296875,0.265625
705,-0.083740234,-0.96343994,0.28729248,0.40625,-1.359375,0.453125
706,-0.0715332,-0.97491455,0.27996826,0.328125,-1.1875,0.546875
707,-0.0847168,-0.96173096,0.2831421,0.421875,-0.359375,0.28125
708,-0.091796875,-0.98028564,0.293396,0.171875,-0.734375,0.59375
709,-0.072021484,-0.95025635,0.28485107,-0.34375,-0.296875,0.25
710,-0.08203125,-0.96954346,0.29144287,-0.5,-1.109375,0.375
711,-0.068359375,-0.9680786,0.27313232,-0.59375,-1.296875,1.0625
712,-0.07788086,-0.9751587,0.2826538,-0.265625,-0.75,0.84375
713,-0.06347656,-0.96466064,0.26849365,-0.78125,-0.203125,0.171875
714,-0.07788086,-0.9758911,0.26239014,-0.953125,-0.265625,0.09375
715,-0.05810547,-0.9483032,0.27752686,0.953125,-1.328125,-0.125
716,-0.0625,-0.97540283,0.27191162,-1.203125,0.015625,0.21875
717,-0.06982422,-0.9673462,0.27703857,-0.734375,-0.296875,0.25
718,-0.07397461,-0.9661255,0.29803467,-0.84375,-1.140625,-0.296875
719,-0.07763672,-0.9873657,0.2687378,-1.453125,-1.84375,0.171875
720,-0.0690918,-0.9487915,0.30145264,-0.1875,-0.515625,-0.015625
721,-0.076171875,-1.0171509,0.31219482,-4.671875,4.71875,-0.609375
722,-0.06323242,-0.940979,0.3065796,-4.609375,4.453125,-0.234375
723,-0.096191406,-0.96759033,0.27191162,-0.625,0.484375,-0.6875
724,-0.044921875,-0.9343872,0.28607178,1.828125,-3.09375,0.0625
725,-0.0847168,-0.9697876,0.27972412,0.15625,-2.796875,0.125
726,-0.060546875,-0.93756104,0.277771,-0.421875,-2.40625,-0.078125
727,-0.088378906,-0.9741821,0.2831421,0.578125,-3.484375,0.03125
728,-0.06298828,-0.96295166,0.27923584,0.90625,-1.796875,0.53125
729,-0.071777344,-0.9741821,0.29119873,0.859375,-1.859375,0.3125
730,-0.055419922,-0.96417236,0.27679443,0.578125,-1.65625,1.109375
731,-0.07128906,-0.9612427,0.2748413,-0.796875,-0.625,0.71875
732,-0.078125,-0.98028564,0.3024292,-0.640625,-0.390625,0.53125
733,-0.076660156,-0.96417236,0.2819214,-0.6875,-0.984375,0.75
734,-0.06616211,-0.972229,0.28485107,-0.859375,-1.53125,-0.453125
735,-0.07128906,-0.9717407,0.28826904,-1.796875,0.796875,-0.421875
736,-0.09277344,-0.9661255,0.28851318,0.265625,-1.796875,0.140625
737,-0.044433594,-0.95928955,0.27508545,-0.609375,-0.4375,-0.21875
738,-0.07397461,-0.97003174,0.2909546,0.125,-0.640625,0.125
739,-0.080566406,-0.9702759,0.29022217,-0.390625,-0.890625,-0.25
740,-0.071777344,-0.95147705,0.2765503,-0.609375,-0.875,-0.3125
741,-0.063964844,-0.95806885,0.27850342,-0.484375,-0.375,0.265625
742,-0.076171875,-0.9741821,0.2982788,0.15625,-0.546875,0.234375
743,-0.07788086,-0.973938,0.30413818,-2.03125,1.421875,0.625
744,-0.030029297,-0.9429321,0.31243896,-4.0,3.3125,0.15625
745,-0.067871094,-0.96832275,0.26678467,-4.59375,-1.328125,-1.75
746,-0.09741211,-0.9624634,0.30145264,1.640625,-5.109375,-0.421875
747,-0.08959961,-0.9793091,0.29437256,0.53125,-2.15625,1.0
748,-0.068359375,-0.9277954,0.26287842,0.203125,-2.859375,0.296875
749,-0.067871094,-0.9939575,0.31072998,0.4375,-2.484375,0.359375
750,-0.06958008,-0.95440674,0.2826538,1.53125,-1.796875,1.296875
751,-0.068847656,-0.9607544,0.27850342,0.296875,-0.953125,0.09375
752,-0.068603516,-0.958313,0.28460693,0.03125,-1.296875,0.1875
753,-0.06640625,-0.9673462,0.29071045,0.265625,-1.109375,0.109375
