sample_no,accel_x,accel_y,accel_z,gyro_x,gyro_y,gyro_z
0,0.17333984,-0.9685669,0.15325928,0.390625,-0.453125,0.09375
1,0.1965332,-0.9500122,0.1564331,-1.09375,-0.125,-0.0625
2,0.1496582,-0.9636841,0.17352295,-0.859375,0.421875,-0.03125
3,0.15795898,-0.9817505,0.16741943,-1.953125,3.671875,0.3125
4,0.1694336,-0.94073486,0.17156982,0.15625,4.0,0.21875
5,0.19140625,-0.9649048,0.17425537,-1.234375,6.609375,0.359375
6,0.20361328,-0.96051025,0.16546631,-0.265625,4.453125,-0.4375
7,0.20385742,-0.95880127,0.1564331,-1.78125,4.78125,-0.421875
8,0.23217773,-0.9607544,0.15985107,2.0,2.625,-1.015625
9,0.24536133,-0.9741821,0.13372803,-0.015625,1.328125,-1.109375
10,0.19384766,-0.944397,0.14593506,2.421875,-3.375,-0.71875
11,0.18164062,-0.9607544,0.13079834,0.890625,-4.1875,1.0
12,0.22094727,-0.95806885,0.15106201,1.75,-4.515625,1.234375
13,0.1887207,-0.9644165,0.13153076,0.234375,-7.46875,1.359375
14,0.1628418,-0.95318604,0.15447998,-2.109375,-5.28125,1.234375
15,0.18701172,-0.97857666,0.17449951,-0.078125,-1.09375,0.703125
16,0.21240234,-0.9915161,0.17425537,-0.96875,-2.765625,-0.078125
17,0.10839844,-0.9360962,0.1552124,-1.53125,-2.984375,-0.578125
18,0.13891602,-0.9692993,0.16766357,-3.25,4.3125,-0.671875
19,0.20263672,-0.9937134,0.18841553,-0.953125,6.65625,0.234375
20,0.21166992,-0.92755127,0.19134521,0.484375,2.84375,-1.4375
21,0.18457031,-0.95928955,0.16375732,0.0,2.796875,-0.21875
22,0.19067383,-0.9824829,0.15008545,0.0,3.421875,-0.4375
23,0.21899414,-0.93878174,0.1552124,-0.1875,1.75,-1.328125
24,0.19726562,-0.9649048,0.17303467,1.0625,-0.71875,0.953125
25,0.17700195,-0.9663696,0.14642334,0.234375,-0.25,-0.15625
26,0.19140625,-0.96295166,0.14788818,0.78125,-1.3125,0.78125
27,0.18481445,-0.96099854,0.17181396,-0.671875,-0.8125,0.1875
28,0.1796875,-0.9470825,0.14959717,0.34375,-1.46875,0.5625
29,0.17114258,-0.9680786,0.16619873,0.1875,0.34375,1.28125
30,0.18359375,-0.9710083,0.16815186,1.28125,0.28125,0.859375
31,0.17626953,-0.9649048,0.16693115,0.90625,0.984375,-0.078125
32,0.19604492,-0.9512329,0.15985107,0.96875,0.296875,0.046875
33,0.20117188,-0.95880127,0.16082764,0.9375,-0.6875,0.109375
34,0.17919922,-0.9717407,0.1515503,-0.328125,-1.03125,-0.34375
35,0.16918945,-0.96588135,0.18060303,2.46875,-0.109375,0.296875
36,0.19433594,-0.9685669,0.14324951,-1.5,1.578125,-1.015625
37,0.1809082,-0.9595337,0.16400146,1.09375,1.0,0.59375
38,0.16577148,-0.9793091,0.15863037,-0.359375,1.484375,0.609375
39,0.19018555,-0.9602661,0.15985107,0.390625,0.90625,-0.5625
40,0.19311523,-0.960022,0.15447998,-0.765625,-0.03125,0.28125
41,0.2121582,-0.9710083,0.15789795,-1.078125,-0.734375,-1.171875
42,0.20214844,-0.9495239,0.14398193,-0.015625,-3.234375,0.03125
43,0.15844727,-0.958313,0.16375732,-1.015625,-3.34375,0.890625
44,0.1730957,-0.9663696,0.16522217,-1.078125,-3.34375,0.3125
45,0.16967773,-0.960022,0.16595459,0.15625,-3.171875,0.796875
46,0.1730957,-0.9663696,0.16156006,-0.578125,-2.59375,1.015625
47,0.18432617,-0.95269775,0.15911865,-0.734375,-2.078125,0.359375
48,0.17944336,-0.97369385,0.17376709,0.734375,-0.9375,0.546875
49,0.19213867,-0.97735596,0.17425537,1.34375,-2.265625,0.078125
50,0.18676758,-0.9446411,0.15130615,-3.453125,-1.40625,-1.046875
51,0.18286133,-0.9612427,0.17694092,0.71875,-1.28125,0.046875
52,0.1796875,-0.97491455,0.17767334,0.140625,-1.546875,0.5
53,0.1743164,-0.95562744,0.1630249,0.34375,-1.8125,0.5625
54,0.18798828,-0.96539307,0.17474365,1.171875,-0.28125,0.578125
55,0.20166016,-0.9678345,0.17938232,0.28125,-1.171875,0.359375
56,0.17089844,-0.95928955,0.16790771,1.453125,-1.046875,-0.015625
57,0.17700195,-0.9578247,0.16156006,1.09375,0.15625,0.171875
58,0.20336914,-0.9663696,0.16595459,-0.09375,0.90625,-0.390625
59,0.17578125,-0.97442627,0.16522217,0.375,-0.859375,0.671875
60,0.171875,-0.96099854,0.15472412,-0.609375,1.46875,0.0
61,0.20141602,-0.9507446,0.16888428,0.375,1.0625,-0.03125
62,0.19165039,-0.96954346,0.15789795,-1.140625,0.359375,-0.578125
63,0.18945312,-0.9627075,0.17034912,2.296875,-0.78125,-0.328125
64,0.18261719,-0.96173096,0.15887451,-2.984375,0.984375,-0.96875
65,0.18969727,-0.9780884,0.17913818,0.953125,0.515625,-0.078125
66,0.18164062,-0.958313,0.16473389,-0.078125,-0.9375,-0.6875
67,0.17358398,-0.95635986,0.14129639,-1.40625,-0.75,0.625
68,0.20214844,-0.9680786,0.1762085,0.40625,0.046875,-0.28125
69,0.19213867,-0.96539307,0.17254639,0.390625,-1.328125,0.578125
70,0.14990234,-0.95635986,0.15057373,-0.421875,0.078125,0.34375
71,0.1928711,-0.97320557,0.15838623,-0.359375,0.78125,-0.34375
72,0.18969727,-0.9690552,0.1593628,-0.296875,0.03125,-0.75
73,0.1821289,-0.9546509,0.15765381,-0.59375,0.484375,-0.1875
74,0.18896484,-0.9404907,0.17791748,-0.203125,1.0625,-0.375
75,0.16137695,-0.9776001,0.16253662,-1.09375,0.59375,-0.21875
76,0.18823242,-0.9741821,0.15838623,-1.328125,1.28125,-1.046875
77,0.17675781,-0.95635986,0.18450928,3.984375,0.5,0.484375
78,0.18310547,-0.94781494,0.1486206,-3.265625,1.640625,-0.0625
79,0.1743164,-0.9663696,0.17718506,0.4375,1.390625,0.953125
80,0.17504883,-0.9819946,0.18328857,-0.28125,1.015625,0.171875
81,0.1772461,-0.95880127,0.16082764,-0.234375,0.5625,0.953125
82,0.19067383,-0.9673462,0.17449951,-0.25,0.96875,0.65625
83,0.19921875,-0.97052,0.16107178,-0.28125,-0.125,0.46875
84,0.18408203,-0.9505005,0.16448975,-0.21875,-0.34375,0.046875
85,0.16967773,-0.95928955,0.16986084,2.5,0.0625,1.15625
86,0.1694336,-0.9673462,0.15985107,0.78125,-0.671875,1.703125
87,0.20214844,-0.954895,0.16766357,1.6875,0.1875,0.328125
88,0.17749023,-0.9636841,0.1630249,0.71875,-0.34375,1.25
89,0.18896484,-0.9619751,0.1618042,0.625,0.28125,0.734375
90,0.18041992,-0.9768677,0.15985107,1.421875,0.09375,1.171875
91,0.18383789,-0.95977783,0.17718506,2.546875,-0.5,0.84375
92,0.19091797,-0.9751587,0.14544678,-1.65625,0.453125,0.328125
93,0.17138672,-0.9680786,0.16766357,-0.078125,1.59375,-0.046875
94,0.18701172,-0.9746704,0.15545654,-0.828125,0.78125,-0.09375
95,0.19018555,-0.96221924,0.15789795,-0.25,1.5625,-0.734375
96,0.1899414,-0.96173096,0.15472412,-0.96875,1.03125,-0.75
97,0.18408203,-0.95977783,0.1486206,-0.484375,0.328125,-0.0625
98,0.18481445,-0.95562744,0.1539917,0.09375,0.734375,-0.484375
99,0.18969727,-0.96954346,0.15887451,0.4375,0.40625,0.0
100,0.1784668,-0.9536743,0.14642334,0.546875,0.078125,0.875
101,0.18896484,-0.96051025,0.15838623,-0.171875,0.984375,0.671875
102,0.19897461,-0.97076416,0.14642334,-0.296875,1.015625,0.65625
103,0.18945312,-0.9524536,0.15594482,-0.1875,0.46875,0.96875
104,0.18408203,-0.960022,0.15887451,0.40625,0.328125,1.484375
105,0.20263672,-0.9627075,0.1552124,-0.796875,0.765625,-0.125
106,0.18847656,-0.9668579,0.14813232,0.28125,-0.9375,0.3125
107,0.19189453,-0.95513916,0.14569092,-0.765625,-1.015625,-0.28125
108,0.18359375,-0.96881104,0.1593628,-0.078125,-0.828125,0.359375
109,0.20288086,-0.95635986,0.16204834,0.4375,-1.640625,-0.796875
110,0.18774414,-0.96539307,0.16107178,0.25,-2.703125,0.375
111,0.18896484,-0.9661255,0.16278076,0.6875,-3.15625,-0.3125
112,0.18774414,-0.9614868,0.1618042,-1.09375,-3.65625,1.15625
113,0.17993164,-0.96466064,0.17181396,-0.671875,-3.390625,1.015625
114,0.19262695,-0.96051025,0.16253662,-0.984375,-2.359375,0.921875
115,0.18969727,-0.97052,0.17913818,0.28125,-2.84375,0.625
116,0.20092773,-0.9483032,0.15545654,1.171875,-3.71875,-0.078125
117,0.18579102,-0.9585571,0.16400146,0.25,-2.890625,0.765625
118,0.17993164,-0.96710205,0.16400146,-0.96875,-2.34375,0.578125
119,0.18920898,-0.9680786,0.16522217,0.921875,-2.328125,-0.21875
120,0.21044922,-0.9348755,0.17449951,0.953125,-1.15625,0.03125
121,0.17919922,-0.9883423,0.14569092,-0.265625,-1.640625,1.0625
122,0.2019043,-0.9434204,0.15985107,-1.640625,-0.78125,-1.15625
123,0.18725586,-0.9746704,0.17694092,1.671875,-0.953125,0.40625
124,0.18896484,-0.94073486,0.17230225,-0.421875,-1.03125,-0.75
125,0.19311523,-0.97125244,0.17059326,-0.421875,-1.0625,0.15625
126,0.20166016,-0.9746704,0.16619873,0.578125,-2.015625,-0.09375
127,0.1796875,-0.9624634,0.1539917,0.0625,-1.828125,0.328125
128,0.20117188,-0.94854736,0.18206787,-1.453125,-0.390625,-0.390625
129,0.17285156,-0.9624634,0.16766357,0.296875,-1.484375,0.5625
130,0.20922852,-0.95562744,0.16522217,0.90625,-0.21875,-0.0625
131,0.18530273,-0.97052,0.17132568,0.4375,-1.109375,0.65625
132,0.17480469,-0.9644165,0.17254639,-0.03125,-0.828125,-0.140625
133,0.19604492,-0.9541626,0.17718506,-1.625,0.421875,-0.15625
134,0.1850586,-0.9751587,0.15960693,-1.5,-1.046875,0.703125
135,0.18432617,-0.9614868,0.1918335,2.0625,-0.59375,-0.5
136,0.1965332,-0.95391846,0.13543701,-4.4375,-0.234375,-0.203125
137,0.19628906,-0.9602661,0.19207764,0.5625,0.40625,-0.375
138,0.1796875,-0.96221924,0.18133545,0.140625,-0.171875,-0.578125
139,0.19628906,-0.9421997,0.18157959,-1.28125,1.203125,-0.5
140,0.17529297,-0.96295166,0.17913818,0.390625,-0.203125,0.953125
141,0.1887207,-0.96343994,0.18255615,-0.625,0.265625,0.09375
142,0.19067383,-0.95928955,0.16351318,-1.875,0.6875,0.15625
143,0.18725586,-0.9624634,0.19207764,0.140625,0.578125,0.40625
144,0.18945312,-0.9651489,0.17938232,0.40625,0.265625,0.15625
145,0.18725586,-0.9553833,0.1852417,0.046875,0.359375,-0.125
146,0.18017578,-0.9758911,0.18206787,1.421875,1.203125,0.484375
147,0.18969727,-0.9656372,0.17962646,1.875,1.125,-0.046875
148,0.1887207,-0.9421997,0.17572021,4.09375,2.0,0.828125
149,0.19018555,-0.96221924,0.16619873,2.484375,2.421875,0.375
150,0.19238281,-0.98809814,0.17425537,2.328125,1.8125,0.203125
151,0.203125,-0.94659424,0.14593506,-1.296875,1.53125,-0.625
152,0.17504883,-0.96173096,0.16351318,3.984375,1.796875,1.328125
153,0.19360352,-0.95977783,0.16351318,4.375,0.796875,0.546875
154,0.18286133,-0.96588135,0.14251709,1.4375,0.953125,1.25
155,0.18701172,-0.97369385,0.14300537,0.234375,1.484375,0.453125
156,0.20239258,-0.9553833,0.1437378,-0.625,0.359375,-0.0625
157,0.1928711,-0.9614868,0.15789795,-1.09375,1.015625,0.5
158,0.18969727,-0.9702759,0.15911865,-0.765625,0.625,0.296875
159,0.18603516,-0.95806885,0.14569092,-0.984375,0.265625,-0.046875
160,0.18945312,-0.9636841,0.14764404,-1.15625,0.4375,0.15625
161,0.1940918,-0.9668579,0.15057373,-0.953125,0.734375,0.515625
162,0.1887207,-0.94415283,0.15228271,0.59375,-0.234375,0.4375
163,0.18896484,-0.96051025,0.15423584,-1.078125,1.421875,-0.078125
164,0.20117188,-0.9841919,0.15374756,0.0625,0.234375,0.125
165,0.19580078,-0.9356079,0.14715576,-2.234375,-0.78125,-1.3125
166,0.18408203,-0.9680786,0.15106201,-0.65625,-0.4375,1.03125
167,0.2084961,-0.9517212,0.15594482,-0.3125,0.28125,-0.546875
168,0.19311523,-0.96661377,0.15667725,-0.203125,-0.765625,0.734375
169,0.18457031,-0.9692993,0.15716553,-0.359375,-0.828125,0.453125
170,0.203125,-0.9590454,0.1437378,-1.359375,-0.40625,-0.03125
171,0.19702148,-0.96343994,0.16668701,-0.484375,-0.296875,0.21875
172,0.20288086,-0.9685669,0.15423584,-0.53125,-0.828125,0.0
173,0.19848633,-0.95440674,0.15545654,-0.71875,-1.328125,0.0625
174,0.18701172,-0.96221924,0.16522217,-1.40625,-1.15625,0.5
175,0.1977539,-0.9685669,0.15887451,-1.25,-1.53125,0.21875
176,0.1977539,-0.9421997,0.17816162,0.546875,-2.375,0.65625
177,0.1953125,-0.960022,0.15325928,-2.109375,-1.640625,0.734375
178,0.2133789,-0.9751587,0.17059326,0.5,-2.265625,0.84375
179,0.20336914,-0.94732666,0.16204834,-1.421875,-2.46875,-0.0625
180,0.18286133,-0.97369385,0.18426514,0.96875,-2.375,0.71875
181,0.18896484,-0.9649048,0.16815186,-0.71875,-2.171875,0.0
182,0.20166016,-0.95269775,0.16375732,-1.34375,-2.21875,0.96875
183,0.1977539,-0.9607544,0.18133545,-0.640625,-2.234375,0.484375
184,0.20703125,-0.9553833,0.17254639,-0.78125,-2.484375,0.078125
185,0.19335938,-0.95928955,0.17449951,-0.671875,-2.109375,-0.5
186,0.19018555,-0.96099854,0.17669678,0.65625,-1.734375,-0.28125
187,0.20117188,-0.9558716,0.17572021,0.0625,-1.78125,-0.625
188,0.18334961,-0.95440674,0.17108154,0.109375,-1.5,0.3125
189,0.1862793,-0.96710205,0.18597412,0.296875,-1.34375,0.53125
190,0.1850586,-0.9378052,0.1864624,0.765625,-1.78125,0.125
191,0.2043457,-0.9517212,0.16131592,-2.078125,-0.5,-0.703125
192,0.20019531,-0.9837036,0.17596436,1.109375,-2.4375,0.546875
193,0.19311523,-0.94195557,0.18377686,-0.484375,-0.75,-0.78125
194,0.17675781,-0.96099854,0.18572998,2.46875,-0.640625,0.78125
195,0.19677734,-0.95758057,0.17767334,-1.609375,-0.90625,-0.90625
196,0.1899414,-0.9746704,0.17352295,-1.1875,-0.859375,0.171875
197,0.17578125,-0.96881104,0.18743896,0.625,-0.921875,1.125
198,0.21655273,-0.9463501,0.1852417,-0.734375,-0.484375,-0.765625
199,0.16967773,-0.9639282,0.1864624,-0.1875,-1.203125,0.953125
200,0.19433594,-0.97198486,0.18353271,0.140625,-1.375,-0.328125
201,0.19165039,-0.956604,0.18499756,0.203125,-1.4375,-0.296875
202,0.18774414,-0.9553833,0.18035889,0.078125,-1.359375,-0.234375
203,0.1850586,-0.9570923,0.18719482,0.140625,-0.96875,0.5625
204,0.18969727,-0.96051025,0.19891357,1.65625,-0.671875,0.328125
205,0.18945312,-0.9468384,0.17327881,-1.703125,0.109375,-0.0625
206,0.19140625,-0.97491455,0.17059326,0.8125,-1.796875,0.921875
207,0.20483398,-0.940979,0.18353271,-1.71875,-0.28125,-1.296875
208,0.17529297,-0.9614868,0.19476318,2.765625,-0.375,1.03125
209,0.18188477,-0.95513916,0.18426514,-1.296875,-0.90625,-0.5
210,0.18676758,-0.97076416,0.1930542,-0.609375,0.0,0.1875
211,0.19238281,-0.9570923,0.19012451,0.125,-1.4375,-0.109375
212,0.1743164,-0.9661255,0.18499756,-0.484375,-1.0,0.078125
213,0.18798828,-0.9573364,0.17816162,-0.046875,-0.09375,-0.140625
214,0.17749023,-0.9553833,0.19036865,0.03125,0.359375,0.109375
215,0.18432617,-0.9649048,0.18817139,-0.34375,0.765625,-0.15625
216,0.19140625,-0.9553833,0.19647217,0.203125,1.265625,0.265625
217,0.17871094,-0.9517212,0.17181396,-0.84375,2.078125,0.21875
218,0.19238281,-0.9780884,0.18988037,0.953125,1.234375,0.546875
219,0.19433594,-0.9434204,0.19207764,0.28125,0.5625,-0.421875
220,0.19433594,-0.9619751,0.17132568,-1.296875,0.71875,0.125
221,0.19384766,-0.9463501,0.17962646,-0.875,1.40625,-0.21875
222,0.17016602,-0.9837036,0.20550537,2.453125,0.59375,0.421875
223,0.19970703,-0.94610596,0.17230225,-0.90625,1.90625,-0.796875
224,0.1953125,-0.9536743,0.18060303,-1.3125,0.6875,0.453125
225,0.18383789,-0.9734497,0.19451904,-0.390625,0.78125,-0.140625
226,0.1953125,-0.9500122,0.17767334,0.890625,-0.109375,0.046875
227,0.17822266,-0.9619751,0.19085693,2.3125,-0.015625,0.8125
228,0.17797852,-0.9578247,0.1798706,1.140625,-0.078125,0.453125
229,0.18725586,-0.96661377,0.18035889,2.046875,0.859375,0.46875
230,0.18676758,-0.94488525,0.16448975,0.859375,-0.515625,0.34375
231,0.18164062,-0.96295166,0.17596436,-0.078125,1.140625,0.765625
232,0.19921875,-0.98101807,0.17840576,-0.25,0.671875,-0.5
233,0.19458008,-0.9480591,0.19451904,2.78125,-1.25,0.046875
234,0.18457031,-0.95928955,0.15814209,-2.21875,0.453125,-0.375
235,0.18457031,-0.95269775,0.18109131,1.5,0.421875,0.15625
236,0.17993164,-0.98028564,0.17449951,-0.203125,-0.078125,1.0
237,0.1875,-0.9421997,0.16864014,0.0,0.5625,-0.328125
238,0.18115234,-0.9678345,0.17889404,0.859375,1.078125,0.546875
239,0.19824219,-0.9649048,0.17669678,-0.078125,0.734375,-0.1875
240,0.19897461,-0.95391846,0.1618042,0.359375,0.4375,0.4375
241,0.18432617,-0.9793091,0.17010498,0.96875,0.4375,0.8125
242,0.19628906,-0.954895,0.15814209,0.109375,0.671875,-0.1875
243,0.1887207,-0.9480591,0.16351318,-0.140625,0.109375,1.234375
244,0.19360352,-0.975647,0.16766357,-0.828125,1.515625,0.34375
245,0.19873047,-0.9639282,0.1720581,0.484375,1.046875,-0.40625
246,0.21386719,-0.93951416,0.16278076,-0.890625,1.09375,-0.6875
247,0.19604492,-0.9685669,0.16571045,2.5625,-0.796875,1.5
248,0.18603516,-0.9541626,0.16375732,-0.46875,-0.671875,-0.625
249,0.17700195,-0.96759033,0.17181396,0.734375,0.1875,1.234375
250,0.20336914,-0.9649048,0.1642456,-0.9375,1.21875,-0.296875
251,0.2055664,-0.9546509,0.16278076,0.109375,-0.046875,0.421875
252,0.19824219,-0.96221924,0.16741943,-1.15625,-0.328125,0.3125
253,0.203125,-0.960022,0.15911865,-0.5,-1.09375,0.3125
254,0.18774414,-0.97320557,0.17840576,-0.171875,-0.75,0.765625
255,0.19970703,-0.96221924,0.16375732,-0.078125,-1.109375,0.03125
256,0.20239258,-0.94073486,0.15814209,-0.140625,-1.578125,0.46875
257,0.1875,-0.96661377,0.16790771,-0.546875,-1.078125,1.0625
258,0.20532227,-0.9795532,0.16497803,-0.796875,-0.3125,-0.5
259,0.20654297,-0.9470825,0.16571045,0.78125,-1.65625,0.109375
260,0.18774414,-0.9585571,0.18890381,1.640625,-1.53125,1.0625
261,0.20288086,-0.96832275,0.15545654,-1.53125,-1.375,0.203125
262,0.1875,-0.95806885,0.16595459,0.34375,-1.171875,0.125
263,0.20166016,-0.96710205,0.17181396,0.109375,-1.15625,0.6875
264,0.2019043,-0.960022,0.16937256,-0.375,-0.6875,0.03125
265,0.19091797,-0.9458618,0.18231201,-0.46875,-1.5625,0.53125
266,0.20288086,-0.9678345,0.1762085,0.203125,-1.921875,0.875
267,0.19482422,-0.96099854,0.17645264,0.03125,-2.09375,0.21875
268,0.19824219,-0.95318604,0.17840576,1.234375,-1.890625,0.53125
269,0.19604492,-0.9468384,0.16619873,0.0,-2.71875,1.1875
270,0.1875,-0.9915161,0.17889404,-0.015625,-1.40625,0.0625
271,0.21582031,-0.954895,0.17230225,0.40625,-1.78125,-0.203125
272,0.18041992,-0.9524536,0.16888428,0.109375,-1.28125,0.25
273,0.20678711,-0.96417236,0.17254639,-1.375,-0.65625,-0.71875
274,0.19482422,-0.96954346,0.18450928,2.15625,-2.953125,0.59375
275,0.19726562,-0.9414673,0.16473389,-2.859375,-0.9375,-0.65625
276,0.18774414,-0.9590454,0.19256592,0.625,-1.4375,0.8125
277,0.18701172,-0.9663696,0.17523193,-0.46875,-1.375,-0.609375
278,0.21191406,-0.9495239,0.17230225,-0.3125,-1.265625,-0.890625
279,0.18798828,-0.98150635,0.18353271,0.625,-1.734375,0.46875
280,0.19824219,-0.94659424,0.17962646,-0.53125,-1.71875,-0.9375
281,0.18603516,-0.95440674,0.17156982,-0.203125,-1.0625,0.21875
282,0.1899414,-0.95391846,0.18548584,0.109375,-1.34375,0.21875
283,0.18701172,-0.9602661,0.16986084,0.03125,-1.390625,-0.234375
284,0.20239258,-0.96466064,0.1786499,0.078125,-0.96875,-0.484375
285,0.19238281,-0.95147705,0.17718506,0.984375,-0.6875,0.234375
286,0.1887207,-0.958313,0.18939209,1.390625,-0.625,0.015625
287,0.19360352,-0.94415283,0.19598389,-0.171875,0.046875,-1.0
288,0.1862793,-0.97979736,0.15228271,-2.046875,-0.609375,0.078125
289,0.18798828,-0.95147705,0.19281006,0.140625,0.03125,0.296875
290,0.19067383,-0.96759033,0.19232178,-0.03125,0.328125,-0.125
291,0.18652344,-0.9475708,0.17572021,-0.953125,-0.234375,-0.515625
292,0.1850586,-0.96417236,0.17791748,0.453125,1.359375,0.484375
293,0.1953125,-0.9614868,0.18743896,0.171875,0.21875,-0.46875
294,0.17993164,-0.9522095,0.17547607,-1.203125,0.0,-0.5
295,0.1784668,-0.9573364,0.18499756,-0.328125,0.921875,0.171875
296,0.18188477,-0.95684814,0.1942749,0.484375,0.5,-0.140625
297,0.18603516,-0.9585571,0.18450928,0.15625,0.5,-0.078125
298,0.19116211,-0.96343994,0.184021,-0.375,0.421875,-0.234375
299,0.18676758,-0.9680786,0.18231201,-0.515625,0.171875,-0.578125
300,0.18457031,-0.9680786,0.17352295,-0.328125,0.15625,-0.1875
301,0.1862793,-0.9661255,0.20379639,3.1875,-0.59375,0.71875
302,0.19311523,-0.9570923,0.16253662,-3.75,0.484375,-0.734375
303,0.17333984,-0.95758057,0.19354248,1.6875,0.546875,0.71875
304,0.17895508,-0.97320557,0.18133545,-1.015625,0.78125,0.171875
305,0.19262695,-0.95684814,0.17596436,0.015625,0.484375,0.109375
306,0.17895508,-0.96173096,0.18719482,0.546875,0.96875,0.59375
307,0.1940918,-0.9639282,0.18695068,-0.625,0.65625,-0.25
308,0.17944336,-0.96710205,0.1762085,1.015625,0.625,-0.234375
309,0.19018555,-0.9624634,0.18011475,1.140625,0.484375,-0.640625
310,0.2121582,-0.9558716,0.17352295,-0.890625,0.09375,-1.640625
311,0.1809082,-0.9573364,0.17669678,-0.265625,-0.515625,-0.34375
312,0.18530273,-0.97491455,0.18035889,-0.578125,0.71875,-0.4375
313,0.1899414,-0.96173096,0.18231201,1.359375,-0.875,0.421875
314,0.1706543,-0.95269775,0.18084717,0.09375,0.953125,0.015625
315,0.18945312,-0.97442627,0.16400146,-0.21875,1.03125,0.796875
316,0.17822266,-0.95928955,0.17596436,-0.28125,1.609375,0.0625
317,0.19018555,-0.97369385,0.18695068,0.03125,1.421875,-0.078125
318,0.19995117,-0.9517212,0.17254639,-0.1875,0.59375,-0.3125
319,0.18945312,-0.96173096,0.17791748,-1.171875,-0.015625,-0.671875
320,0.18530273,-0.96343994,0.18035889,-0.921875,-1.1875,-0.234375
321,0.17993164,-0.9631958,0.18084717,-0.515625,-1.3125,-0.609375
322,0.1850586,-0.9585571,0.18328857,-0.078125,-1.203125,-0.015625
323,0.16430664,-0.9746704,0.18377686,0.203125,-1.03125,0.734375
324,0.18139648,-0.9573364,0.17913818,0.1875,-0.453125,-0.25
325,0.19458008,-0.9631958,0.18109131,0.15625,-0.65625,0.171875
326,0.17651367,-0.96221924,0.17791748,-0.09375,-1.765625,0.375
327,0.18334961,-0.9890747,0.18353271,-0.515625,-2.03125,0.171875
328,0.18432617,-0.9529419,0.20428467,3.359375,-3.640625,0.265625
329,0.16772461,-0.9512329,0.16448975,-2.578125,-1.90625,-0.03125
330,0.17626953,-0.96343994,0.19891357,0.9375,-1.0,0.953125
331,0.16040039,-0.9834595,0.1942749,-0.046875,-1.40625,0.6875
332,0.18774414,-0.94317627,0.18597412,-0.625,-1.484375,-0.375
333,0.17651367,-0.96221924,0.19110107,0.328125,-1.90625,1.5
334,0.18920898,-0.9602661,0.19744873,-0.71875,-2.046875,0.25
335,0.18066406,-0.958313,0.18939209,0.578125,-2.28125,0.671875
336,0.18847656,-0.9585571,0.18597412,1.28125,-2.234375,0.46875
337,0.18652344,-0.96295166,0.1852417,1.15625,-2.0,0.546875
338,0.17041016,-0.96832275,0.18719482,0.46875,-1.671875,0.28125
339,0.18017578,-0.96954346,0.18255615,0.125,-1.25,-0.171875
340,0.18334961,-0.9351196,0.1876831,1.265625,-2.109375,0.5625
341,0.17919922,-0.96099854,0.18450928,-1.09375,-0.1875,0.078125
342,0.1862793,-0.97369385,0.1828003,0.96875,-2.84375,0.578125
343,0.1928711,-0.9446411,0.17913818,-1.328125,-0.90625,-0.390625
344,0.17089844,-0.96759033,0.19598389,2.546875,-0.984375,0.34375
345,0.18066406,-0.9624634,0.18255615,-0.03125,-0.71875,-0.796875
346,0.18896484,-0.9619751,0.1762085,-0.28125,-1.546875,0.046875
347,0.1784668,-0.9487915,0.18328857,-0.40625,-1.171875,-0.234375
348,0.18066406,-0.95806885,0.18499756,-0.25,-1.203125,-0.046875
349,0.18188477,-0.96832275,0.18231201,0.5625,-1.375,-0.03125
350,0.18432617,-0.9517212,0.17791748,0.765625,-1.484375,-0.140625
351,0.17749023,-0.96343994,0.18695068,0.359375,-0.484375,0.296875
352,0.17480469,-0.96221924,0.17962646,-0.3125,-0.578125,-0.171875
353,0.18139648,-0.9595337,0.18621826,0.375,0.265625,-0.109375
354,0.17163086,-0.9727173,0.18572998,0.625,-0.0625,0.578125
355,0.17675781,-0.956604,0.20794678,2.109375,-0.40625,-0.1875
356,0.18603516,-0.9612427,0.15496826,-3.609375,0.375,-0.578125
357,0.17260742,-0.9639282,0.19769287,0.203125,-0.015625,0.5625
358,0.17895508,-0.9692993,0.19598389,0.34375,0.28125,-0.484375
359,0.1694336,-0.95318604,0.17303467,-1.328125,-0.359375,-0.515625
360,0.171875,-0.95928955,0.1942749,-0.546875,0.6875,-0.140625
361,0.1821289,-0.9624634,0.19696045,0.0625,-0.28125,-0.46875
362,0.17236328,-0.95147705,0.17449951,-1.671875,-0.921875,-0.21875
363,0.17358398,-0.97906494,0.19744873,1.0,-0.75,1.125
364,0.17797852,-0.9690552,0.19012451,0.828125,-0.15625,0.109375
365,0.17041016,-0.9558716,0.18548584,0.28125,-0.015625,0.65625
366,0.17895508,-0.94610596,0.19232178,-0.28125,0.78125,0.203125
367,0.17285156,-0.96832275,0.18963623,-0.5,0.265625,0.8125
368,0.18164062,-0.9812622,0.18548584,-0.953125,0.015625,-0.234375
369,0.1772461,-0.95513916,0.21478271,3.75,-0.625,0.390625
370,0.17578125,-0.9512329,0.16009521,-4.03125,0.5,-0.765625
371,0.17651367,-0.96417236,0.2074585,1.734375,0.796875,0.15625
372,0.16333008,-0.96759033,0.1876831,-0.640625,-0.78125,-0.734375
373,0.18041992,-0.95513916,0.18841553,-0.4375,-0.6875,0.21875
374,0.17358398,-0.9595337,0.1942749,0.890625,-0.421875,0.359375
375,0.17993164,-0.954895,0.20306396,0.0,-0.890625,0.046875
376,0.17114258,-0.96588135,0.19525146,-0.015625,-0.421875,0.796875
377,0.1850586,-0.95928955,0.18572998,1.15625,-0.9375,0.171875
378,0.17260742,-0.95806885,0.19134521,0.671875,-0.5,0.5625
379,0.16235352,-0.9644165,0.17913818,-0.046875,-1.0,1.265625
380,0.1850586,-0.97076416,0.19378662,0.0,0.078125,-0.109375
381,0.18383789,-0.9536743,0.1942749,0.328125,-0.5,-0.265625
382,0.17382812,-0.95440674,0.17718506,-1.953125,0.921875,-0.3125
383,0.16674805,-0.9746704,0.18743896,1.734375,-1.421875,1.484375
384,0.19555664,-0.93927,0.18499756,-3.890625,1.171875,-2.21875
385,0.15722656,-0.97662354,0.20184326,1.03125,-0.296875,1.34375
386,0.18676758,-0.9573364,0.1918335,-0.375,-0.3125,-0.59375
387,0.16748047,-0.96954346,0.18499756,0.234375,-1.390625,1.078125
388,0.17089844,-0.9710083,0.20111084,0.3125,-0.453125,0.9375
389,0.17626953,-0.94976807,0.1828003,-0.8125,-1.078125,0.046875
390,0.1730957,-0.9661255,0.18914795,-0.59375,0.28125,0.359375
391,0.18701172,-0.9607544,0.19110107,0.921875,-0.40625,-0.078125
392,0.18237305,-0.95196533,0.19134521,-0.109375,-0.34375,-0.078125
393,0.17822266,-0.97247314,0.19573975,0.34375,-0.03125,-0.171875
394,0.16796875,-0.9656372,0.19500732,0.125,-0.234375,-0.578125
395,0.17700195,-0.96588135,0.19158936,1.609375,-0.859375,-0.03125
396,0.18652344,-0.9492798,0.1918335,-0.765625,0.140625,-0.921875
397,0.17114258,-0.9661255,0.18011475,-0.140625,-0.5,0.4375
398,0.17700195,-0.94854736,0.1828003,-1.75,0.640625,-0.578125
399,0.16796875,-0.97784424,0.20526123,0.984375,-0.328125,0.390625
400,0.1772461,-0.9463501,0.19085693,-0.9375,-0.34375,-0.625
401,0.17700195,-0.96051025,0.19451904,-0.859375,-0.125,0.671875
402,0.16845703,-0.9690552,0.20184326,-0.21875,-0.796875,0.53125
403,0.17382812,-0.95098877,0.18719482,-0.890625,-0.640625,-0.203125
404,0.18432617,-0.9512329,0.19256592,0.328125,-0.8125,1.0
405,0.16918945,-0.97198486,0.1906128,0.453125,-1.0625,0.984375
406,0.17773438,-0.96221924,0.1930542,0.125,-0.609375,0.140625
407,0.17260742,-0.96588135,0.1906128,-0.03125,-0.03125,0.671875
408,0.18261719,-0.9546509,0.18743896,-0.234375,0.46875,0.40625
409,0.1784668,-0.9714966,0.18719482,2.171875,-0.15625,1.03125
410,0.1706543,-0.95562744,0.2020874,1.796875,0.421875,0.484375
411,0.18432617,-0.9624634,0.18475342,-0.40625,1.453125,0.46875
412,0.18237305,-0.95196533,0.18988037,0.046875,2.21875,0.109375
413,0.1694336,-0.9788208,0.19598389,1.296875,0.734375,0.765625
414,0.18969727,-0.9475708,0.18475342,0.265625,0.78125,-0.09375
415,0.18139648,-0.9546509,0.18914795,0.890625,0.6875,1.109375
416,0.19311523,-0.9619751,0.19403076,-0.96875,0.859375,0.0
417,0.18774414,-0.95684814,0.18597412,-0.15625,1.859375,-0.125
418,0.18481445,-0.95806885,0.19256592,2.171875,0.171875,0.265625
419,0.18603516,-0.9524536,0.17376709,-0.40625,1.140625,-0.625
420,0.18847656,-0.9595337,0.18304443,-1.046875,1.03125,0.046875
421,0.1706543,-0.9644165,0.1828003,0.78125,0.546875,0.046875
422,0.19750977,-0.95196533,0.18963623,0.078125,0.578125,-0.234375
423,0.17578125,-0.95928955,0.168396,-0.828125,0.953125,0.171875
424,0.18701172,-0.96661377,0.19500732,3.28125,-0.125,0.453125
425,0.1899414,-0.9570923,0.16766357,-1.375,0.53125,-0.71875
426,0.1796875,-0.9717407,0.20184326,1.28125,0.890625,0.390625
427,0.18237305,-0.9661255,0.17938232,-0.25,0.03125,-0.421875
428,0.20141602,-0.9492798,0.17791748,-0.390625,0.359375,0.359375
429,0.171875,-0.97125244,0.18011475,-0.296875,-0.03125,1.09375
430,0.19165039,-0.9595337,0.17425537,-0.78125,0.140625,-0.359375
431,0.17700195,-0.95977783,0.18304443,-0.640625,0.6875,0.359375
432,0.19506836,-0.96417236,0.1774292,-1.09375,0.234375,0.40625
433,0.18847656,-0.95635986,0.16473389,-2.25,0.03125,-0.75
434,0.1862793,-0.9741821,0.19403076,-1.625,1.734375,-0.4375
435,0.17407227,-0.98272705,0.16644287,2.84375,-3.421875,0.703125
436,0.19165039,-0.9534302,0.14227295,-4.4375,-2.234375,-2.359375
437,0.17773438,-0.9463501,0.16204834,-1.578125,-3.140625,-1.328125
438,0.18896484,-0.973938,0.14910889,-2.171875,-3.453125,-1.484375
439,0.19580078,-0.9524536,0.15716553,-2.984375,-2.921875,-2.671875
440,0.17602539,-0.9649048,0.16400146,-1.71875,-2.640625,-0.859375
441,0.15673828,-0.97369385,0.17254639,-1.59375,-1.46875,-1.0
442,0.17138672,-0.96343994,0.1708374,-1.109375,-0.65625,-1.1875
443,0.16796875,-0.9602661,0.16741943,-0.078125,-1.53125,-0.234375
444,0.15649414,-0.9710083,0.16888428,-0.328125,-0.71875,-0.078125
445,0.17138672,-0.96832275,0.17303467,-1.234375,0.203125,-0.515625
446,0.17236328,-0.9614868,0.17694092,-2.015625,-0.03125,-0.3125
447,0.16113281,-0.97857666,0.17938232,-0.8125,-0.375,0.046875
448,0.16381836,-0.9524536,0.1918335,-0.171875,-0.484375,-0.328125
449,0.17211914,-0.98760986,0.16595459,-3.09375,-0.40625,-1.140625
450,0.16967773,-0.94317627,0.18865967,-1.921875,-0.46875,-1.765625
451,0.16259766,-0.9776001,0.19720459,1.625,-0.6875,0.1875
452,0.16625977,-0.95440674,0.19671631,-1.265625,-1.609375,-1.640625
453,0.14990234,-0.9607544,0.19134521,0.046875,-1.953125,0.078125
454,0.16137695,-0.9595337,0.17303467,-1.859375,-0.625,-0.40625
455,0.15966797,-0.96417236,0.19451904,1.5,-3.40625,1.203125
456,0.1328125,-0.99224854,0.199646,0.265625,-1.296875,2.203125
457,0.1640625,-0.9685669,0.19671631,-0.984375,-0.25,0.78125
458,0.171875,-0.9468384,0.17376709,-0.75,-0.71875,0.703125
459,0.17602539,-0.94195557,0.19232178,-1.0625,-0.1875,1.0625
460,0.15209961,-0.97491455,0.20501709,0.609375,-0.234375,2.625
461,0.17578125,-0.9649048,0.18304443,0.3125,2.421875,0.421875
462,0.15820312,-0.95440674,0.1906128,4.84375,0.265625,2.515625
463,0.17797852,-0.95928955,0.16864014,-1.140625,2.703125,1.078125
464,0.17333984,-0.9614868,0.20111084,2.484375,1.46875,1.40625
465,0.1616211,-0.9758911,0.18499756,1.046875,0.5625,0.90625
466,0.19360352,-0.9446411,0.17303467,1.265625,1.5625,0.328125
467,0.16015625,-0.98223877,0.17474365,1.703125,0.4375,2.171875
468,0.1928711,-0.956604,0.17181396,-0.34375,1.28125,0.0
469,0.17333984,-0.96173096,0.18426514,0.640625,0.921875,1.125
470,0.17407227,-0.9612427,0.16546631,-0.859375,1.703125,0.515625
471,0.18530273,-0.9619751,0.17694092,0.5625,1.484375,0.359375
472,0.18725586,-0.95562744,0.17303467,0.140625,0.71875,0.390625
473,0.17822266,-0.960022,0.16571045,-0.1875,0.515625,0.03125
474,0.18579102,-0.9661255,0.17425537,0.296875,0.546875,0.59375
475,0.1821289,-0.96099854,0.1828003,2.0625,-1.09375,0.3125
476,0.18432617,-0.960022,0.16546631,-2.375,-0.578125,-0.796875
477,0.1784668,-0.9541626,0.18328857,0.21875,-0.71875,-0.453125
478,0.1809082,-0.97857666,0.18841553,0.09375,-2.578125,0.03125
479,0.17797852,-0.95928955,0.17645264,-0.484375,-3.109375,-0.78125
480,0.18261719,-0.9680786,0.19451904,-2.40625,-4.046875,-0.34375
481,0.17138672,-0.95928955,0.18255615,-3.859375,-4.796875,-0.6875
482,0.17578125,-0.9517212,0.18890381,-1.859375,-3.734375,-0.84375
483,0.17773438,-0.97247314,0.18817139,-1.109375,-2.703125,0.28125
484,0.17211914,-0.95196533,0.18719482,-0.84375,-2.109375,-0.40625
485,0.18481445,-0.942688,0.18988037,0.84375,-0.5,0.671875
486,0.16113281,-0.9661255,0.20233154,0.671875,-1.03125,0.9375
487,0.16333008,-0.9846802,0.1984253,1.75,-1.5,0.171875
488,0.16357422,-0.9602661,0.20428467,1.359375,-1.578125,-0.328125
489,0.17260742,-0.95806885,0.18426514,-1.734375,-0.765625,0.0
490,0.17041016,-0.9480591,0.20428467,-1.9375,-0.828125,-0.609375
491,0.16552734,-0.9800415,0.20843506,-0.34375,-1.359375,-0.0625
492,0.16796875,-0.9458618,0.1954956,-1.359375,-1.90625,-1.234375
493,0.16333008,-0.9553833,0.20965576,0.171875,-1.578125,0.546875
494,0.15966797,-0.9636841,0.19989014,-1.265625,-0.921875,-0.640625
495,0.16772461,-0.9524536,0.20306396,-0.9375,-0.96875,-0.4375
496,0.16064453,-0.96466064,0.20233154,-0.953125,-1.09375,0.078125
497,0.15332031,-0.9656372,0.20526123,-0.75,-1.125,-0.234375
498,0.17382812,-0.95562744,0.20843506,-0.59375,-0.34375,0.296875
499,0.15722656,-0.96710205,0.20257568,-0.6875,-0.671875,0.125
500,0.16210938,-0.95880127,0.21356201,1.109375,-0.5,0.546875
501,0.15405273,-0.9624634,0.21258545,-0.5,-0.140625,0.046875
502,0.18554688,-0.96221924,0.20477295,-0.515625,0.28125,-0.1875
503,0.16210938,-0.9468384,0.20159912,-1.6875,-0.375,0.03125
504,0.17626953,-0.9702759,0.22357178,1.546875,-0.546875,0.546875
505,0.15795898,-0.9368286,0.21136475,-0.109375,-1.21875,-0.09375
506,0.15527344,-0.9768677,0.21331787,-0.84375,-0.78125,1.609375
507,0.16918945,-0.9656372,0.20550537,-1.203125,-0.390625,-0.125
508,0.16894531,-0.9590454,0.20574951,-0.96875,-1.109375,0.109375
509,0.1665039,-0.96417236,0.21307373,-0.3125,0.46875,0.34375
510,0.17016602,-0.96173096,0.20843506,-0.109375,1.46875,-1.21875
511,0.1809082,-0.9541626,0.21600342,1.171875,0.734375,-0.65625
512,0.1694336,-0.9570923,0.20404053,-0.5625,0.953125,-1.03125
513,0.1538086,-0.95758057,0.21844482,2.703125,1.078125,0.28125
514,0.15820312,-0.97320557,0.18621826,-0.703125,2.359375,0.140625
515,0.17700195,-0.9614868,0.21209717,1.65625,1.5,0.15625
516,0.17773438,-0.9636841,0.1906128,-0.609375,1.6875,0.046875
517,0.16064453,-0.9649048,0.21673584,2.046875,0.6875,0.828125
518,0.17651367,-0.97003174,0.19110107,-0.796875,0.921875,-0.109375
519,0.17089844,-0.9507446,0.20477295,0.78125,0.625,0.40625
520,0.15991211,-0.960022,0.20574951,0.609375,-1.0,1.4375
521,0.1538086,-0.9771118,0.21234131,1.0,-0.625,1.53125
522,0.1574707,-0.97784424,0.19891357,1.171875,-0.046875,1.265625
523,0.17773438,-0.9360962,0.19696045,2.125,0.8125,-0.75
524,0.17895508,-0.954895,0.1918335,0.671875,0.40625,0.171875
525,0.15991211,-0.97003174,0.19354248,2.1875,0.03125,1.0
526,0.13549805,-0.97906494,0.199646,2.84375,0.21875,1.171875
527,0.18286133,-0.95635986,0.17962646,0.59375,2.28125,-0.25
528,0.16577148,-0.97247314,0.17474365,2.109375,0.484375,0.78125
529,0.1953125,-0.9385376,0.17327881,0.3125,1.25,-0.96875
530,0.17578125,-0.98028564,0.19915771,1.640625,1.515625,1.171875
531,0.15209961,-0.9631958,0.17889404,-0.1875,0.640625,0.9375
532,0.16967773,-0.97198486,0.18719482,1.5625,1.859375,1.09375
533,0.18164062,-0.97052,0.18109131,0.171875,1.234375,0.34375
534,0.17895508,-0.9763794,0.16253662,-1.140625,0.828125,1.109375
535,0.19116211,-0.94781494,0.18255615,-0.40625,1.625,-1.234375
536,0.2043457,-0.942688,0.17669678,0.203125,0.21875,-0.984375
537,0.1628418,-0.9661255,0.1918335,-0.703125,-1.71875,0.875
538,0.13256836,-1.0044556,0.18231201,-0.375,1.1875,0.609375
539,0.19360352,-0.9246216,0.18157959,0.546875,0.109375,-1.015625
540,0.17382812,-0.95196533,0.1852417,0.59375,-0.859375,1.046875
541,0.15576172,-0.99346924,0.18597412,-0.953125,-1.3125,1.328125
542,0.1821289,-0.9578247,0.18670654,-1.015625,-1.203125,-0.78125
543,0.17602539,-0.9585571,0.19403076,-0.15625,-2.71875,-0.234375
544,0.16699219,-0.96954346,0.1954956,-2.375,-3.75,-0.890625
545,0.16894531,-0.9573364,0.19940186,-1.953125,-4.28125,0.109375
546,0.1899414,-0.96588135,0.18939209,-2.984375,-4.078125,-0.453125
547,0.17138672,-0.95269775,0.19451904,-1.75,-5.078125,-0.359375
548,0.15771484,-0.9710083,0.20526123,0.15625,-3.5,-0.34375
549,0.1730957,-0.95880127,0.19256592,-0.421875,-3.046875,-0.765625
550,0.16430664,-0.9619751,0.20794678,-0.390625,-2.453125,-0.34375
551,0.16918945,-0.9612427,0.21234131,-0.671875,-3.046875,-0.796875
552,0.17211914,-0.9463501,0.20452881,-0.765625,-3.171875,0.03125
553,0.16137695,-0.96343994,0.19598389,-1.609375,-1.34375,0.078125
554,0.15991211,-0.97613525,0.21551514,2.6875,-2.375,1.078125
555,0.19311523,-0.91900635,0.19085693,-2.109375,-0.484375,-0.46875
556,0.17407227,-0.96539307,0.2020874,3.203125,0.796875,2.78125
557,0.16455078,-0.9612427,0.20159912,1.734375,0.421875,0.296875
558,0.16137695,-0.95147705,0.18890381,1.359375,-0.203125,1.125
559,0.17089844,-0.96295166,0.1954956,-0.359375,0.875,1.375
560,0.1784668,-0.9595337,0.19818115,0.78125,-0.328125,0.8125
561,0.15161133,-0.96295166,0.19744873,1.15625,1.015625,1.625
562,0.17651367,-0.9624634,0.18743896,1.28125,1.25,0.703125
563,0.18017578,-0.9595337,0.1984253,0.90625,1.1875,0.78125
564,0.18359375,-0.95513916,0.18572998,0.953125,1.46875,0.84375
565,0.17504883,-0.9602661,0.1930542,0.5,1.296875,0.5625
566,0.1743164,-0.9751587,0.17718506,-0.046875,1.9375,0.75
567,0.19165039,-0.9614868,0.20697021,3.328125,0.953125,0.703125
568,0.19335938,-0.96295166,0.16815186,-2.9375,1.25,-0.28125
569,0.17236328,-0.95391846,0.18231201,0.28125,1.4375,0.109375
570,0.17456055,-0.97247314,0.19622803,0.671875,1.609375,0.09375
571,0.19213867,-0.94000244,0.18060303,0.453125,1.1875,-0.671875
572,0.16748047,-0.97052,0.17913818,1.921875,0.3125,1.0
573,0.1887207,-0.9607544,0.1864624,0.03125,0.921875,0.15625
574,0.18945312,-0.96221924,0.18011475,0.609375,0.78125,0.078125
575,0.18652344,-0.9507446,0.17913818,1.015625,0.328125,0.09375
576,0.17993164,-0.9649048,0.17962646,0.109375,-0.078125,0.65625
577,0.17773438,-0.9793091,0.18109131,-0.046875,0.78125,0.078125
578,0.18261719,-0.9585571,0.17401123,0.765625,0.703125,-0.0625
579,0.17822266,-0.9649048,0.18304443,1.828125,1.0,1.015625
580,0.19238281,-0.9429321,0.17938232,0.671875,1.328125,0.40625
581,0.1862793,-0.97540283,0.17254639,-0.46875,0.9375,1.671875
582,0.18969727,-0.96417236,0.17523193,-0.3125,1.421875,-0.078125
583,0.18725586,-0.96588135,0.17474365,0.953125,0.25,0.71875
584,0.19091797,-0.95440674,0.17645264,0.453125,0.578125,0.046875
585,0.18481445,-0.9639282,0.17572021,-0.21875,0.46875,0.515625
586,0.17822266,-0.96954346,0.17572021,-0.546875,0.265625,-0.15625
587,0.17700195,-0.95684814,0.16326904,0.21875,0.25,0.046875
588,0.19921875,-0.9546509,0.16644287,1.0,0.796875,-0.09375
589,0.1940918,-0.9463501,0.17230225,0.953125,0.890625,0.28125
590,0.18164062,-0.96343994,0.16864014,0.390625,0.875,0.640625
591,0.19482422,-0.9512329,0.1671753,-0.78125,1.4375,0.5625
592,0.1928711,-0.9663696,0.17108154,0.125,1.453125,0.25
593,0.18945312,-0.9763794,0.17156982,-0.984375,1.078125,0.453125
594,0.20141602,-0.95098877,0.17767334,1.578125,0.453125,0.375
595,0.19262695,-0.96295166,0.16204834,-2.09375,0.625,0.015625
596,0.1796875,-0.9578247,0.1774292,0.65625,0.03125,0.5625
597,0.19067383,-0.9751587,0.18035889,-0.46875,-0.953125,-0.375
598,0.20117188,-0.9439087,0.17230225,0.359375,-2.328125,-0.875
599,0.18334961,-0.9702759,0.18792725,1.09375,-4.484375,-0.015625
600,0.1784668,-0.96759033,0.17425537,-0.65625,-5.53125,-0.421875
601,0.18530273,-0.9446411,0.17376709,-2.15625,-6.078125,-0.296875
602,0.18896484,-0.9668579,0.18670654,-2.234375,-6.53125,0.390625
603,0.19433594,-0.95880127,0.18621826,-1.65625,-5.421875,-0.875
604,0.18530273,-0.96417236,0.18621826,-0.8125,-4.484375,-1.0
605,0.17871094,-0.9656372,0.1876831,0.46875,-3.40625,-1.03125
606,0.1665039,-0.9619751,0.1786499,-0.96875,-3.375,-1.609375
607,0.17675781,-0.9570923,0.1918335,1.203125,-2.5,-0.234375
608,0.1640625,-0.9500122,0.20550537,1.125,-2.03125,0.375
609,0.18164062,-0.9780884,0.17181396,-2.015625,-1.5,-0.46875
610,0.1706543,-0.94976807,0.19525146,-0.09375,-0.59375,-0.53125
611,0.17944336,-0.96759033,0.1954956,0.390625,-0.109375,-0.15625
612,0.17333984,-0.95928955,0.18865967,-0.765625,-1.03125,-0.890625
613,0.16674805,-0.95880127,0.20037842,-0.703125,-0.65625,-0.234375
614,0.17456055,-0.9627075,0.1906128,0.1875,-0.671875,0.328125
615,0.1652832,-0.96343994,0.18670654,0.5625,-1.390625,0.0625
616,0.16992188,-0.96343994,0.19036865,0.71875,-1.125,0.375
617,0.16967773,-0.9578247,0.18939209,0.359375,-0.875,0.21875
618,0.16992188,-0.9631958,0.19647217,0.8125,-0.609375,0.734375
619,0.17578125,-0.9668579,0.18963623,0.765625,-1.265625,-0.078125
620,0.17553711,-0.9536743,0.17816162,0.375,-1.296875,-0.5
621,0.16821289,-0.9649048,0.1918335,2.5,-1.46875,0.8125
622,0.15844727,-0.9570923,0.20477295,1.421875,-0.609375,0.640625
623,0.17480469,-0.96954346,0.15716553,-2.0625,-0.53125,-0.625
624,0.16918945,-0.94537354,0.19110107,0.53125,-0.125,0.53125
625,0.16381836,-0.9651489,0.19232178,0.609375,-0.109375,0.765625
626,0.16137695,-0.95562744,0.18572998,-1.390625,0.34375,-0.65625
627,0.17358398,-0.96539307,0.19354248,-0.875,0.234375,-0.3125
628,0.16333008,-0.9644165,0.19500732,-1.390625,-0.609375,-0.21875
629,0.16601562,-0.954895,0.19476318,-2.484375,-0.40625,-0.296875
630,0.16870117,-0.96539307,0.20355225,-1.078125,-0.125,0.0
631,0.17260742,-0.96343994,0.1918335,-0.34375,-0.875,-0.21875
632,0.16015625,-0.95977783,0.20281982,-0.265625,-0.328125,-0.015625
633,0.17016602,-0.9602661,0.20599365,-0.421875,-0.28125,0.046875
634,0.16455078,-0.9553833,0.19818115,-0.28125,-0.890625,0.375
635,0.16992188,-0.9717407,0.20355225,1.703125,-0.953125,0.8125
636,0.17016602,-0.9727173,0.20428467,-0.890625,-0.984375,0.0625
637,0.17333984,-0.96221924,0.19354248,0.296875,-1.515625,0.578125
638,0.16040039,-0.9534302,0.19158936,-1.234375,-0.140625,0.078125
639,0.16308594,-0.9768677,0.21746826,1.328125,-0.9375,0.71875
640,0.16088867,-0.9483032,0.20404053,-1.296875,-0.984375,-0.34375
641,0.16333008,-0.9607544,0.20428467,-0.921875,-0.421875,0.828125
642,0.17016602,-0.96881104,0.20135498,-0.796875,-0.46875,0.5625
643,0.15991211,-0.95977783,0.19281006,-0.859375,-0.484375,0.109375
644,0.16210938,-0.96221924,0.21160889,0.125,-0.234375,0.828125
645,0.17456055,-0.96417236,0.20843506,-0.1875,-0.046875,0.21875
646,0.17163086,-0.96343994,0.20721436,0.296875,0.0625,0.234375
647,0.17553711,-0.9573364,0.20574951,-0.15625,0.390625,0.40625
648,0.16772461,-0.9612427,0.19818115,-0.203125,0.09375,0.34375
649,0.16723633,-0.944397,0.2164917,0.109375,0.40625,0.453125
650,0.17895508,-0.9697876,0.18890381,-1.21875,0.640625,-0.09375
651,0.17773438,-0.9763794,0.21502686,2.359375,-0.765625,1.296875
652,0.18359375,-0.94195557,0.18084717,-3.390625,0.21875,-0.875
653,0.15771484,-0.9710083,0.2140503,1.1875,0.34375,0.640625
654,0.17626953,-0.9627075,0.2074585,-0.5,0.03125,-0.53125
655,0.16723633,-0.94488525,0.20257568,0.421875,-0.0625,0.3125
656,0.16064453,-0.9776001,0.199646,-0.25,0.15625,0.734375
657,0.17797852,-0.9624634,0.20184326,0.328125,0.21875,-0.140625
658,0.17041016,-0.94610596,0.20404053,0.875,0.65625,0.375
659,0.17822266,-0.96099854,0.2020874,0.609375,-0.140625,0.96875
660,0.17773438,-0.9639282,0.20550537,0.578125,-0.1875,0.265625
661,0.17456055,-0.95880127,0.20037842,0.046875,0.046875,0.875
662,0.17919922,-0.96099854,0.20965576,2.8125,0.78125,0.96875
663,0.1665039,-0.9500122,0.18719482,1.46875,0.5,0.640625
664,0.17456055,-0.9517212,0.2008667,3.046875,1.125,1.0
665,0.17895508,-0.96466064,0.14813232,0.078125,1.703125,0.125
666,0.18237305,-0.9692993,0.18084717,2.5,0.921875,1.0625
667,0.19677734,-0.94659424,0.17327881,-1.359375,0.703125,0.1875
668,0.17675781,-0.9690552,0.19451904,2.15625,1.109375,0.921875
669,0.17163086,-0.9678345,0.17791748,-0.125,1.046875,-0.578125
670,0.19604492,-0.9505005,0.17669678,0.515625,1.140625,0.734375
671,0.18579102,-0.9607544,0.18304443,0.40625,0.453125,0.9375
672,0.17602539,-0.96539307,0.17840576,0.109375,-0.15625,1.03125
673,0.18701172,-0.9573364,0.18572998,1.046875,0.265625,0.140625
674,0.1875,-0.9536743,0.17352295,1.515625,-0.296875,0.359375
675,0.18798828,-0.95635986,0.17425537,0.75,0.421875,0.34375
676,0.171875,-0.96588135,0.17767334,0.359375,0.03125,0.203125
677,0.18554688,-0.9595337,0.17181396,0.171875,0.0,0.265625
678,0.19165039,-0.958313,0.17108154,0.625,0.453125,0.46875
679,0.18286133,-0.95391846,0.1852417,1.5625,0.3125,0.90625
680,0.1875,-0.94366455,0.1798706,0.15625,0.4375,-0.109375
681,0.17797852,-0.9800415,0.16473389,1.21875,0.09375,1.171875
682,0.19311523,-0.96343994,0.16253662,-0.28125,0.4375,-0.078125
683,0.18774414,-0.9651489,0.17938232,1.125,0.734375,0.578125
684,0.18945312,-0.9495239,0.16107178,-0.265625,1.03125,-0.25
685,0.19970703,-0.9685669,0.15765381,0.578125,2.53125,1.015625
686,0.19018555,-0.9717407,0.18743896,0.125,0.828125,-0.671875
687,0.18359375,-0.9483032,0.15985107,-0.3125,0.734375,0.21875
688,0.18969727,-0.9612427,0.1708374,1.078125,0.71875,1.140625
689,0.1875,-0.9763794,0.16448975,-0.15625,0.359375,0.140625
690,0.19042969,-0.95562744,0.16546631,-0.375,0.3125,0.03125
691,0.19091797,-0.956604,0.16668701,-0.640625,-0.046875,0.953125
692,0.18969727,-0.9729614,0.16864014,-0.625,-0.453125,0.140625
693,0.19335938,-0.95977783,0.17425537,-0.578125,-0.9375,0.15625
694,0.18164062,-0.9561157,0.16644287,-0.640625,-1.359375,0.59375
695,0.20532227,-0.95318604,0.15545654,-1.21875,-0.625,-0.28125
696,0.19750977,-0.956604,0.18304443,1.796875,-2.0625,1.515625
697,0.19726562,-0.9663696,0.15789795,-2.203125,-1.96875,-1.625
698,0.18041992,-0.96099854,0.17449951,0.671875,-1.078125,0.953125
699,0.19702148,-0.9595337,0.18426514,-0.796875,-1.671875,-0.046875
700,0.18115234,-0.954895,0.16766357,-0.875,-1.40625,0.5
701,0.19360352,-0.9639282,0.17449951,-0.53125,-1.390625,1.25
702,0.19360352,-0.9536743,0.17645264,-0.3125,-2.03125,1.234375
703,0.19213867,-0.9573364,0.18743896,-0.234375,-1.921875,1.359375
704,0.18725586,-0.96099854,0.17767334,-0.890625,-2.25,0.703125
705,0.20800781,-0.9534302,0.17474365,-0.453125,-1.484375,0.515625
706,0.19873047,-0.9612427,0.17889404,-0.5625,-1.921875,0.59375
707,0.2019043,-0.9558716,0.18743896,-0.234375,-1.828125,0.359375
708,0.19335938,-0.9529419,0.18695068,0.140625,-1.90625,0.515625
709,0.19165039,-0.95391846,0.1774292,-0.90625,-2.109375,0.453125
710,0.203125,-0.9536743,0.17938232,-1.625,-0.65625,-0.125
711,0.1977539,-0.9534302,0.18084717,0.78125,-3.1875,1.1875
712,0.19091797,-0.95635986,0.19354248,-1.625,-1.421875,-0.828125
713,0.20410156,-0.95098877,0.18182373,2.3125,-0.671875,0.296875
714,0.19702148,-0.95196533,0.18939209,-0.203125,-0.890625,-0.203125
715,0.2006836,-0.9590454,0.18792725,-0.765625,-0.625,0.0625
716,0.2055664,-0.9602661,0.17938232,-0.09375,-0.5,0.171875
717,0.20800781,-0.956604,0.18890381,-1.0625,-0.65625,0.125
718,0.18823242,-0.9487915,0.19207764,-0.234375,-0.953125,-0.046875
719,0.20507812,-0.9470825,0.1864624,0.0625,-1.0,0.453125
720,0.19580078,-0.95977783,0.1918335,-0.640625,-0.6875,0.6875
721,0.19213867,-0.9685669,0.1828003,-0.078125,-1.09375,0.25
722,0.19482422,-0.9553833,0.19378662,0.078125,-1.0625,0.21875
723,0.19628906,-0.95318604,0.1906128,-0.234375,-1.046875,0.203125
724,0.19140625,-0.9644165,0.2008667,0.75,-1.65625,0.53125
725,0.18896484,-0.9397583,0.20843506,0.40625,-0.8125,0.09375
726,0.19604492,-0.95391846,0.17376709,-1.640625,-1.5,0.265625
727,0.20117188,-0.9404907,0.19891357,-0.078125,-0.15625,0.125
728,0.18603516,-0.9590454,0.20379639,1.0,-0.28125,0.390625
729,0.19799805,-0.9536743,0.18060303,-0.8125,0.15625,-0.890625
730,0.20678711,-0.95147705,0.19256592,-0.078125,0.375,-0.296875
731,0.18359375,-0.9644165,0.19866943,0.28125,-0.5625,-0.5625
732,0.19799805,-0.93707275,0.20477295,-0.171875,-0.15625,-0.3125
733,0.17651367,-0.9751587,0.19891357,-0.03125,0.0,0.296875
734,0.19482422,-0.9663696,0.19232178,-0.234375,-0.21875,-0.796875
735,0.1977539,-0.9470825,0.19110107,0.296875,0.484375,-0.109375
736,0.1977539,-0.958313,0.2033081,0.328125,0.421875,0.0625
737,0.19311523,-0.9561157,0.20550537,0.109375,-0.328125,0.109375
738,0.18164062,-0.9668579,0.184021,-0.203125,-0.15625,-0.03125
739,0.19360352,-0.9614868,0.18060303,-0.796875,0.796875,-0.046875
740,0.1977539,-0.9480591,0.21282959,4.078125,-0.59375,1.28125
741,0.19702148,-0.956604,0.17254639,-2.609375,0.765625,-0.015625
742,0.18359375,-0.975647,0.20306396,1.203125,0.796875,0.484375
743,0.20117188,-0.95440674,0.19989014,0.78125,-0.4375,-0.421875
744,0.19262695,-0.9429321,0.19378662,0.15625,-0.40625,0.390625
745,0.18701172,-0.9649048,0.19915771,-0.375,0.03125,1.078125
746,0.18334961,-0.96417236,0.19769287,-0.46875,-0.03125,-0.359375
747,0.20361328,-0.93829346,0.17840576,-0.90625,-0.234375,0.1875
748,0.1940918,-0.9570923,0.20452881,0.96875,0.421875,1.109375
749,0.1899414,-0.96881104,0.18695068,-0.09375,-0.296875,0.140625
750,0.19897461,-0.94415283,0.17669678,0.625,-0.625,0.234375
751,0.19848633,-0.9595337,0.18499756,-0.203125,0.328125,0.1875
752,0.20019531,-0.9585571,0.19085693,0.28125,-0.59375,0.0
753,0.17480469,-0.9553833,0.1906128,1.390625,-0.484375,0.40625
754,0.20263672,-0.9651489,0.18182373,0.1875,1.09375,-0.09375
755,0.17993164,-0.96221924,0.19891357,2.59375,-1.03125,1.40625
756,0.19995117,-0.93096924,0.17108154,-1.09375,-0.4375,0.0625
757,0.19262695,-0.9692993,0.19769287,1.046875,0.390625,0.84375
758,0.20800781,-0.96759033,0.18011475,-0.40625,0.0625,-0.25
759,0.19580078,-0.9451294,0.18450928,-0.0625,0.3125,-0.03125
