sample_no,accel_x,accel_y,accel_z,gyro_x,gyro_y,gyro_z
0,-0.08911133,-0.96343994,0.21697998,0.03125,2.296875,-0.359375
1,-0.07788086,-0.9697876,0.21356201,0.421875,1.90625,0.09375
2,-0.06738281,-0.9561157,0.2164917,0.421875,1.796875,-0.171875
3,-0.08325195,-0.9690552,0.20697021,0.59375,0.8125,0.0
4,-0.06665039,-0.9585571,0.2164917,0.546875,0.453125,0.03125
5,-0.08300781,-0.97979736,0.2074585,0.46875,-0.84375,0.234375
6,-0.0637207,-0.96710205,0.20721436,-0.921875,-0.109375,-1.015625
7,-0.06958008,-0.97052,0.22088623,-0.75,-0.84375,-0.234375
8,-0.07128906,-0.95880127,0.19622803,-2.171875,1.640625,-1.40625
9,-0.07910156,-0.9644165,0.22161865,-0.40625,0.828125,-0.9375
10,-0.08251953,-0.9612427,0.21868896,-0.671875,-0.40625,-0.234375
11,-0.0859375,-0.95758057,0.21868896,-1.28125,-0.375,-0.328125
12,-0.07910156,-0.97198486,0.21746826,-0.4375,-0.90625,-0.4375
13,-0.087646484,-0.97125244,0.21575928,-1.890625,-0.3125,-0.546875
14,-0.08544922,-0.95098877,0.21453857,-1.40625,-0.765625,-0.484375
15,-0.08935547,-0.9644165,0.21551514,-0.4375,-1.46875,0.0625
16,-0.08862305,-0.92852783,0.20916748,-1.28125,2.515625,-0.078125
17,-0.07788086,-0.9859009,0.22479248,1.390625,-0.28125,0.140625
18,-0.087402344,-0.9663696,0.2189331,0.96875,-1.328125,0.921875
19,-0.08081055,-0.95684814,0.22039795,0.515625,-1.859375,0.21875
20,-0.09472656,-0.9656372,0.20404053,-1.140625,0.4375,0.3125
21,-0.08691406,-0.9536743,0.22918701,0.359375,-0.296875,0.265625
22,-0.09423828,-0.96661377,0.2074585,-1.71875,-0.515625,0.25
23,-0.07446289,-0.960022,0.21331787,-0.890625,0.34375,-0.859375
24,-0.08666992,-0.97052,0.23236084,0.265625,-1.078125,0.765625
25,-0.08544922,-0.9585571,0.21185303,-1.015625,-0.3125,0.25
26,-0.07470703,-0.9558716,0.21966553,-0.46875,-0.421875,0.0
27,-0.09008789,-0.96881104,0.22406006,-0.65625,-0.375,0.34375
28,-0.080322266,-0.9631958,0.22406006,-1.34375,1.078125,-0.125
29,-0.084228516,-0.9590454,0.2243042,-0.984375,0.109375,0.296875
30,-0.07861328,-0.95758057,0.21697998,-1.28125,-0.21875,0.109375
31,-0.07836914,-0.95562744,0.21331787,-0.578125,-1.0,-0.0625
32,-0.08105469,-0.9644165,0.2189331,-0.03125,-1.390625,-0.25
33,-0.07788086,-0.9570923,0.22064209,0.875,0.0,0.015625
34,-0.07519531,-0.9500122,0.22406006,2.265625,-2.484375,0.078125
35,-0.08300781,-0.9546509,0.21087646,1.109375,-0.40625,0.0625
36,-0.087646484,-0.9685669,0.23382568,1.734375,-1.0,0.390625
37,-0.0793457,-0.95806885,0.19915771,-0.09375,0.265625,0.4375
38,-0.07519531,-0.9690552,0.21551514,0.828125,0.21875,-0.78125
39,-0.083984375,-0.97320557,0.22943115,-0.390625,0.1875,0.359375
40,-0.0769043,-0.9624634,0.19989014,-1.125,-0.3125,-0.203125
41,-0.079833984,-0.95684814,0.22259521,-0.140625,-0.28125,-0.234375
42,-0.08984375,-0.9678345,0.2140503,-1.171875,0.046875,0.203125
43,-0.07763672,-0.9524536,0.20843506,-1.0,-0.8125,0.015625
44,-0.083984375,-0.9627075,0.22576904,-0.421875,-1.90625,0.265625
45,-0.08520508,-0.9602661,0.20843506,-0.53125,-1.921875,0.390625
46,-0.07324219,-0.95147705,0.20574951,-0.71875,-0.28125,0.03125
47,-0.09472656,-0.98687744,0.21600342,0.140625,0.046875,-0.1875
48,-0.076416016,-0.9541626,0.2074585,0.859375,-0.671875,0.40625
49,-0.080566406,-0.9639282,0.21966553,0.34375,-0.90625,-0.0625
50,-0.08300781,-0.9561157,0.21331787,-0.9375,-0.78125,0.625
51,-0.07373047,-0.95928955,0.22161865,0.578125,-0.484375,-0.15625
52,-0.08618164,-0.9758911,0.20281982,-1.078125,-0.328125,0.03125
53,-0.07299805,-0.95758057,0.20281982,-1.5,0.515625,-0.875
54,-0.09033203,-0.9680786,0.23016357,0.125,-0.65625,0.40625
55,-0.07519531,-0.9573364,0.20672607,-1.109375,-0.828125,0.09375
56,-0.07128906,-0.9624634,0.21624756,-1.234375,0.25,-0.734375
57,-0.09057617,-0.9710083,0.20941162,-0.765625,1.515625,0.203125
58,-0.06933594,-0.960022,0.20916748,0.125,0.21875,-0.15625
59,-0.08691406,-0.9631958,0.22210693,0.453125,-0.5,0.578125
60,-0.07788086,-0.9595337,0.21282959,-1.1875,-1.65625,0.125
61,-0.08227539,-0.9697876,0.20892334,-0.90625,-1.109375,0.4375
62,-0.07006836,-0.96295166,0.21722412,-1.0,-1.765625,0.046875
63,-0.083740234,-0.9697876,0.21820068,-0.625,-1.0625,0.734375
64,-0.076660156,-0.96051025,0.20916748,-0.359375,-1.484375,0.328125
65,-0.079833984,-0.97613525,0.21234131,-0.578125,-1.65625,0.984375
66,-0.06762695,-0.96759033,0.22503662,-1.46875,-0.65625,-0.125
67,-0.08325195,-0.96466064,0.2086792,-1.78125,-1.0625,0.328125
68,-0.06616211,-0.9656372,0.20965576,-1.6875,1.734375,-0.625
69,-0.076416016,-0.97442627,0.23260498,-1.328125,1.796875,0.4375
70,-0.07836914,-0.9480591,0.21673584,-2.65625,0.015625,0.125
71,-0.06640625,-0.9546509,0.2074585,-1.75,-0.671875,0.046875
72,-0.067871094,-0.96661377,0.22064209,-0.5,-1.390625,-0.625
73,-0.061035156,-0.97320557,0.22845459,-1.265625,-0.296875,0.1875
74,-0.06298828,-0.9595337,0.22161865,-1.71875,-1.765625,-0.09375
75,-0.08154297,-0.97198486,0.24993896,-2.34375,-2.078125,0.328125
76,-0.072753906,-0.9590454,0.21453857,-3.125,-2.828125,0.671875
77,-0.07470703,-0.93756104,0.22357178,-1.265625,-4.953125,0.328125
78,-0.06689453,-0.9697876,0.24383545,-1.390625,-3.359375,1.0625
79,-0.08325195,-0.95806885,0.23309326,-1.359375,-3.609375,0.65625
80,-0.068603516,-0.96539307,0.23651123,-0.859375,-4.265625,0.234375
81,-0.06591797,-0.9678345,0.23236084,-1.15625,-1.96875,-0.125
82,-0.083984375,-0.9492798,0.2423706,-0.375,-1.65625,-0.109375
83,-0.05908203,-0.9644165,0.22723389,-0.484375,1.28125,-0.46875
84,-0.07885742,-0.9541626,0.24798584,0.578125,0.875,-0.328125
85,-0.07446289,-0.9529419,0.2333374,0.1875,0.9375,-0.90625
86,-0.07055664,-0.9541626,0.24481201,0.875,0.421875,-1.328125
87,-0.07446289,-0.9751587,0.24676514,-0.125,0.28125,-0.484375
88,-0.060302734,-0.95928955,0.24407959,-1.453125,1.0,-0.3125
89,-0.09375,-0.9595337,0.22601318,-0.546875,0.3125,-0.390625
90,-0.06225586,-0.9512329,0.23187256,-0.875,-0.859375,-0.34375
91,-0.07788086,-0.95635986,0.23016357,0.15625,-0.390625,-0.625
92,-0.068359375,-0.9680786,0.23651123,0.15625,0.21875,-0.640625
93,-0.083984375,-0.96661377,0.23065186,-0.234375,-0.046875,-0.640625
94,-0.072753906,-0.94610596,0.23114014,-0.171875,-0.640625,-0.625
95,-0.09375,-0.9553833,0.2477417,2.171875,-3.078125,-0.265625
96,-0.07739258,-0.9558716,0.23553467,0.5,-1.828125,0.015625
97,-0.08105469,-0.9741821,0.23626709,0.25,-2.0,-0.25
98,-0.064208984,-0.9558716,0.23773193,-1.5625,2.890625,-1.703125
99,-0.09667969,-0.9690552,0.26190186,-1.296875,0.1875,-0.09375
100,-0.095947266,-0.9631958,0.23797607,-1.90625,-1.296875,0.625
101,-0.083740234,-0.9512329,0.22698975,-1.703125,-0.640625,-0.34375
102,-0.08520508,-0.9480591,0.23309326,0.296875,-0.296875,-0.140625
103,-0.07421875,-0.96221924,0.2345581,0.109375,0.28125,0.171875
104,-0.08691406,-0.95269775,0.2345581,-0.21875,-0.5,0.09375
105,-0.095947266,-0.9614868,0.24041748,0.21875,-0.765625,0.0625
106,-0.08251953,-0.9585571,0.24090576,-0.34375,0.015625,0.328125
107,-0.087890625,-0.95928955,0.23626709,0.203125,-1.5,0.484375
108,-0.08129883,-0.9741821,0.23577881,0.46875,0.703125,0.265625
109,-0.079833984,-0.97662354,0.22845459,-1.46875,2.765625,-0.078125
110,-0.083984375,-0.927063,0.24090576,-0.15625,-0.265625,0.203125
111,-0.08081055,-0.96099854,0.22845459,-0.65625,-0.65625,-0.0625
112,-0.075927734,-0.96343994,0.24139404,0.25,0.0625,0.046875
113,-0.07373047,-0.95318604,0.21575928,-0.109375,0.546875,-0.34375
114,-0.075683594,-0.9727173,0.2538452,0.28125,0.921875,-0.359375
115,-0.09399414,-0.9546509,0.24359131,-0.234375,-0.515625,0.34375
116,-0.08520508,-0.94317627,0.22259521,-0.28125,-1.734375,0.3125
117,-0.059814453,-0.96661377,0.25286865,-0.078125,-0.59375,-0.6875
118,-0.09643555,-0.96343994,0.2387085,-0.609375,-0.890625,-0.0625
119,-0.078125,-0.9570923,0.23431396,-1.6875,-0.109375,-0.109375
120,-0.075927734,-0.95758057,0.24261475,-1.640625,-1.75,0.640625
121,-0.0925293,-0.94195557,0.24383545,-1.875,-1.015625,0.203125
122,-0.07763672,-0.9678345,0.26019287,-1.6875,-1.296875,0.0625
123,-0.083984375,-0.9627075,0.23724365,-1.5,-2.234375,1.3125
124,-0.06542969,-0.9505005,0.24407959,-1.21875,-2.5,0.5625
125,-0.09472656,-0.9663696,0.24432373,-0.859375,-2.953125,0.578125
126,-0.06762695,-0.95098877,0.23919678,-1.109375,-0.296875,0.375
127,-0.07470703,-0.9468384,0.24359131,-0.265625,-2.3125,0.9375
128,-0.06542969,-0.94488525,0.2453003,-0.59375,-0.078125,0.296875
129,-0.0793457,-0.9678345,0.26971436,1.015625,-1.46875,0.25
130,-0.0793457,-0.9573364,0.24041748,0.015625,0.734375,0.453125
131,-0.07446289,-0.95098877,0.2423706,0.296875,-0.453125,0.015625
132,-0.07128906,-0.97540283,0.24139404,-0.21875,-0.546875,-0.046875
133,-0.067871094,-0.9512329,0.24676514,-0.125,0.484375,-0.125
134,-0.064453125,-0.9578247,0.24017334,0.078125,0.0,0.34375
135,-0.068359375,-0.9631958,0.23944092,0.203125,0.984375,0.140625
136,-0.07446289,-0.95562744,0.24456787,0.484375,-0.765625,0.15625
137,-0.07373047,-0.9627075,0.2489624,-0.203125,-0.453125,-0.328125
138,-0.06640625,-0.9541626,0.23822021,-0.140625,-0.328125,0.375
139,-0.06689453,-0.9524536,0.24725342,0.734375,0.15625,-0.75
140,-0.078125,-0.958313,0.24407959,0.625,0.71875,0.0
141,-0.06518555,-0.9470825,0.24432373,0.359375,0.671875,-0.40625
142,-0.08227539,-0.9680786,0.23504639,-0.953125,0.78125,-0.234375
143,-0.060546875,-0.95440674,0.23822021,-1.0,1.3125,-0.734375
144,-0.076416016,-0.960022,0.25604248,-0.875,0.078125,0.21875
145,-0.07055664,-0.956604,0.24041748,-2.078125,-1.796875,0.4375
146,-0.07128906,-0.95758057,0.2609253,-1.953125,-1.390625,0.421875
147,-0.080566406,-0.95880127,0.246521,-1.484375,-1.359375,1.171875
148,-0.064697266,-0.9536743,0.22894287,-0.28125,-2.34375,0.921875
149,-0.06591797,-0.95513916,0.24383545,0.125,-1.734375,0.515625
150,-0.072265625,-0.9663696,0.25286865,0.046875,-1.125,0.140625
151,-0.07104492,-0.9492798,0.23944092,0.03125,-1.34375,0.8125
152,-0.072021484,-0.95196533,0.23504639,-1.0,-2.296875,0.09375
153,-0.06982422,-0.9404907,0.23040771,0.84375,-1.71875,-0.140625
154,-0.08325195,-0.9627075,0.2333374,0.984375,-1.78125,0.125
155,-0.05517578,-0.95391846,0.2477417,1.828125,0.40625,-1.015625
156,-0.06518555,-0.96954346,0.23504639,0.796875,1.28125,-0.796875
157,-0.052001953,-0.9627075,0.2333374,-0.875,2.140625,-1.484375
158,-0.084228516,-0.9495239,0.23895264,1.390625,-0.078125,-0.15625
159,-0.083740234,-0.9578247,0.22894287,-0.4375,2.375,-0.90625
160,-0.048583984,-0.96588135,0.23602295,-0.421875,0.625,-0.90625
161,-0.080322266,-0.9685669,0.22894287,-1.078125,-0.4375,0.625
162,-0.063964844,-0.9456177,0.22381592,-1.734375,-0.453125,-0.625
163,-0.076660156,-0.9612427,0.24163818,-0.75,-1.328125,-0.40625
164,-0.07739258,-0.9573364,0.23577881,-0.671875,-1.890625,0.46875
165,-0.06567383,-0.9661255,0.23260498,-0.8125,-0.828125,0.171875
166,-0.07006836,-0.940979,0.23553467,-0.890625,-1.515625,0.0
167,-0.07861328,-0.9651489,0.23162842,-1.171875,-1.75,0.640625
168,-0.068603516,-0.9663696,0.22894287,-1.3125,-1.046875,-0.28125
169,-0.06518555,-0.960022,0.22894287,-2.21875,-1.796875,-0.125
170,-0.06591797,-0.96099854,0.23626709,-0.984375,-0.765625,0.296875
171,-0.067871094,-0.95098877,0.22869873,-1.328125,0.765625,-0.390625
172,-0.06713867,-0.9631958,0.24871826,0.21875,-0.359375,0.0625
173,-0.072265625,-0.9458618,0.22650146,-0.296875,0.984375,0.34375
174,-0.06713867,-0.95562744,0.23553467,0.578125,0.59375,-0.140625
175,-0.06689453,-0.9768677,0.2387085,0.296875,0.296875,-0.046875
176,-0.07446289,-0.9558716,0.24334717,-0.40625,-0.125,0.15625
177,-0.06347656,-0.9639282,0.24481201,-0.1875,-0.6875,-0.09375
178,-0.072753906,-0.96221924,0.23797607,-0.109375,-0.265625,0.234375
179,-0.06958008,-0.9595337,0.24407959,0.1875,-0.984375,-0.15625
180,-0.07788086,-0.96881104,0.24505615,-1.765625,0.1875,-0.265625
181,-0.063964844,-0.96099854,0.24359131,-2.421875,0.015625,-0.625
182,-0.080078125,-0.9651489,0.2682495,-2.078125,-0.796875,0.765625
183,-0.06933594,-0.9644165,0.23846436,-2.5625,-0.546875,1.328125
184,-0.06347656,-0.94244385,0.23504639,-1.8125,-1.796875,0.578125
185,-0.083496094,-0.9534302,0.24481201,0.609375,-0.84375,-0.921875
186,-0.06665039,-0.973938,0.27801514,1.90625,2.4375,-0.09375
187,-0.07519531,-0.97076416,0.25115967,0.484375,1.515625,0.609375
188,-0.060058594,-0.9522095,0.2555542,-4.46875,1.359375,-0.3125
189,-0.06323242,-0.94073486,0.2333374,-4.171875,-2.0,-0.921875
190,-0.068603516,-0.960022,0.25164795,-2.578125,-2.296875,-0.546875
191,-0.064941406,-0.93048096,0.22235107,0.1875,0.234375,1.015625
192,-0.05859375,-0.93292236,0.22454834,2.375,2.46875,-0.625
193,-0.059326172,-0.9343872,0.23309326,3.65625,-0.28125,-0.96875
194,-0.07714844,-0.9758911,0.26019287,3.15625,-4.875,-0.046875
195,-0.06665039,-0.9829712,0.26239014,1.015625,-1.703125,0.21875
196,-0.068847656,-0.9553833,0.2514038,0.765625,-0.609375,0.015625
197,-0.06713867,-0.96466064,0.22259521,-0.875,0.734375,-0.6875
198,-0.053710938,-0.93878174,0.23529053,0.671875,-0.140625,-0.046875
199,-0.08178711,-0.9639282,0.23309326,0.0,0.75,-0.296875
200,-0.05908203,-0.95684814,0.24481201,0.828125,1.078125,-0.59375
201,-0.08178711,-0.9517212,0.23919678,1.625,-2.40625,0.140625
202,-0.07446289,-0.9573364,0.22528076,1.234375,-2.703125,0.515625
203,-0.06567383,-0.96832275,0.24481201,1.953125,-3.421875,1.421875
204,-0.07495117,-0.98321533,0.21746826,0.796875,-0.28125,1.46875
205,-0.049560547,-0.9421997,0.21575928,0.8125,1.390625,1.3125
206,-0.083496094,-0.97613525,0.24725342,2.875,-0.421875,2.390625
207,-0.056884766,-0.9614868,0.23773193,0.265625,1.078125,1.453125
208,-0.042236328,-0.9746704,0.22698975,-1.640625,-0.234375,1.078125
209,-0.06958008,-0.9248657,0.21063232,-1.359375,-2.46875,0.796875
210,-0.05126953,-0.96881104,0.21502686,-0.78125,-3.296875,0.234375
211,-0.05810547,-0.9475708,0.19818115,-1.71875,-4.1875,0.671875
212,-0.046142578,-0.98516846,0.23382568,-0.6875,-3.125,-0.640625
213,-0.052001953,-0.95684814,0.21746826,-1.40625,-1.046875,-0.734375
214,-0.05444336,-0.9854126,0.24090576,-2.53125,4.75,-1.921875
215,-0.05810547,-0.97076416,0.22869873,-2.15625,1.484375,-0.5
216,-0.057373047,-0.93756104,0.22235107,-1.46875,-0.03125,0.328125
217,-0.052246094,-0.9631958,0.23040771,-0.46875,-2.5625,-0.5625
218,-0.0769043,-0.9573364,0.2411499,0.09375,-1.34375,-0.203125
219,-0.047607422,-0.975647,0.22528076,-0.71875,0.875,-0.75
220,-0.0793457,-0.9468384,0.23797607,-0.296875,-0.921875,-0.28125
221,-0.056884766,-0.9619751,0.24725342,-1.328125,0.4375,-1.25
222,-0.07543945,-0.9871216,0.277771,-3.015625,0.03125,-0.09375
223,-0.087890625,-0.9727173,0.27093506,-3.109375,-3.171875,1.578125
224,-0.048095703,-0.95318604,0.23919678,-1.1875,-0.65625,-2.5
225,-0.052001953,-0.99298096,0.29510498,0.609375,-0.953125,0.546875
226,-0.060546875,-0.94854736,0.24163818,-4.0625,-1.890625,-1.28125
227,-0.07348633,-0.9470825,0.26068115,-4.171875,-5.265625,1.15625
228,-0.061035156,-0.9492798,0.2243042,-1.84375,-1.65625,-0.09375
229,-0.053222656,-0.9348755,0.24603271,0.25,-0.90625,0.375
230,-0.056152344,-0.93756104,0.23724365,1.015625,1.40625,-0.03125
231,-0.05053711,-0.9429321,0.2387085,3.84375,1.40625,-0.671875
232,-0.07128906,-0.9595337,0.24578857,1.828125,0.03125,0.25
233,-0.03881836,-0.9673462,0.25286865,2.078125,0.546875,-0.21875
234,-0.06738281,-0.9680786,0.24578857,-0.109375,0.03125,0.5
235,-0.072509766,-0.97613525,0.24041748,-1.453125,-0.734375,0.234375
236,-0.04638672,-0.9607544,0.23651123,-1.578125,0.515625,-0.546875
237,-0.060791016,-0.956604,0.24432373,-1.296875,-0.8125,0.015625
238,-0.05102539,-0.9456177,0.2243042,-1.5,-0.046875,-0.515625
239,-0.05883789,-0.9685669,0.26361084,-0.078125,-0.09375,-0.609375
240,-0.064453125,-0.9468384,0.24017334,-0.796875,-0.984375,0.0625
241,-0.048828125,-0.96343994,0.23626709,-0.5,-1.03125,0.046875
242,-0.056152344,-0.9644165,0.24603271,-1.109375,-1.203125,-0.046875
243,-0.061035156,-0.9690552,0.24334717,-1.265625,-0.203125,0.0625
244,-0.057861328,-0.9678345,0.23895264,-1.578125,0.203125,-0.546875
245,-0.06933594,-0.95098877,0.246521,-0.484375,-0.609375,0.609375
246,-0.051513672,-0.95562744,0.24700928,-0.828125,-0.546875,0.078125
247,-0.06274414,-0.9480591,0.2411499,-0.703125,-0.453125,-0.125
248,-0.047607422,-0.9541626,0.23577881,-0.296875,-0.53125,-0.609375
249,-0.0703125,-0.9561157,0.22796631,-0.265625,-0.84375,-0.453125
250,-0.03881836,-0.9534302,0.22747803,-0.328125,-0.546875,-1.21875
251,-0.06689453,-0.956604,0.25408936,0.515625,-0.34375,-0.578125
252,-0.049804688,-0.9690552,0.25750732,-1.09375,3.765625,-1.453125
253,-0.08886719,-0.95880127,0.2645874,1.0625,-1.25,0.65625
254,-0.049804688,-0.954895,0.23944092,-0.5,-1.171875,-0.40625
255,-0.06689453,-0.9558716,0.2477417,-1.46875,-0.59375,-0.109375
256,-0.0703125,-0.9656372,0.23626709,-0.71875,-1.453125,0.65625
257,-0.051513672,-0.96539307,0.24456787,-0.984375,0.09375,-0.328125
258,-0.060302734,-0.94659424,0.2543335,0.046875,0.046875,0.625
259,-0.060546875,-0.94976807,0.24285889,-0.171875,-0.390625,-0.109375
260,-0.06323242,-0.95391846,0.24920654,0.125,-0.234375,-0.140625
261,-0.06323242,-0.95806885,0.25408936,0.609375,-1.65625,-0.203125
262,-0.068359375,-0.9649048,0.24603271,-0.21875,-2.15625,1.203125
263,-0.061035156,-0.98150635,0.2255249,-0.34375,-1.90625,1.390625
264,-0.03857422,-0.9553833,0.23822021,0.0,-0.140625,0.765625
265,-0.07006836,-0.96661377,0.22479248,0.40625,-0.84375,1.28125
266,-0.041259766,-0.96343994,0.23016357,-0.703125,2.0625,-0.125
267,-0.06713867,-0.95880127,0.24481201,0.28125,0.171875,0.5625
268,-0.05883789,-0.9644165,0.24261475,-0.984375,-0.453125,0.625
269,-0.038330078,-0.9619751,0.22698975,-1.65625,0.0625,0.328125
270,-0.05053711,-0.9590454,0.22332764,-0.71875,-2.28125,0.890625
271,-0.031982422,-0.9673462,0.23284912,-0.671875,-2.03125,0.203125
272,-0.05444336,-0.9492798,0.24359131,-0.75,-2.53125,0.65625
273,-0.04736328,-0.9590454,0.23016357,0.109375,-3.046875,0.578125
274,-0.051757812,-0.98028564,0.24993896,-0.40625,-1.46875,-0.1875
275,-0.05493164,-0.95513916,0.22113037,0.265625,-1.96875,0.734375
276,-0.047851562,-0.97198486,0.23284912,-0.265625,-1.953125,0.53125
277,-0.060302734,-0.9680786,0.23260498,-1.546875,-1.78125,1.0625
278,-0.04345703,-0.94610596,0.24139404,-1.796875,-1.296875,-0.109375
279,-0.046875,-0.9631958,0.21820068,-0.296875,-3.8125,0.78125
280,-0.04711914,-0.95635986,0.22625732,0.125,-0.875,-0.53125
281,-0.05029297,-0.973938,0.25286865,1.5625,-0.34375,0.0625
282,-0.05102539,-0.9771118,0.2255249,-0.25,1.515625,-0.46875
283,-0.04663086,-0.9475708,0.23724365,0.984375,2.328125,-0.40625
284,-0.049072266,-0.96881104,0.22235107,-1.03125,1.109375,-0.09375
285,-0.045410156,-0.9612427,0.23040771,-0.421875,0.265625,-0.375
286,-0.05029297,-0.96343994,0.24285889,-0.40625,0.53125,-0.765625
287,-0.045410156,-0.9570923,0.23162842,-0.75,-0.265625,-0.0625
288,-0.049072266,-0.95025635,0.23260498,-0.84375,-1.34375,-0.578125
289,-0.052246094,-0.9656372,0.23187256,-0.859375,-1.078125,-0.578125
290,-0.06518555,-0.9434204,0.24066162,-1.578125,1.109375,-1.3125
291,-0.05102539,-0.98223877,0.2538452,-1.296875,0.0625,-1.515625
292,-0.064697266,-0.9517212,0.24432373,-1.578125,-1.03125,-0.234375
293,-0.04663086,-0.95928955,0.23846436,-2.140625,-1.015625,-1.0
294,-0.07373047,-0.95928955,0.23822021,-1.46875,0.4375,-1.5625
295,-0.059326172,-0.96759033,0.2526245,-0.640625,0.6875,-0.1875
296,-0.049072266,-0.9463501,0.23529053,-1.375,0.9375,-0.59375
297,-0.051513672,-0.9487915,0.24871826,-1.046875,2.046875,-1.53125
298,-0.068847656,-0.9795532,0.2584839,-2.140625,0.484375,0.015625
299,-0.052734375,-0.9536743,0.2501831,-3.328125,0.984375,-0.671875
300,-0.060058594,-0.9663696,0.26263428,-1.859375,0.453125,0.03125
301,-0.06323242,-0.95318604,0.2514038,-1.828125,-0.578125,0.125
302,-0.064453125,-0.9602661,0.26727295,-1.265625,-0.375,0.09375
303,-0.06225586,-0.9578247,0.2616577,-2.09375,0.484375,0.03125
304,-0.06274414,-0.9390259,0.26019287,-1.96875,-1.046875,-0.28125
305,-0.061035156,-0.95513916,0.26507568,-1.171875,-0.234375,0.125
306,-0.05102539,-0.9402466,0.2543335,-1.03125,0.421875,-1.078125
307,-0.07128906,-0.9524536,0.23529053,-0.03125,0.9375,-0.65625
308,-0.051513672,-0.93463135,0.24310303,0.34375,2.84375,-1.765625
309,-0.07128906,-0.9573364,0.26971436,2.265625,2.09375,-1.125
310,-0.059814453,-0.9487915,0.2555542,1.09375,-0.46875,-0.78125
311,-0.05908203,-0.960022,0.25604248,2.109375,-2.21875,-0.40625
312,-0.06201172,-0.97784424,0.25994873,-0.421875,-0.875,-0.40625
313,-0.059326172,-0.9434204,0.24163818,-0.75,-1.265625,-0.3125
314,-0.072753906,-0.9656372,0.26312256,0.1875,-1.125,-0.140625
315,-0.0703125,-0.95269775,0.2453003,-0.546875,-1.078125,0.171875
316,-0.06616211,-0.95269775,0.24847412,-0.046875,-1.703125,0.03125
317,-0.0703125,-0.9602661,0.24871826,-0.125,-1.109375,0.3125
318,-0.068115234,-0.9312134,0.2597046,1.140625,-1.65625,0.203125
319,-0.06640625,-0.9663696,0.24090576,0.0,-0.046875,0.265625
320,-0.061767578,-0.944397,0.2518921,0.09375,-1.015625,-0.0625
321,-0.07324219,-0.9573364,0.23797607,-2.90625,-1.890625,-0.515625
322,-0.05859375,-0.96343994,0.27679443,-0.609375,0.234375,-0.828125
323,-0.07861328,-0.95635986,0.26605225,-0.421875,-0.640625,0.390625
324,-0.07104492,-0.94537354,0.2609253,-0.71875,-1.046875,-0.046875
325,-0.061279297,-0.9570923,0.27313232,0.21875,-0.96875,-0.375
326,-0.07519531,-0.95758057,0.26385498,-1.171875,-0.390625,-0.03125
327,-0.06933594,-0.9434204,0.24554443,-1.25,-0.984375,-0.328125
328,-0.068847656,-0.9649048,0.25579834,-0.5,-0.953125,-0.234375
329,-0.060058594,-0.9397583,0.24090576,-1.28125,-2.203125,-0.3125
330,-0.07470703,-0.9734497,0.27459717,0.46875,-1.53125,-0.078125
331,-0.05517578,-0.9619751,0.25213623,-0.734375,1.140625,-0.125
332,-0.06323242,-0.94073486,0.24041748,1.375,-1.859375,-0.28125
333,-0.06567383,-0.9692993,0.24017334,-0.203125,0.734375,-0.1875
334,-0.048095703,-0.9468384,0.26287842,-0.28125,0.28125,-0.703125
335,-0.07910156,-0.95318604,0.25164795,-0.96875,1.4375,-0.5
336,-0.06738281,-0.97003174,0.26678467,-0.578125,1.296875,-0.59375
337,-0.08227539,-0.9483032,0.24920654,-1.359375,0.15625,0.375
338,-0.061035156,-0.9573364,0.2609253,-1.234375,0.953125,-0.5625
339,-0.059814453,-0.96881104,0.2514038,-1.078125,-0.90625,0.125
340,-0.06640625,-0.9529419,0.26287842,-0.734375,-0.734375,0.109375
341,-0.07055664,-0.94488525,0.2543335,-0.46875,-1.265625,-0.125
342,-0.06665039,-0.954895,0.24993896,0.609375,-2.125,0.046875
343,-0.064697266,-0.944397,0.25628662,1.203125,-3.71875,0.09375
344,-0.076660156,-0.9590454,0.2518921,0.84375,-5.625,0.234375
345,-0.0715332,-0.958313,0.2506714,0.203125,-4.5,0.0625
346,-0.061523438,-0.96881104,0.25091553,-0.015625,-1.875,-0.375
347,-0.07519531,-0.96099854,0.2453003,-1.171875,-0.03125,-0.609375
348,-0.067871094,-0.9536743,0.2489624,-0.71875,-0.5,-0.296875
349,-0.06323242,-0.95635986,0.24212646,-0.1875,1.703125,-1.203125
350,-0.08178711,-0.95269775,0.26434326,0.578125,0.609375,-0.390625
351,-0.08081055,-0.9529419,0.24847412,-0.59375,-0.78125,-0.15625
352,-0.06323242,-0.956604,0.25360107,-1.1875,-1.515625,-0.328125
353,-0.08886719,-0.96539307,0.2506714,-0.6875,-3.140625,0.234375
354,-0.07739258,-0.9458618,0.24798584,-1.25,-1.359375,-0.125
355,-0.06225586,-0.9573364,0.25506592,-0.21875,-1.046875,-0.296875
356,-0.091796875,-0.94903564,0.2567749,0.71875,-1.875,0.921875
357,-0.07714844,-0.9536743,0.24432373,1.734375,-1.078125,0.421875
358,-0.072265625,-0.9690552,0.25726318,0.671875,1.921875,0.40625
359,-0.0690918,-0.98931885,0.22406006,3.671875,2.515625,1.3125
360,0.0009765625,-0.944397,0.23699951,0.53125,3.828125,1.65625
361,-0.083740234,-0.93292236,0.19476318,-2.625,-5.0625,0.96875
362,-0.07055664,-0.9902954,0.2399292,-0.3125,-0.328125,-2.109375
363,-0.055419922,-0.960022,0.22601318,0.59375,3.453125,-1.03125
364,-0.088378906,-0.9365845,0.24725342,2.375,-1.125,0.578125
365,-0.08862305,-0.97491455,0.2296753,0.796875,2.453125,-0.75
366,-0.0390625,-0.96417236,0.22528076,1.28125,2.15625,-0.796875
367,-0.0703125,-0.96051025,0.23284912,1.375,2.1875,0.546875
368,-0.044677734,-0.97198486,0.2411499,-0.9375,4.3125,-0.234375
369,-0.052246094,-0.9612427,0.23822021,-0.6875,0.203125,-0.59375
370,-0.071777344,-0.9397583,0.20159912,-1.421875,-5.109375,1.25
371,-0.040283203,-0.98223877,0.2555542,-3.328125,-4.015625,-0.40625
372,-0.084228516,-0.9729614,0.2333374,-2.171875,-1.328125,1.046875
373,-0.057617188,-0.9570923,0.24212646,-1.984375,-2.375,1.640625
374,-0.048339844,-0.9492798,0.2296753,-1.078125,-3.328125,0.625
375,-0.06958008,-0.9561157,0.2399292,-1.171875,-5.328125,1.3125
376,-0.056884766,-0.9741821,0.23895264,-2.0,-2.578125,0.546875
377,-0.072021484,-0.9651489,0.22650146,-1.171875,-0.796875,0.578125
378,-0.03881836,-0.9414673,0.22991943,-0.265625,-0.4375,0.203125
379,-0.053222656,-0.9710083,0.24139404,-0.5625,-0.375,-0.640625
380,-0.05517578,-0.95880127,0.24456787,-0.921875,0.3125,-0.3125
381,-0.0625,-0.95806885,0.2543335,-1.0625,-0.21875,-1.09375
382,-0.07128906,-0.956604,0.22796631,-0.859375,-0.46875,-0.109375
383,-0.051513672,-0.96661377,0.24359131,-0.1875,-1.515625,-0.015625
384,-0.057373047,-0.9541626,0.23016357,-0.390625,-0.296875,-0.625
385,-0.05419922,-0.954895,0.22698975,-0.984375,-0.796875,-0.5
386,-0.040039062,-0.9578247,0.23553467,-0.578125,0.328125,-1.421875
387,-0.0715332,-0.96588135,0.24700928,-0.078125,-0.296875,-0.21875
388,-0.05053711,-0.9558716,0.24456787,-0.46875,1.640625,-1.0
389,-0.07543945,-0.9517212,0.23675537,-0.765625,0.859375,-0.734375
390,-0.045166016,-0.9624634,0.23699951,-0.28125,-0.171875,-0.03125
391,-0.064453125,-0.96173096,0.25091553,0.046875,-0.21875,-0.453125
392,-0.064453125,-0.9590454,0.23162842,-0.375,0.234375,0.46875
393,-0.056640625,-0.95025635,0.24554443,0.0625,-1.171875,-0.140625
394,-0.076171875,-0.9639282,0.23675537,0.421875,-2.21875,0.40625
395,-0.061035156,-0.95684814,0.246521,-0.09375,-1.546875,0.21875
396,-0.06689453,-0.97540283,0.23651123,-0.765625,-1.125,0.03125
397,-0.056884766,-0.95147705,0.23651123,-0.109375,-0.703125,0.125
398,-0.056396484,-0.9385376,0.23065186,-0.09375,-0.328125,-1.234375
399,-0.05908203,-0.97052,0.23895264,-0.171875,0.09375,-0.75
400,-0.06665039,-0.9468384,0.23773193,-0.828125,0.90625,-0.671875
401,-0.0690918,-0.9614868,0.25750732,0.3125,-0.921875,-0.5625
402,-0.07446289,-0.9607544,0.23577881,-0.1875,-1.3125,-0.015625
403,-0.05834961,-0.9512329,0.24261475,-0.390625,-0.796875,-0.0625
404,-0.056152344,-0.9639282,0.23114014,0.0,0.203125,-0.15625
405,-0.06640625,-0.9595337,0.23822021,-0.40625,-0.171875,-0.40625
406,-0.052734375,-0.96661377,0.23406982,0.171875,-0.625,-0.046875
407,-0.0690918,-0.9624634,0.24700928,-0.359375,-0.3125,0.171875
408,-0.06933594,-0.9578247,0.22503662,-0.890625,-0.5,-0.234375
409,-0.059570312,-0.9500122,0.2333374,0.125,-0.625,0.421875
410,-0.06982422,-0.95928955,0.2345581,0.046875,-1.578125,-0.15625
411,-0.0715332,-0.96954346,0.2411499,-0.890625,-2.109375,0.71875
412,-0.049072266,-0.9360962,0.22723389,-0.921875,-0.34375,-0.625
413,-0.07104492,-0.9714966,0.24871826,0.65625,-0.546875,-0.1875
414,-0.06689453,-0.95440674,0.24285889,0.453125,2.171875,-0.078125
415,-0.072265625,-0.9690552,0.246521,2.015625,0.078125,0.28125
416,-0.051757812,-0.9529419,0.22235107,0.75,0.359375,0.1875
417,-0.059814453,-0.95806885,0.23773193,1.515625,-1.15625,-0.078125
418,-0.079833984,-0.9656372,0.23480225,-0.40625,-1.765625,0.65625
419,-0.053710938,-0.9470825,0.22991943,-1.828125,-0.3125,-0.765625
420,-0.059570312,-0.97613525,0.23651123,-1.84375,0.765625,-0.59375
421,-0.05908203,-0.95025635,0.2255249,-1.953125,1.265625,-1.203125
422,-0.07714844,-0.956604,0.2387085,-1.625,-0.21875,-1.046875
423,-0.060302734,-0.9529419,0.2243042,-1.25,1.21875,-0.5625
424,-0.06713867,-0.9602661,0.23651123,-0.8125,-0.015625,-0.734375
425,-0.0690918,-0.9517212,0.23529053,-0.296875,-1.75,-0.53125
426,-0.068847656,-0.9546509,0.24041748,-0.46875,-1.078125,-1.21875
427,-0.068115234,-0.9578247,0.22406006,-0.015625,-2.65625,0.28125
428,-0.061767578,-0.9512329,0.23553467,-0.90625,-1.4375,-0.90625
429,-0.08227539,-0.975647,0.26287842,-0.21875,0.0625,-0.59375
430,-0.056884766,-0.9439087,0.2345581,0.171875,1.671875,-0.125
431,-0.08251953,-0.9483032,0.2453003,0.109375,1.09375,-0.421875
432,-0.060302734,-0.96466064,0.23358154,-0.046875,1.609375,-0.328125
433,-0.05908203,-0.9685669,0.27679443,-0.375,1.203125,0.28125
434,-0.072509766,-0.9627075,0.27435303,-0.6875,-0.046875,2.375
435,-0.10986328,-0.93756104,0.2333374,0.5,-1.390625,1.40625
436,-0.05053711,-0.96710205,0.2831421,0.5,2.484375,-0.78125
437,-0.0546875,-0.9627075,0.27142334,1.34375,1.609375,1.03125
438,-0.07006836,-0.9607544,0.20843506,0.84375,1.484375,0.875
439,-0.046142578,-0.95928955,0.21063232,1.46875,-0.4375,0.671875
440,-0.061767578,-0.94415283,0.21722412,-1.203125,0.109375,-1.25
441,-0.06958008,-0.96295166,0.23602295,1.078125,-1.09375,-1.53125
442,-0.04663086,-0.97247314,0.23162842,-0.859375,-1.03125,1.359375
443,-0.05908203,-0.9570923,0.24676514,-4.140625,-1.28125,-0.609375
444,-0.09716797,-0.9451294,0.24261475,-3.4375,-3.4375,0.609375
445,-0.07421875,-0.96832275,0.22723389,-2.984375,-1.546875,-0.359375
446,-0.056152344,-0.92437744,0.22918701,1.484375,-4.03125,0.046875
447,-0.064208984,-0.94366455,0.24261475,3.40625,0.5,-0.78125
448,-0.07128906,-0.9702759,0.2267456,3.21875,-3.796875,0.65625
449,-0.061035156,-0.96710205,0.2345581,-0.109375,-1.65625,-0.765625
450,-0.064697266,-0.96417236,0.21966553,0.46875,-0.75,-0.15625
451,-0.07299805,-0.9456177,0.20965576,0.4375,-0.359375,1.015625
452,-0.0637207,-0.975647,0.24212646,0.375,0.609375,-0.65625
453,-0.08178711,-0.9585571,0.20062256,-1.25,1.3125,0.296875
454,-0.052978516,-0.95684814,0.21038818,-0.40625,1.390625,-0.859375
455,-0.0690918,-0.9758911,0.23406982,0.9375,0.359375,-0.109375
456,-0.057861328,-0.9607544,0.21307373,-0.28125,0.296875,-0.046875
457,-0.061035156,-0.958313,0.215271,0.859375,-1.4375,0.125
458,-0.064697266,-0.97125244,0.2164917,-0.3125,-1.484375,-0.09375
459,-0.057617188,-0.96661377,0.22137451,-0.4375,-1.265625,-0.125
460,-0.0637207,-0.9624634,0.21234131,-0.28125,-0.640625,0.015625
461,-0.057617188,-0.9656372,0.20794678,-0.515625,-1.625,0.3125
462,-0.06201172,-0.96661377,0.2243042,-0.546875,-1.578125,-0.09375
463,-0.080566406,-0.9776001,0.21990967,-0.515625,-1.421875,0.0
464,-0.052978516,-0.9534302,0.2218628,0.046875,-1.046875,0.03125
465,-0.056152344,-0.9636841,0.18865967,-0.640625,0.46875,-0.28125
466,-0.061279297,-0.9612427,0.23553467,0.546875,-0.859375,-0.328125
467,-0.068603516,-0.96051025,0.20965576,-0.90625,0.109375,-0.140625
468,-0.06298828,-0.9585571,0.22503662,0.46875,0.15625,-0.546875
469,-0.07104492,-0.9663696,0.22015381,-0.234375,-0.453125,0.0
470,-0.059326172,-0.96343994,0.21453857,-0.53125,-0.296875,0.0
471,-0.055908203,-0.9685669,0.22039795,0.28125,-0.84375,0.234375
472,-0.07495117,-0.9644165,0.2098999,-0.21875,-0.125,0.5
473,-0.05444336,-0.95684814,0.21453857,0.4375,-0.53125,0.46875
474,-0.06958008,-0.9714966,0.21453857,0.3125,-0.671875,0.140625
475,-0.051513672,-0.9619751,0.20452881,1.125,-1.75,0.296875
476,-0.057373047,-0.96710205,0.20672607,0.21875,-1.34375,0.015625
477,-0.06347656,-0.9624634,0.20355225,0.046875,-1.59375,-0.453125
478,-0.063964844,-0.9807739,0.20794678,-0.875,-2.21875,-0.1875
479,-0.063964844,-0.94659424,0.21453857,-1.28125,-1.859375,-0.78125
480,-0.06323242,-0.96832275,0.20794678,-2.0,-0.796875,-0.390625
481,-0.051513672,-0.96539307,0.2033081,-2.125,-0.484375,-1.546875
482,-0.07836914,-0.9627075,0.22528076,0.125,-1.375,-0.109375
483,-0.07373047,-0.96832275,0.22161865,-0.390625,-1.40625,-0.109375
484,-0.06201172,-0.9446411,0.2098999,-0.734375,-0.375,-0.390625
485,-0.068115234,-0.96343994,0.21600342,-0.625,0.609375,-0.671875
486,-0.059570312,-0.9607544,0.20379639,-0.046875,0.921875,-0.5625
487,-0.07543945,-0.96099854,0.2111206,-0.015625,-0.265625,0.09375
488,-0.07006836,-0.9661255,0.22259521,-0.78125,-1.109375,-0.59375
489,-0.06982422,-0.96051025,0.21282959,-0.734375,-1.375,0.0
490,-0.07299805,-0.96588135,0.21038818,-0.765625,-1.21875,-0.515625
491,-0.06591797,-0.9678345,0.22015381,0.3125,-0.078125,-0.15625
492,-0.06933594,-0.975647,0.19256592,-0.9375,1.90625,-0.5
493,-0.06567383,-0.958313,0.21063232,0.296875,-0.203125,-0.34375
494,-0.0715332,-0.97003174,0.20916748,-1.125,1.015625,-0.515625
495,-0.068359375,-0.9644165,0.21331787,0.09375,0.578125,-0.90625
496,-0.07128906,-0.9714966,0.21868896,-0.5625,-0.1875,-0.15625
497,-0.06713867,-0.95440674,0.2140503,-0.921875,-0.984375,-0.25
498,-0.06738281,-0.96588135,0.22235107,-1.3125,-2.796875,0.03125
499,-0.091308594,-0.9607544,0.21966553,-2.953125,-2.375,0.109375
500,-0.06518555,-0.9570923,0.22210693,-2.3125,0.015625,-1.0
501,-0.07397461,-0.9663696,0.21795654,-0.109375,0.234375,-0.546875
502,-0.07446289,-0.9512329,0.22064209,0.421875,0.0,-0.484375
503,-0.087646484,-0.9590454,0.23529053,0.4375,0.203125,-0.90625
504,-0.08251953,-0.97076416,0.23553467,-0.078125,0.796875,0.09375
505,-0.08642578,-0.9639282,0.21917725,0.03125,-0.203125,0.890625
506,-0.06542969,-0.9507446,0.23895264,0.484375,-0.125,-0.484375
507,-0.06542969,-0.98443604,0.22357178,-0.265625,-1.1875,-0.109375
508,-0.0546875,-0.9458618,0.20843506,0.5625,-2.546875,-1.1875
509,-0.06591797,-0.95318604,0.21575928,2.328125,-5.125,-1.109375
510,-0.061523438,-0.95025635,0.20550537,1.890625,-5.234375,-1.671875
511,-0.09375,-0.95196533,0.21087646,1.875,-3.546875,-0.265625
512,-0.16235352,-0.93341064,0.19647217,-0.375,-4.25,-0.484375
513,-0.1640625,-0.9717407,0.19110107,-3.703125,-5.09375,-2.375
514,-0.16918945,-0.9846802,0.19403076,-2.859375,-6.015625,-0.875
515,-0.18798828,-0.95977783,0.17279053,-1.625,-5.25,0.921875
516,-0.19116211,-0.94317627,0.21209717,-3.90625,-0.59375,0.546875
517,-0.18041992,-0.9204712,0.19598389,-3.828125,-3.0,0.78125
518,-0.18408203,-0.92803955,0.1864624,-4.53125,-1.078125,0.0
519,-0.17382812,-0.9524536,0.2062378,-2.890625,0.171875,-1.25
520,-0.17895508,-0.9495239,0.22088623,-1.71875,2.5625,-0.734375
521,-0.17211914,-0.9456177,0.22479248,-0.65625,2.5625,1.046875
522,-0.18481445,-0.9649048,0.24627686,-1.65625,1.296875,0.515625
523,-0.17675781,-0.9456177,0.24017334,-0.203125,1.625,0.453125
524,-0.14624023,-0.95025635,0.21844482,-0.171875,2.59375,0.25
525,-0.15795898,-0.9507446,0.2501831,1.671875,1.484375,2.265625
526,-0.15722656,-0.9690552,0.21551514,2.703125,1.375,2.15625
527,-0.16699219,-0.9402466,0.21502686,1.515625,0.046875,1.734375
528,-0.13769531,-0.96881104,0.23040771,-0.03125,0.8125,1.40625
529,-0.15844727,-0.9924927,0.21942139,-1.390625,-0.09375,0.15625
530,-0.15039062,-0.98272705,0.21990967,-0.65625,-0.046875,0.125
531,-0.14819336,-0.9763794,0.20184326,0.390625,0.328125,1.09375
532,-0.14355469,-0.93927,0.2074585,1.578125,0.625,1.375
533,-0.13647461,-0.9336548,0.21063232,0.375,-3.59375,1.359375
534,-0.18603516,-0.9734497,0.25042725,0.046875,-4.421875,-1.03125
535,-0.107177734,-0.9907837,0.18328857,0.125,0.96875,0.203125
536,-0.14746094,-0.94244385,0.20697021,2.734375,1.765625,1.984375
537,-0.1328125,-0.92315674,0.23284912,-2.203125,-6.71875,1.015625
538,-0.14770508,-0.98931885,0.22845459,-4.359375,-4.75,0.71875
539,-0.1159668,-0.99786377,0.2387085,-3.6875,-3.578125,1.0
540,-0.15844727,-0.944397,0.20574951,-2.796875,-3.046875,1.765625
541,-0.1315918,-0.9390259,0.2387085,-1.109375,-5.15625,1.96875
542,-0.15551758,-0.92633057,0.23895264,-3.359375,-3.0,1.640625
543,-0.12475586,-0.94854736,0.22894287,-3.328125,-1.140625,0.109375
544,-0.13623047,-0.9817505,0.25238037,-0.359375,-3.96875,0.984375
545,-0.12597656,-0.94659424,0.22845459,-2.390625,-2.0,1.8125
546,-0.13574219,-0.9368286,0.23895264,-1.21875,-2.546875,0.5
547,-0.13964844,-0.9524536,0.25482178,-1.046875,-1.75,0.90625
548,-0.14257812,-0.9434204,0.24798584,-0.84375,-1.421875,0.453125
549,-0.12207031,-0.95098877,0.24090576,-0.453125,-0.203125,0.328125
550,-0.14135742,-0.9570923,0.25897217,-0.4375,-0.546875,-0.078125
551,-0.13354492,-0.94732666,0.26019287,-0.078125,0.359375,-0.25
552,-0.15551758,-0.96051025,0.25750732,-0.8125,1.140625,0.34375
553,-0.10644531,-0.9356079,0.24578857,0.5,1.375,-0.09375
554,-0.13232422,-0.9573364,0.23846436,0.015625,0.453125,0.109375
555,-0.13012695,-0.9541626,0.2518921,0.03125,0.40625,-0.6875
556,-0.13232422,-0.9595337,0.25775146,-0.234375,0.03125,-0.015625
557,-0.12719727,-0.9487915,0.24822998,-1.0,-1.453125,0.5625
558,-0.12963867,-0.9434204,0.26263428,-0.96875,-3.8125,0.546875
559,-0.12841797,-0.9636841,0.22918701,-1.25,-2.109375,1.0625
560,-0.11669922,-0.9561157,0.24334717,-0.203125,-1.765625,0.65625
561,-0.11425781,-0.95098877,0.24920654,0.96875,0.3125,0.78125
562,-0.12207031,-0.94122314,0.2453003,-0.09375,-0.25,0.53125
563,-0.12109375,-0.9451294,0.24578857,0.1875,-0.53125,-0.25
564,-0.11303711,-0.954895,0.24017334,0.359375,-1.203125,0.78125
565,-0.13110352,-0.9495239,0.23504639,-0.0625,0.140625,-0.234375
566,-0.12548828,-0.9570923,0.25335693,-0.234375,-1.71875,0.375
567,-0.1105957,-0.93878174,0.25531006,0.140625,-0.34375,-0.46875
568,-0.13964844,-0.95513916,0.23358154,-1.234375,-1.4375,0.0625
569,-0.12524414,-0.96051025,0.24578857,-1.296875,0.0,-1.109375
570,-0.12719727,-0.9534302,0.25701904,0.703125,-0.390625,0.234375
571,-0.11743164,-0.95318604,0.24066162,0.234375,0.265625,0.28125
572,-0.11254883,-0.9446411,0.23846436,0.75,0.3125,-0.28125
573,-0.13574219,-0.95758057,0.24310303,0.0,-0.4375,0.0625
574,-0.12133789,-0.95562744,0.2374878,-0.125,-0.046875,-0.296875
575,-0.13305664,-0.9512329,0.24456787,0.125,-1.234375,-0.28125
576,-0.1274414,-0.95880127,0.24969482,-1.09375,-1.328125,-0.171875
577,-0.12182617,-0.95196533,0.23431396,-1.125,-1.03125,-0.375
578,-0.122558594,-0.95196533,0.24603271,-1.171875,-0.6875,0.0
579,-0.123535156,-0.95440674,0.24407959,-0.921875,-1.0625,-0.375
580,-0.13085938,-0.9578247,0.25946045,-0.328125,-0.84375,-0.28125
581,-0.111083984,-0.940979,0.20794678,-1.71875,1.515625,-0.3125
582,-0.12084961,-0.94073486,0.2518921,-0.53125,-1.6875,-0.28125
583,-0.13452148,-0.96221924,0.23675537,-0.75,0.96875,-1.21875
584,-0.12182617,-0.9595337,0.25506592,-0.046875,1.0625,-0.84375
585,-0.13500977,-0.95025635,0.24578857,-0.5,0.578125,0.125
586,-0.12597656,-0.9417114,0.23260498,-0.375,0.859375,-0.40625
587,-0.1159668,-0.96759033,0.25482178,0.5,-0.65625,-0.03125
588,-0.13452148,-0.9487915,0.23724365,0.296875,0.125,0.328125
589,-0.12670898,-0.9561157,0.25286865,1.59375,-0.4375,0.1875
590,-0.1381836,-0.940979,0.24749756,0.40625,-1.34375,0.921875
591,-0.12890625,-0.9512329,0.22943115,-0.40625,-2.65625,0.640625
592,-0.12524414,-0.960022,0.230896,-1.0,-3.359375,0.359375
593,-0.12866211,-0.9446411,0.2230835,-1.046875,-3.703125,-0.3125
594,-0.119628906,-0.9458618,0.23675537,-1.078125,-3.453125,-0.171875
595,-0.14550781,-0.9631958,0.24407959,-2.296875,-4.625,0.328125
596,-0.14135742,-0.95977783,0.2518921,-2.5625,-1.6875,-0.046875
597,-0.1274414,-0.9524536,0.23236084,-1.8125,0.015625,-0.140625
598,-0.13549805,-0.95562744,0.24212646,-1.046875,0.640625,-0.953125
599,-0.12451172,-0.95758057,0.24285889,0.109375,0.953125,-0.359375
600,-0.13745117,-0.9541626,0.24481201,-0.375,0.078125,-0.71875
601,-0.12841797,-0.9529419,0.25213623,0.375,-0.234375,-0.484375
602,-0.13793945,-0.9553833,0.25213623,-0.28125,-0.796875,-0.15625
603,-0.11230469,-0.94537354,0.23114014,-0.265625,-0.796875,0.265625
604,-0.13696289,-0.9649048,0.24700928,-0.453125,-1.375,0.046875
605,-0.13378906,-0.95025635,0.24822998,-0.703125,-2.1875,0.421875
606,-0.13549805,-0.9500122,0.24310303,-0.703125,-2.484375,0.15625
607,-0.13452148,-0.9573364,0.23797607,0.109375,-1.953125,0.5625
608,-0.13208008,-0.9578247,0.24066162,-0.40625,-1.015625,0.375
609,-0.13647461,-0.9578247,0.24481201,0.21875,-2.25,0.265625
610,-0.12402344,-0.9336548,0.23919678,0.515625,-0.671875,0.078125
611,-0.14550781,-0.96099854,0.23699951,0.125,-1.734375,0.484375
612,-0.12207031,-0.954895,0.23040771,-0.859375,-1.625,-0.53125
613,-0.13598633,-0.9546509,0.25360107,-0.578125,-1.96875,0.046875
614,-0.14379883,-0.95806885,0.24383545,-1.109375,-1.609375,0.1875
615,-0.12109375,-0.9446411,0.23651123,-0.59375,-0.796875,-0.171875
616,-0.13769531,-0.9651489,0.246521,-0.640625,0.125,-0.09375
617,-0.12548828,-0.94903564,0.246521,-0.109375,0.375,0.546875
618,-0.1274414,-0.95440674,0.24432373,0.421875,0.25,-0.046875
619,-0.12597656,-0.95391846,0.24603271,-0.125,0.421875,0.21875
620,-0.13989258,-0.94317627,0.2411499,0.046875,0.15625,-0.109375
621,-0.13208008,-0.958313,0.24822998,-0.046875,0.203125,0.015625
622,-0.13671875,-0.9578247,0.2423706,-0.3125,0.09375,-0.125
623,-0.13061523,-0.95098877,0.25531006,0.390625,0.296875,0.28125
624,-0.12866211,-0.9607544,0.22161865,-1.4375,1.359375,0.078125
625,-0.123046875,-0.9553833,0.24627686,-0.5,-0.75,0.25
626,-0.13012695,-0.960022,0.23162842,-1.0625,0.796875,0.109375
627,-0.11230469,-0.95196533,0.24822998,0.234375,-0.640625,-0.234375
628,-0.13989258,-0.9639282,0.24871826,-0.1875,-1.21875,0.25
629,-0.11425781,-0.9439087,0.24725342,-0.96875,-1.421875,0.125
630,-0.12915039,-0.9578247,0.2489624,-0.46875,-2.921875,0.5625
631,-0.13745117,-0.9470825,0.24700928,-1.734375,-3.046875,1.015625
632,-0.12817383,-0.9480591,0.24163818,-0.890625,-0.296875,1.046875
633,-0.1262207,-0.9624634,0.26190186,-0.921875,-0.421875,0.265625
634,-0.11743164,-0.94415283,0.23699951,-0.03125,-0.34375,0.265625
635,-0.11425781,-0.9522095,0.2555542,-0.328125,-1.0,-0.109375
636,-0.13378906,-0.96051025,0.2489624,-0.640625,-1.3125,-0.203125
637,-0.12524414,-0.94244385,0.24334717,-0.265625,-2.4375,0.28125
638,-0.125,-0.9678345,0.2477417,-1.125,-1.53125,-0.421875
639,-0.13378906,-0.95880127,0.2518921,-1.046875,-1.9375,0.75
640,-0.12646484,-0.94488525,0.2374878,0.078125,1.21875,-0.140625
641,-0.13500977,-0.95806885,0.2555542,1.5,0.734375,-0.578125
642,-0.12011719,-0.9573364,0.24920654,0.734375,1.140625,0.421875
643,-0.12695312,-0.93927,0.23602295,0.03125,0.90625,-0.453125
644,-0.12182617,-0.95635986,0.2489624,0.578125,-0.03125,-0.578125
645,-0.12915039,-0.9529419,0.23577881,-0.265625,0.421875,-0.1875
646,-0.123535156,-0.9483032,0.24945068,-0.4375,-0.875,-0.046875
647,-0.1315918,-0.95391846,0.23797607,-0.25,-1.25,-0.25
648,-0.12646484,-0.9541626,0.24090576,-0.515625,-1.296875,0.0625
649,-0.12817383,-0.95513916,0.2387085,-0.546875,0.703125,-0.46875
650,-0.1184082,-0.9644165,0.23724365,0.859375,-0.109375,0.0
651,-0.12792969,-0.95196533,0.23846436,0.109375,1.1875,-0.1875
652,-0.122802734,-0.95806885,0.2374878,-0.140625,0.046875,-0.0625
653,-0.12133789,-0.9590454,0.25335693,0.359375,-0.046875,-0.1875
654,-0.12939453,-0.9663696,0.2255249,-0.625,0.703125,0.03125
655,-0.119384766,-0.95562744,0.23309326,0.703125,0.765625,-0.8125
656,-0.1352539,-0.9558716,0.2453003,0.0,-0.375,0.203125
657,-0.123046875,-0.95318604,0.2333374,0.15625,0.359375,-0.125
658,-0.12597656,-0.9534302,0.23919678,0.546875,0.53125,0.078125
659,-0.125,-0.95318604,0.23040771,0.0625,-0.203125,0.046875
660,-0.11743164,-0.95391846,0.2255249,-0.3125,-0.65625,-0.046875
661,-0.13134766,-0.96221924,0.2333374,-0.1875,-0.25,-0.046875
662,-0.115722656,-0.95269775,0.23260498,-0.5625,-0.28125,-0.03125
663,-0.12597656,-0.9553833,0.23651123,-0.03125,-0.46875,-0.1875
664,-0.11694336,-0.9636841,0.22845459,-0.75,-0.953125,-0.375
665,-0.123046875,-0.9512329,0.23626709,-0.484375,-0.828125,-0.171875
666,-0.13574219,-0.9612427,0.24578857,-0.796875,-1.484375,-0.0625
667,-0.11425781,-0.9570923,0.23724365,-0.671875,-0.65625,-0.421875
668,-0.13452148,-0.9578247,0.21844482,-0.78125,-0.703125,-0.203125
669,-0.11816406,-0.9553833,0.23236084,-0.53125,0.296875,-0.90625
670,-0.1328125,-0.9614868,0.24359131,-0.359375,-0.359375,0.25
671,-0.11621094,-0.9522095,0.22991943,-0.5,0.28125,0.09375
672,-0.119628906,-0.9495239,0.24578857,0.03125,-0.765625,-0.203125
673,-0.12524414,-0.9685669,0.23822021,-0.296875,-0.84375,0.21875
674,-0.12036133,-0.9524536,0.23675537,-0.609375,-0.1875,-0.203125
675,-0.12646484,-0.95440674,0.23480225,-0.25,-0.71875,-0.140625
676,-0.11987305,-0.954895,0.22698975,-0.34375,-1.125,0.078125
677,-0.12524414,-0.95635986,0.23480225,-0.375,-1.265625,-0.375
678,-0.12841797,-0.9627075,0.23504639,-0.265625,-0.578125,-0.5
679,-0.1262207,-0.95098877,0.23260498,-0.03125,-0.484375,-0.359375
680,-0.13354492,-0.9614868,0.2411499,-0.25,-0.828125,-0.1875
681,-0.12133789,-0.95269775,0.246521,0.109375,-0.03125,-1.09375
682,-0.140625,-0.9636841,0.21575928,-0.6875,-0.1875,0.0625
683,-0.1274414,-0.9624634,0.24066162,-0.203125,-0.015625,-1.015625
684,-0.13427734,-0.9553833,0.2399292,-0.03125,-0.453125,0.015625
685,-0.12011719,-0.9495239,0.22576904,-0.3125,-0.078125,-0.171875
686,-0.13232422,-0.9475708,0.23236084,0.109375,-1.28125,-0.15625
687,-0.13183594,-0.96710205,0.2255249,0.0625,-0.90625,0.640625
688,-0.11254883,-0.94781494,0.230896,-0.453125,-1.0,-0.34375
689,-0.1459961,-0.9680786,0.23699951,0.0,-1.0,0.03125
690,-0.12939453,-0.9451294,0.23577881,-0.46875,-0.5,0.03125
691,-0.11767578,-0.9553833,0.2267456,-0.125,-2.421875,0.578125
692,-0.115478516,-0.9546509,0.21722412,-0.453125,-5.640625,1.46875
693,-0.1628418,-0.9573364,0.23358154,-2.421875,-6.9375,2.359375
694,-0.11401367,-0.9668579,0.2333374,-1.328125,-2.453125,0.703125
695,-0.123535156,-0.95513916,0.23675537,-0.921875,0.953125,-0.484375
696,-0.11694336,-0.96173096,0.20794678,0.0,-0.375,0.234375
697,-0.12817383,-0.9573364,0.24676514,0.484375,-1.34375,-0.828125
698,-0.14038086,-0.9614868,0.23358154,-0.296875,-1.03125,0.484375
699,-0.125,-0.95025635,0.22796631,-0.765625,-0.28125,-0.328125
700,-0.119384766,-0.95684814,0.24163818,-0.046875,0.359375,-0.375
701,-0.12915039,-0.95806885,0.22283936,0.03125,-0.546875,0.21875
702,-0.118652344,-0.9553833,0.23114014,-0.421875,-0.203125,-0.015625
703,-0.1328125,-0.9639282,0.23187256,-0.25,0.140625,0.40625
704,-0.12011719,-0.9487915,0.23040771,0.390625,0.1875,0.328125
705,-0.12036133,-0.96051025,0.23065186,0.515625,0.84375,0.28125
706,-0.12426758,-0.95562744,0.22332764,0.015625,-0.171875,0.21875
707,-0.12646484,-0.95635986,0.23114014,-0.296875,-0.203125,-0.046875
708,-0.12475586,-0.96221924,0.23065186,0.3125,-1.828125,0.046875
709,-0.12402344,-0.95513916,0.24139404,0.53125,-1.953125,0.046875
710,-0.123291016,-0.96173096,0.21038818,-1.75,-2.0625,-0.015625
711,-0.13012695,-0.95562744,0.22723389,-1.359375,1.265625,-0.84375
712,-0.1262207,-0.96881104,0.24700928,-0.53125,0.140625,0.046875
713,-0.11230469,-0.9558716,0.22039795,-0.640625,2.796875,-0.390625
714,-0.118652344,-0.9492798,0.23822021,-0.25,1.171875,-0.765625
715,-0.13134766,-0.96099854,0.23358154,0.171875,1.875,-0.421875
716,-0.12011719,-0.9536743,0.22991943,-0.15625,0.703125,-0.796875
717,-0.13110352,-0.9631958,0.23797607,-0.25,-0.40625,-0.078125
718,-0.12036133,-0.960022,0.22845459,0.34375,0.1875,-0.203125
719,-0.12646484,-0.9534302,0.22845459,0.46875,-0.53125,0.1875
720,-0.119140625,-0.9668579,0.23529053,0.234375,-1.375,-0.046875
721,-0.12841797,-0.96221924,0.2321167,0.90625,-0.6875,0.25
722,-0.119384766,-0.9570923,0.22747803,2.21875,-1.890625,0.71875
723,-0.12670898,-0.95977783,0.21600342,0.40625,0.046875,0.046875
724,-0.115234375,-0.95635986,0.23187256,0.5,-2.0,0.421875
725,-0.12158203,-0.9529419,0.20037842,-0.125,-1.171875,-0.046875
726,-0.114746094,-0.9492798,0.22894287,-0.234375,-3.578125,0.125
727,-0.12915039,-0.960022,0.21502686,-1.25,-2.21875,0.171875
728,-0.11010742,-0.95098877,0.19891357,-0.8125,-1.375,-0.53125
729,-0.12182617,-0.9727173,0.21942139,-1.4375,-1.734375,-0.40625
730,-0.12133789,-0.9561157,0.21917725,-1.5,-0.078125,-0.625
731,-0.12963867,-0.96417236,0.21673584,-1.171875,0.453125,-0.984375
732,-0.12719727,-0.9529419,0.22821045,-1.015625,-0.40625,-0.265625
733,-0.12841797,-0.96173096,0.21820068,-0.984375,-0.109375,-0.578125
734,-0.11694336,-0.95025635,0.230896,-1.359375,-1.96875,-0.03125
735,-0.14135742,-0.9673462,0.23309326,-2.28125,-2.40625,0.234375
736,-0.12792969,-0.96466064,0.23846436,-1.703125,-1.703125,-0.453125
737,-0.11328125,-0.956604,0.19476318,-3.046875,1.15625,-0.53125
738,-0.10644531,-0.95147705,0.22918701,-1.25,-0.078125,-1.234375
739,-0.13989258,-0.93414307,0.21820068,-2.15625,-0.125,-1.125
740,-0.13256836,-0.9751587,0.2506714,-1.625,-1.203125,-1.625
741,-0.14770508,-0.95318604,0.24505615,-1.984375,-1.828125,0.109375
742,-0.12548828,-0.94781494,0.22991943,-1.90625,-1.3125,-0.46875
743,-0.1159668,-0.97003174,0.24017334,-2.3125,-1.828125,-0.671875
744,-0.1430664,-0.94073486,0.23919678,-2.171875,-1.390625,-0.140625
745,-0.14160156,-0.9590454,0.25360107,-0.96875,-1.453125,-0.515625
746,-0.14208984,-0.94732666,0.24969482,-1.125,2.03125,-0.984375
747,-0.13208008,-0.9475708,0.2489624,0.015625,1.234375,-1.140625
748,-0.13549805,-0.960022,0.24627686,0.015625,0.140625,-0.0625
749,-0.14135742,-0.95147705,0.2543335,-0.046875,0.515625,-0.71875
750,-0.14868164,-0.9546509,0.25775146,0.46875,1.09375,-0.46875
751,-0.14697266,-0.94659424,0.23944092,-0.953125,2.546875,-0.359375
752,-0.123535156,-0.9607544,0.25775146,0.21875,2.796875,-1.15625
753,-0.14794922,-0.96051025,0.23895264,0.125,3.4375,-0.265625
754,-0.14282227,-0.95391846,0.24554443,2.890625,2.34375,-1.03125
755,-0.1550293,-0.9692993,0.2374878,2.4375,-1.359375,2.421875
756,-0.12866211,-0.96173096,0.2230835,0.75,-1.265625,1.515625
757,-0.12963867,-0.9619751,0.20306396,0.484375,-2.703125,1.234375
758,-0.1303711,-0.9483032,0.21307373,0.203125,-1.71875,1.109375
