sample_no,accel_x,accel_y,accel_z,gyro_x,gyro_y,gyro_z
0,0.39501953,-0.16949463,-0.81988525,0.65625,0.484375,-0.765625
1,0.4194336,-0.15875244,-0.87823486,-1.671875,0.609375,-1.59375
2,0.42138672,-0.16046143,-0.89263916,-2.5625,0.625,-1.71875
3,0.41455078,-0.15997314,-0.90582275,-0.484375,0.625,-0.84375
4,0.4230957,-0.13946533,-0.880188,6.75,0.328125,1.078125
5,0.40283203,-0.12359619,-0.87286377,6.640625,3.734375,2.65625
6,0.38378906,-0.15142822,-0.7932739,5.953125,4.125,2.421875
7,0.39648438,-0.13873291,-0.8850708,1.953125,2.953125,0.28125
8,0.40942383,-0.14019775,-0.8897095,2.4375,0.8125,0.234375
9,0.41967773,-0.12359619,-0.9187622,1.5625,0.546875,-0.03125
10,0.40014648,-0.043029785,-1.085022,10.71875,9.25,13.921875
11,0.36108398,-0.113342285,-0.7793579,16.765625,4.609375,10.359375
12,0.30688477,-0.08868408,-0.77178955,7.65625,1.625,3.125
13,0.39697266,-0.08087158,-0.8845825,1.515625,0.578125,0.46875
14,0.3725586,-0.053771973,-0.84576416,-1.515625,2.390625,-1.25
15,0.36499023,-0.07574463,-0.8616333,-2.984375,1.953125,-2.109375
16,0.38427734,-0.07965088,-0.93707275,-2.328125,-0.015625,-1.84375
17,0.38208008,-0.09234619,-0.9085083,-3.265625,-0.828125,-1.84375
18,0.37890625,-0.097473145,-0.8928833,-3.578125,1.125,-2.140625
19,0.36816406,-0.086242676,-0.88238525,-1.625,0.1875,-1.1875
20,0.39160156,-0.08868408,-0.88360596,-0.25,-0.6875,-0.578125
21,0.3828125,-0.09307861,-0.91241455,1.375,0.46875,0.046875
22,0.38793945,-0.09136963,-0.8880005,0.578125,0.921875,0.265625
23,0.3774414,-0.09820557,-0.88848877,-1.234375,1.53125,0.453125
24,0.36450195,-0.09259033,-0.835022,-8.515625,4.125,-1.671875
25,0.36328125,-0.117248535,-0.89141846,-20.0,8.25,-4.21875
26,0.32617188,-0.13092041,-0.91192627,-12.625,5.4375,-3.671875
27,0.35058594,-0.15289307,-0.89801025,-3.609375,2.15625,-1.734375
28,0.34277344,-0.15167236,-0.8855591,-0.90625,0.9375,-0.390625
29,0.35839844,-0.15264893,-0.9146118,0.5,-0.734375,0.234375
30,0.36035156,-0.15264893,-0.9175415,1.53125,-0.5,0.828125
31,0.3466797,-0.1519165,-0.91534424,2.734375,-2.5625,1.109375
32,0.34350586,-0.13287354,-0.8804321,5.765625,-9.328125,2.3125
33,0.3635254,-0.13653564,-0.8779907,1.5,-11.34375,0.421875
34,0.40673828,-0.14337158,-0.894104,5.46875,-9.921875,-0.171875
35,0.4296875,-0.12408447,-0.8640747,5.1875,-5.171875,-0.125
36,0.32470703,-0.109680176,-0.7210083,3.453125,2.1875,0.328125
37,0.36621094,-0.11187744,-0.8291626,3.234375,1.859375,0.3125
38,0.42895508,-0.124572754,-0.9326782,-1.859375,2.734375,-1.640625
39,0.4255371,-0.12335205,-0.9812622,-2.890625,2.796875,-1.921875
40,0.4230957,-0.12188721,-0.9404907,-2.359375,0.421875,-1.78125
41,0.3869629,-0.12799072,-0.82232666,1.015625,-1.171875,0.109375
42,0.3515625,-0.11529541,-0.79107666,2.0625,-0.21875,0.65625
43,0.35766602,-0.093322754,-0.81036377,3.59375,0.59375,1.515625
44,0.40014648,-0.10821533,-0.90997314,0.4375,2.171875,-0.296875
45,0.38110352,-0.124816895,-0.89263916,1.765625,1.640625,-0.203125
46,0.37426758,-0.11187744,-0.8652954,0.46875,0.6875,-0.5625
47,0.37158203,-0.12896729,-0.8965454,0.078125,1.328125,-0.328125
48,0.3947754,-0.12408447,-0.9077759,-1.0,0.21875,-0.84375
49,0.38989258,-0.11138916,-0.88360596,-0.15625,0.234375,-0.359375
50,0.39990234,-0.108947754,-0.8814087,1.359375,1.59375,0.28125
51,0.35791016,-0.10235596,-0.86065674,2.0625,0.28125,0.453125
52,0.3696289,-0.101379395,-0.8579712,1.59375,1.59375,-0.015625
53,0.38354492,-0.09869385,-0.8735962,0.53125,1.984375,-0.34375
54,0.3725586,-0.11456299,-0.8777466,0.71875,0.203125,-0.296875
55,0.38452148,-0.10699463,-0.8953247,1.046875,0.546875,-0.421875
56,0.3623047,-0.101867676,-0.8521118,0.375,0.15625,-0.609375
57,0.38500977,-0.10308838,-0.9053345,-0.0625,1.046875,-0.6875
58,0.3857422,-0.09820557,-0.9224243,1.84375,0.25,-0.125
59,0.38891602,-0.10650635,-0.91070557,1.4375,1.15625,-0.03125
60,0.36132812,-0.108947754,-0.8413696,1.21875,0.09375,0.21875
61,0.37597656,-0.10406494,-0.8796997,-0.421875,1.46875,-0.625
62,0.3659668,-0.10772705,-0.8699341,0.21875,0.515625,-0.3125
63,0.36865234,-0.09893799,-0.88897705,-0.875,1.03125,-0.890625
64,0.35986328,-0.10089111,-0.8652954,-0.296875,0.4375,-0.484375
65,0.37402344,-0.10699463,-0.8921509,-1.203125,1.96875,-1.140625
66,0.36083984,-0.10699463,-0.8882446,0.515625,0.640625,-0.34375
67,0.37036133,-0.10308838,-0.9360962,2.03125,0.90625,0.015625
68,0.38330078,-0.089416504,-0.90997314,2.203125,1.28125,0.171875
69,0.34765625,-0.109436035,-0.8479614,1.5625,3.03125,0.1875
70,0.3491211,-0.11968994,-0.8569946,0.65625,2.734375,0.5
71,0.3461914,-0.06329346,-0.8435669,-5.1875,3.46875,-0.109375
72,0.3618164,-0.10235596,-0.9163208,-16.859375,4.40625,-3.328125
73,0.3474121,-0.12042236,-0.9212036,-16.8125,1.75,-3.765625
74,0.36865234,-0.16046143,-0.9089966,-8.046875,0.953125,-2.234375
75,0.3400879,-0.17193604,-0.89727783,-2.828125,1.1875,-0.796875
76,0.33276367,-0.16461182,-0.86431885,0.34375,0.578125,0.484375
77,0.34472656,-0.14483643,-0.9067993,1.0625,0.265625,0.671875
78,0.35375977,-0.15875244,-0.9290161,2.078125,-3.125,1.328125
79,0.3203125,-0.16119385,-0.85162354,6.828125,-8.703125,3.328125
80,0.34106445,-0.11505127,-0.8562622,6.6875,-8.796875,2.296875
81,0.3864746,-0.14678955,-0.9771118,6.234375,-12.296875,0.421875
82,0.48510742,-0.13482666,-0.8911743,7.25,-1.453125,0.015625
83,0.3725586,-0.10406494,-0.7695923,1.390625,-2.125,-0.734375
84,0.3803711,-0.11871338,-0.85479736,-0.5625,2.140625,-0.984375
85,0.39794922,-0.10992432,-0.88897705,-0.578125,3.109375,-0.984375
86,0.38452148,-0.109680176,-0.92974854,-0.21875,2.34375,-0.640625
87,0.4116211,-0.113098145,-0.90167236,0.71875,2.703125,0.03125
88,0.41357422,-0.11456299,-0.9343872,1.5625,0.921875,0.515625
89,0.37548828,-0.11920166,-0.87042236,0.953125,0.828125,0.3125
90,0.3581543,-0.113098145,-0.8406372,1.671875,0.703125,0.671875
91,0.35791016,-0.10015869,-0.8413696,1.03125,1.078125,0.125
92,0.3630371,-0.113342285,-0.8557739,2.421875,-0.390625,0.765625
93,0.38720703,-0.09918213,-0.8970337,0.25,0.609375,-0.28125
94,0.3864746,-0.10699463,-0.897522,-0.9375,0.921875,-0.53125
95,0.40429688,-0.12261963,-0.9277954,-3.515625,-0.640625,-1.421875
96,0.38671875,-0.11090088,-0.90704346,-1.875,1.171875,-1.015625
97,0.37768555,-0.109191895,-0.8262329,0.609375,-0.046875,0.0
98,0.37109375,-0.10308838,-0.8357544,-0.484375,2.328125,-0.59375
99,0.3659668,-0.10992432,-0.8521118,0.03125,1.78125,-0.203125
100,0.38842773,-0.10723877,-0.8804321,-1.859375,2.9375,-1.203125
101,0.3864746,-0.12579346,-0.9470825,-2.09375,2.296875,-1.390625
102,0.39331055,-0.13336182,-0.9351196,-0.375,-0.171875,-1.15625
103,0.37597656,-0.11383057,-0.87945557,-0.03125,-0.125,-0.953125
104,0.3347168,-0.117492676,-0.8274536,-0.421875,0.265625,-0.578125
105,0.3527832,-0.11407471,-0.8442993,-0.578125,1.0,0.171875
106,0.3857422,-0.10699463,-0.9356079,1.40625,-1.65625,0.421875
107,0.39086914,-0.12945557,-0.95196533,0.9375,-1.1875,-0.21875
108,0.37890625,-0.12042236,-0.88067627,1.15625,-1.0,-0.671875
109,0.37768555,-0.11090088,-0.8533325,2.015625,-0.34375,-0.34375
110,0.35913086,-0.117004395,-0.85357666,-0.15625,4.203125,-0.28125
111,0.3173828,-0.1116333,-0.81451416,1.125,3.875,0.875
112,0.36669922,-0.10308838,-0.95098877,1.25,0.09375,0.265625
113,0.40307617,-0.11260986,-0.95562744,0.703125,-1.203125,-0.546875
114,0.37817383,-0.11212158,-0.88604736,0.34375,-0.109375,-0.6875
115,0.3696289,-0.1116333,-0.86138916,-2.078125,-0.265625,-1.203125
116,0.36865234,-0.120910645,-0.8748169,-0.859375,0.828125,-0.515625
117,0.3400879,-0.101867676,-0.83795166,0.796875,2.53125,0.1875
118,0.36547852,-0.09625244,-0.8740845,0.09375,-0.5,0.078125
119,0.37939453,-0.113098145,-0.9534302,2.1875,-1.53125,0.015625
120,0.38989258,-0.108947754,-0.9246216,2.125,0.4375,0.078125
121,0.3503418,-0.113342285,-0.8484497,2.359375,2.90625,0.296875
122,0.31054688,-0.117248535,-0.78082275,-0.015625,4.5,-0.125
123,0.35742188,-0.09429932,-0.8394165,-7.375,8.765625,-1.65625
124,0.31054688,-0.1026001,-0.8862915,-19.40625,7.640625,-3.6875
125,0.34179688,-0.15093994,-0.94244385,-13.65625,4.25,-3.1875
126,0.359375,-0.17218018,-0.9573364,-5.703125,0.140625,-1.390625
127,0.34155273,-0.19268799,-0.9175415,-2.015625,-0.734375,-0.328125
128,0.32543945,-0.175354,-0.8623657,1.0,-0.046875,0.546875
129,0.3251953,-0.16339111,-0.87579346,3.96875,-2.53125,1.8125
130,0.34350586,-0.15899658,-0.9151001,4.0625,-3.453125,1.625
131,0.28588867,-0.11895752,-0.8574829,13.140625,-13.8125,4.140625
132,0.56469727,-0.14141846,-1.0327759,16.671875,-19.453125,1.625
133,0.32641602,-0.11846924,-0.69732666,9.203125,-2.015625,1.796875
134,0.33984375,-0.09918213,-0.7883911,-3.734375,-1.4375,-1.8125
135,0.35375977,-0.108947754,-0.8308716,-1.046875,1.859375,-1.1875
136,0.37548828,-0.09136963,-0.91290283,1.546875,0.859375,-0.0625
137,0.3840332,-0.09844971,-0.90753174,-0.90625,0.625,0.125
138,0.36889648,-0.10992432,-0.88726807,1.828125,0.203125,1.390625
139,0.3864746,-0.10211182,-0.90753174,-1.4375,1.59375,0.828125
140,0.35107422,-0.112854004,-0.82647705,0.953125,1.640625,-0.3125
141,0.40161133,-0.10601807,-0.8760376,0.0625,2.046875,-0.34375
142,0.36645508,-0.086242676,-0.9170532,-0.03125,1.9375,-0.390625
143,0.39160156,-0.10992432,-0.90338135,-1.015625,0.234375,-0.84375
144,0.39282227,-0.10455322,-0.8862915,-2.25,1.15625,-1.25
145,0.38720703,-0.11456299,-0.87823486,-0.734375,0.5625,-0.859375
146,0.37182617,-0.09918213,-0.8513794,-2.1875,1.125,-1.234375
147,0.41064453,-0.10650635,-0.9199829,-0.75,0.515625,-0.703125
148,0.39648438,-0.112854004,-0.9065552,0.921875,0.765625,-0.25
149,0.36938477,-0.12921143,-0.90093994,1.4375,1.453125,-0.078125
150,0.3540039,-0.11846924,-0.89141846,1.703125,0.5,0.484375
151,0.3330078,-0.105285645,-0.8369751,1.265625,0.03125,0.140625
152,0.39135742,-0.09918213,-0.89263916,-0.140625,-0.078125,-0.546875
153,0.36499023,-0.11016846,-0.8291626,-2.234375,2.078125,-1.25
154,0.3330078,-0.10797119,-0.7905884,-1.09375,3.09375,-0.6875
155,0.33129883,-0.10675049,-0.8123169,-6.265625,2.234375,-2.234375
156,0.39208984,-0.13165283,-0.93048096,-8.140625,6.9375,-2.515625
157,0.38061523,-0.12652588,-0.94732666,-8.921875,5.765625,-1.453125
158,0.37426758,-0.15509033,-0.96173096,-9.234375,4.625,-1.96875
159,0.33129883,-0.17462158,-0.9194946,-4.015625,1.203125,-0.984375
160,0.34350586,-0.1651001,-0.8699341,0.140625,-1.390625,0.09375
161,0.35229492,-0.16192627,-0.89312744,1.0625,-0.359375,-0.1875
162,0.3400879,-0.15679932,-0.87335205,1.9375,-0.453125,0.5625
163,0.3527832,-0.14703369,-0.894104,0.46875,0.359375,0.453125
164,0.3322754,-0.14727783,-0.8765259,0.015625,0.328125,0.578125
165,0.32983398,-0.1572876,-0.87579346,1.34375,0.25,0.71875
166,0.34350586,-0.15093994,-0.8982544,1.421875,-1.28125,0.921875
167,0.34570312,-0.13800049,-0.913147,2.296875,-4.359375,1.359375
168,0.32055664,-0.14068604,-0.86309814,5.078125,-8.25,2.390625
169,0.36743164,-0.12701416,-0.86016846,3.640625,-11.296875,1.5625
170,0.39990234,-0.144104,-0.8887329,1.859375,-9.71875,0.59375
171,0.44970703,-0.124572754,-0.9553833,10.984375,-12.34375,1.890625
172,0.41552734,-0.093322754,-0.8291626,5.140625,-3.109375,-1.21875
173,0.44384766,-0.11065674,-0.86968994,0.578125,-0.375,-1.375
174,0.42407227,-0.11236572,-0.90509033,-0.546875,0.171875,-1.421875
175,0.38842773,-0.11065674,-0.86968994,-3.53125,2.40625,-2.328125
176,0.40527344,-0.11065674,-0.80181885,-1.46875,2.453125,-1.484375
177,0.37524414,-0.14752197,-0.8513794,-1.53125,3.84375,-0.5625
178,0.39648438,-0.113342285,-0.8435669,2.546875,2.125,1.6875
179,0.36157227,-0.10357666,-0.800354,6.125,-0.046875,3.75
180,0.5136719,-0.128479,-1.0911255,4.09375,-0.765625,0.09375
181,0.45996094,-0.113342285,-0.8909302,-0.6875,-2.0625,-2.03125
182,0.3762207,-0.11798096,-0.8677368,-8.546875,1.96875,-3.78125
183,0.3840332,-0.11529541,-0.8928833,-3.640625,0.375,-2.078125
184,0.38500977,-0.12994385,-0.8284302,2.078125,0.09375,-0.125
185,0.3371582,-0.09991455,-0.75738525,4.0,1.875,0.96875
186,0.40795898,-0.08917236,-0.9180298,1.265625,0.234375,0.375
187,0.44384766,-0.12896729,-0.9793091,-4.421875,-1.71875,-1.96875
188,0.4272461,-0.13238525,-0.88482666,-5.75,-0.96875,-2.984375
189,0.38671875,-0.13238525,-0.83380127,-2.140625,0.953125,-1.296875
190,0.3317871,-0.11383057,-0.76153564,2.765625,3.046875,0.5625
191,0.36083984,-0.11187744,-0.80718994,3.71875,2.78125,1.25
192,0.37963867,-0.11260986,-0.82891846,4.65625,3.015625,1.375
193,0.38330078,-0.11090088,-0.8579712,2.40625,3.171875,0.46875
194,0.41088867,-0.11016846,-0.9312134,0.4375,1.765625,-0.484375
195,0.38305664,-0.12823486,-0.89971924,-4.65625,1.078125,-2.546875
196,0.39746094,-0.13604736,-0.9248657,-6.5625,-1.28125,-3.109375
197,0.43725586,-0.1482544,-0.987854,-6.453125,-1.453125,-2.765625
198,0.38134766,-0.13726807,-0.8609009,-2.75,-1.859375,-1.21875
199,0.35620117,-0.14483643,-0.82525635,0.828125,0.46875,0.1875
200,0.3215332,-0.12652588,-0.77227783,4.078125,2.0,1.28125
201,0.3618164,-0.12188721,-0.8291626,4.078125,3.546875,1.28125
202,0.38549805,-0.12286377,-0.9212036,4.03125,0.46875,1.5
203,0.42871094,-0.13873291,-0.95562744,-0.09375,-0.296875,-0.421875
204,0.40527344,-0.1404419,-0.9602661,-2.703125,-2.875,-1.3125
205,0.41845703,-0.14068604,-0.92071533,-4.0625,-4.625,-1.25
206,0.40795898,-0.14019775,-0.8911743,-11.21875,-3.984375,-3.3125
207,0.31958008,-0.14215088,-0.72320557,-14.84375,-1.09375,-4.359375
208,0.33007812,-0.15386963,-0.7024536,-3.765625,3.796875,-0.921875
209,0.37768555,-0.15802002,-0.84747314,0.546875,3.984375,0.96875
210,0.3815918,-0.17193604,-0.8826294,3.78125,4.546875,2.28125
211,0.35742188,-0.16705322,-0.8423462,8.34375,5.703125,3.75
212,0.37036133,-0.15826416,-0.9170532,6.234375,4.828125,2.8125
213,0.38256836,-0.13995361,-0.95977783,4.96875,-0.75,2.203125
214,0.40649414,-0.13287354,-1.0081177,0.671875,-8.3125,0.671875
215,0.39575195,-0.1296997,-0.94488525,-0.671875,-14.171875,-1.40625
216,0.53564453,-0.17779541,-0.9463501,-1.484375,-9.65625,-3.28125
217,0.29418945,-0.12945557,-0.64801025,1.09375,-1.5625,-1.265625
218,0.36108398,-0.12261963,-0.7383423,4.109375,3.6875,0.96875
219,0.37329102,-0.13409424,-0.8040161,6.515625,3.984375,2.234375
220,0.4206543,-0.12823486,-0.89923096,5.40625,3.859375,1.234375
221,0.46142578,-0.105529785,-0.9932251,-0.671875,0.328125,-0.453125
222,0.46264648,-0.128479,-0.9793091,-6.21875,-0.046875,-2.75
223,0.42919922,-0.1404419,-0.8862915,-6.234375,1.359375,-2.640625
224,0.35546875,-0.15240479,-0.8184204,-4.484375,3.359375,-1.40625
225,0.33129883,-0.117492676,-0.80255127,3.6875,0.6875,1.703125
226,0.39160156,-0.13702393,-0.8154907,4.171875,-3.40625,1.4375
227,0.3996582,-0.12896729,-0.8518677,4.140625,0.375,0.953125
228,0.45117188,-0.120666504,-0.9536743,-4.09375,1.734375,-1.75
229,0.41455078,-0.14874268,-0.88482666,-4.703125,6.0,-2.125
230,0.3647461,-0.15484619,-0.86602783,-6.84375,7.765625,-2.15625
231,0.3474121,-0.15533447,-0.8135376,-6.578125,3.21875,-1.984375
232,0.3701172,-0.159729,-0.8677368,-6.953125,4.84375,-2.484375
233,0.36035156,-0.16070557,-0.89068604,-2.703125,2.515625,-0.75
234,0.36645508,-0.159729,-0.8418579,2.921875,1.703125,1.453125
235,0.36669922,-0.15557861,-0.88848877,5.046875,1.25,2.46875
236,0.3737793,-0.14874268,-0.91534424,5.4375,-0.015625,2.15625
237,0.3408203,-0.1506958,-0.84820557,5.078125,-4.015625,1.921875
238,0.34838867,-0.13189697,-0.8740845,1.90625,-11.1875,0.75
239,0.4494629,-0.16168213,-0.96832275,-1.765625,-16.90625,-3.328125
240,0.49804688,-0.1675415,-0.9624634,-2.203125,-5.859375,-3.765625
241,0.30273438,-0.13946533,-0.66778564,-0.09375,0.078125,-1.484375
242,0.3359375,-0.13433838,-0.7803345,3.3125,3.6875,0.921875
243,0.39233398,-0.13702393,-0.8230591,3.890625,3.140625,1.359375
244,0.41333008,-0.13287354,-0.9006958,4.234375,2.921875,1.3125
245,0.47338867,-0.11651611,-0.94610596,0.46875,-1.078125,-0.171875
246,0.46313477,-0.14239502,-0.96759033,-2.84375,0.734375,-1.4375
247,0.3786621,-0.14508057,-0.86065674,-4.046875,1.09375,-1.390625
248,0.3491211,-0.1482544,-0.78692627,-2.90625,2.421875,-1.046875
249,0.36401367,-0.13458252,-0.8587036,1.84375,1.28125,0.390625
250,0.3791504,-0.13189697,-0.80010986,1.875,-1.15625,0.140625
251,0.41723633,-0.12872314,-0.8530884,-2.171875,1.90625,-1.375
252,0.41503906,-0.14996338,-0.9246216,-0.890625,5.125,-0.71875
253,0.35009766,-0.16021729,-0.85528564,0.421875,0.53125,0.234375
254,0.40454102,-0.16558838,-0.9038696,0.984375,-1.578125,-0.015625
255,0.38183594,-0.14801025,-0.8308716,0.546875,-0.875,-0.875
256,0.37890625,-0.12042236,-0.81817627,-1.734375,3.1875,-0.984375
257,0.38061523,-0.124572754,-0.8809204,0.421875,4.25,0.390625
258,0.35351562,-0.13800049,-0.8599243,1.859375,1.25,1.4375
259,0.3527832,-0.1506958,-0.84820557,1.09375,-0.625,0.359375
260,0.4128418,-0.16973877,-0.95025635,0.0,-1.984375,-0.96875
261,0.43066406,-0.13409424,-0.9248657,0.671875,-0.234375,-0.921875
262,0.39208984,-0.1326294,-0.8833618,-3.09375,0.375,-1.625
263,0.39624023,-0.14459229,-0.8858032,-1.609375,4.1875,-0.59375
264,0.34350586,-0.15582275,-0.7942505,0.671875,7.34375,0.703125
265,0.32202148,-0.14801025,-0.76690674,0.859375,5.375,1.6875
266,0.3623047,-0.1428833,-0.9351196,-0.484375,4.953125,0.515625
267,0.39624023,-0.14923096,-0.9570923,-1.546875,0.046875,-0.625
268,0.3828125,-0.14556885,-0.91412354,-3.234375,-1.046875,-1.203125
269,0.36914062,-0.15460205,-0.89727783,-3.890625,0.453125,-1.484375
270,0.35839844,-0.16485596,-0.86724854,-2.828125,0.71875,-0.78125
271,0.31933594,-0.1585083,-0.8076782,0.4375,0.734375,0.484375
272,0.33276367,-0.15997314,-0.83673096,3.265625,0.515625,1.265625
273,0.35180664,-0.14874268,-0.87457275,5.046875,-2.21875,2.015625
274,0.34350586,-0.1416626,-0.8843384,7.1875,-6.234375,3.09375
275,0.39038086,-0.12677002,-0.8711548,4.09375,-7.515625,1.625
276,0.39990234,-0.13531494,-0.9019165,1.265625,-6.25,0.53125
277,0.43408203,-0.13433838,-0.92755127,0.203125,-3.5,-0.203125
278,0.42016602,-0.12261963,-0.91656494,-1.4375,-3.0,-0.984375
279,0.4243164,-0.1362915,-0.8977661,-1.453125,-2.0625,-1.796875
280,0.42504883,-0.14556885,-0.93048096,1.234375,-3.203125,-1.28125
281,0.36914062,-0.11578369,-0.8130493,3.09375,-6.03125,-0.765625
282,0.38427734,-0.1194458,-0.79766846,0.484375,-2.75,-1.25
283,0.33276367,-0.08282471,-0.74957275,4.125,1.1875,2.3125
284,0.4025879,-0.078430176,-0.7888794,9.953125,9.21875,4.734375
285,0.41967773,-0.13043213,-0.8569946,7.5625,7.5625,1.21875
286,0.42285156,-0.11529541,-0.9595337,4.359375,4.546875,0.234375
287,0.42358398,-0.11773682,-0.95806885,2.1875,-0.328125,0.03125
288,0.4321289,-0.09625244,-0.9534302,-2.28125,0.53125,-0.6875
289,0.3947754,-0.089660645,-0.88165283,0.109375,-1.265625,0.40625
290,0.39135742,-0.085754395,-0.8569946,0.953125,0.125,0.421875
291,0.35766602,-0.08013916,-0.80596924,1.984375,-1.390625,0.578125
292,0.38989258,-0.07305908,-0.8599243,-0.75,0.1875,-0.578125
293,0.3815918,-0.09576416,-0.84332275,-1.296875,3.5,-0.828125
294,0.40234375,-0.09552002,-0.9155884,-0.84375,1.859375,-0.59375
295,0.36865234,-0.097229004,-0.80596924,2.140625,1.671875,0.09375
296,0.36743164,-0.08453369,-0.8430786,0.828125,2.15625,-0.28125
297,0.3798828,-0.0803833,-0.87872314,-0.484375,2.359375,-0.890625
298,0.43823242,-0.0947876,-0.991272,-2.5,1.625,-1.828125
299,0.4033203,-0.10430908,-0.92755127,-0.4375,1.171875,-0.8125
300,0.3479004,-0.09820557,-0.833313,1.578125,1.15625,0.609375
301,0.3828125,-0.09429932,-0.8423462,2.078125,1.03125,0.78125
302,0.36547852,-0.097473145,-0.86798096,2.09375,-0.03125,0.5625
303,0.38916016,-0.0725708,-0.93096924,-1.34375,0.1875,-0.875
304,0.36621094,-0.09185791,-0.8604126,-1.53125,0.40625,-0.9375
305,0.35961914,-0.093322754,-0.8491821,-1.21875,-0.734375,-0.84375
306,0.39404297,-0.09649658,-0.9312134,-2.890625,1.0625,-1.4375
307,0.40771484,-0.10479736,-0.95025635,-3.296875,1.21875,-1.78125
308,0.38232422,-0.105285645,-0.8845825,0.8125,-0.234375,-0.25
309,0.359375,-0.101623535,-0.82525635,2.375,0.421875,0.65625
310,0.37231445,-0.086242676,-0.8699341,2.359375,0.796875,0.75
311,0.37475586,-0.085754395,-0.8694458,0.21875,0.875,0.03125
312,0.3642578,-0.089904785,-0.84503174,-0.953125,-0.03125,-0.5
313,0.37280273,-0.10064697,-0.8882446,2.734375,0.6875,0.578125
314,0.40161133,-0.09136963,-0.9168091,4.125,0.59375,1.125
315,0.39379883,-0.08673096,-0.8987427,-0.421875,2.578125,-0.53125
316,0.4189453,-0.08673096,-0.9390259,-6.609375,4.265625,-2.5
317,0.3515625,-0.089904785,-0.86138916,-16.625,12.046875,-4.234375
318,0.30615234,-0.11968994,-0.8569946,-12.296875,7.109375,-3.296875
319,0.31811523,-0.14801025,-0.88238525,-7.015625,-0.203125,-1.15625
320,0.3310547,-0.15509033,-0.8591919,1.9375,-4.078125,1.265625
321,0.34936523,-0.1416626,-0.90167236,3.28125,-3.015625,1.546875
322,0.32177734,-0.13214111,-0.8533325,6.859375,-7.328125,2.265625
323,0.3791504,-0.105529785,-0.9487915,5.9375,-14.453125,0.625
324,0.5209961,-0.16705322,-1.0142212,3.296875,-1.703125,-1.171875
325,0.31835938,-0.07550049,-0.68463135,0.34375,0.3125,-0.953125
326,0.35791016,-0.11553955,-0.84503174,-1.390625,4.046875,-0.25
327,0.3486328,-0.11798096,-0.81866455,4.21875,2.953125,2.40625
328,0.38842773,-0.09429932,-0.9727173,4.21875,-4.421875,1.34375
329,0.47973633,-0.10797119,-0.9846802,1.6875,-3.375,-0.328125
330,0.41503906,-0.109436035,-0.8826294,-3.671875,2.125,-2.640625
331,0.35083008,-0.10064697,-0.8411255,-2.390625,5.578125,-1.25
332,0.32470703,-0.11553955,-0.8477173,-0.859375,0.703125,-0.015625
333,0.36328125,-0.11871338,-0.8545532,3.796875,-3.203125,1.3125
334,0.40649414,-0.10626221,-0.89068604,3.515625,-3.265625,0.859375
335,0.4099121,-0.093566895,-0.89556885,-2.09375,0.734375,-1.578125
336,0.38989258,-0.105773926,-0.87091064,-1.90625,4.90625,-1.03125
337,0.32958984,-0.12261963,-0.8272095,-3.21875,3.921875,-0.859375
338,0.38793945,-0.11602783,-0.9373169,1.671875,-3.203125,0.921875
339,0.40454102,-0.11212158,-0.88165283,1.015625,-4.75,-0.203125
340,0.39233398,-0.10821533,-0.89019775,1.328125,-1.21875,-0.515625
341,0.34448242,-0.09307861,-0.7996216,1.40625,1.40625,-0.078125
342,0.3540039,-0.10626221,-0.85235596,2.15625,8.390625,0.609375
343,0.37475586,-0.09674072,-0.864563,-6.5625,13.390625,-1.578125
344,0.328125,-0.124572754,-0.89556885,-15.046875,12.46875,-3.359375
345,0.33813477,-0.14190674,-0.9451294,-10.734375,2.625,-2.796875
346,0.3371582,-0.1585083,-0.91119385,-3.703125,-2.203125,-1.140625
347,0.33984375,-0.15264893,-0.88287354,0.890625,-3.421875,0.46875
348,0.34301758,-0.14678955,-0.86602783,3.015625,-1.3125,1.34375
349,0.34106445,-0.14654541,-0.86505127,4.46875,1.234375,1.765625
350,0.36987305,-0.1326294,-0.9229126,4.125,0.890625,1.515625
351,0.37182617,-0.1326294,-0.9480591,2.5,0.203125,0.90625
352,0.34472656,-0.12579346,-0.92437744,1.9375,-3.46875,0.8125
353,0.34472656,-0.13165283,-0.8723755,1.71875,-8.1875,0.65625
354,0.31420898,-0.117004395,-0.8977661,2.0,-15.84375,-0.546875
355,0.52368164,-0.13287354,-0.94610596,8.3125,-18.40625,-0.6875
356,0.30444336,-0.07525635,-0.6350708,8.671875,1.078125,0.921875
357,0.40698242,-0.07891846,-0.84381104,1.796875,-0.609375,1.015625
358,0.4206543,-0.11383057,-0.9175415,1.125,0.53125,-0.171875
359,0.46801758,-0.105529785,-0.9854126,-1.921875,-0.046875,-1.34375
360,0.4375,-0.10626221,-0.97247314,-4.515625,0.03125,-2.546875
361,0.42285156,-0.1194458,-0.85723877,-3.609375,-0.8125,-1.890625
362,0.36694336,-0.10723877,-0.80059814,1.21875,-0.109375,0.390625
363,0.29370117,-0.10040283,-0.6724243,5.125,2.84375,2.21875
364,0.39257812,-0.089660645,-0.88287354,2.28125,3.03125,0.84375
365,0.4338379,-0.093566895,-0.95684814,1.734375,1.5,0.265625
366,0.43725586,-0.09698486,-0.9475708,1.328125,0.53125,-0.40625
367,0.4111328,-0.10650635,-0.8479614,-1.390625,-0.203125,-1.1875
368,0.35839844,-0.11431885,-0.83013916,-2.75,0.5,-1.203125
369,0.40698242,-0.09918213,-0.9002075,-2.171875,1.9375,-0.984375
370,0.41381836,-0.09210205,-0.9356079,0.21875,-0.671875,-0.453125
371,0.36547852,-0.09625244,-0.81500244,-0.125,-0.640625,-0.265625
372,0.36694336,-0.11846924,-0.7901001,-0.125,3.828125,-0.453125
373,0.3647461,-0.11187744,-0.8237915,0.34375,3.203125,0.140625
374,0.36572266,-0.10797119,-0.89068604,-3.296875,1.96875,-1.125
375,0.42895508,-0.11798096,-1.0032349,-1.578125,-1.546875,-1.078125
376,0.40771484,-0.12774658,-0.8792114,-0.734375,-1.578125,-1.03125
377,0.39453125,-0.11480713,-0.88897705,-0.421875,-1.15625,-1.078125
378,0.31884766,-0.10845947,-0.7334595,0.296875,1.734375,-0.109375
379,0.37402344,-0.11114502,-0.8428345,0.453125,2.65625,0.453125
380,0.3857422,-0.10650635,-0.8518677,-0.734375,2.125,0.359375
381,0.4038086,-0.12017822,-0.9138794,-3.5625,5.8125,-0.84375
382,0.40893555,-0.12628174,-0.9133911,-11.53125,9.421875,-3.0625
383,0.33666992,-0.15362549,-0.92633057,-13.296875,10.0625,-3.625
384,0.33081055,-0.1585083,-0.89263916,-5.640625,3.546875,-2.0625
385,0.34179688,-0.16485596,-0.89068604,-1.53125,-0.53125,-0.34375
386,0.32958984,-0.16607666,-0.8255005,2.21875,-0.65625,1.015625
387,0.33447266,-0.1585083,-0.84747314,4.25,0.828125,1.6875
388,0.34985352,-0.14483643,-0.8821411,2.328125,2.171875,1.375
389,0.3557129,-0.15557861,-0.9092407,1.484375,4.046875,0.5
390,0.3400879,-0.15557861,-0.9126587,-0.0625,3.71875,0.03125
391,0.32739258,-0.1519165,-0.90704346,-0.5625,1.375,0.203125
392,0.3330078,-0.15020752,-0.8928833,-0.40625,0.640625,-0.171875
393,0.32006836,-0.1404419,-0.8862915,1.0625,-1.0,0.40625
394,0.33789062,-0.14776611,-0.9180298,2.328125,-1.375,0.953125
395,0.33813477,-0.13970947,-0.8867798,3.78125,-2.703125,1.453125
396,0.32495117,-0.1375122,-0.87384033,2.875,-4.0,1.28125
397,0.35205078,-0.12921143,-0.91778564,-0.15625,-5.046875,0.28125
398,0.37182617,-0.14239502,-0.90411377,-2.53125,-5.765625,-0.71875
399,0.36401367,-0.14849854,-0.91290283,-2.640625,-3.3125,-1.1875
400,0.3178711,-0.13165283,-0.79937744,2.609375,-7.71875,0.734375
401,0.5202637,-0.13360596,-1.0418091,16.765625,-23.625,2.578125
402,0.3774414,-0.09942627,-0.8377075,15.640625,-0.15625,3.1875
403,0.39282227,-0.08331299,-0.7908325,5.359375,-1.65625,1.03125
404,0.38208008,-0.08087158,-0.85479736,2.359375,1.15625,0.140625
405,0.3947754,-0.08648682,-0.81451416,-1.453125,2.078125,-1.140625
406,0.41333008,-0.09039307,-0.8777466,-1.21875,1.34375,-1.546875
407,0.4309082,-0.09918213,-0.9307251,-0.484375,0.390625,-0.9375
408,0.38232422,-0.10455322,-0.84088135,0.234375,3.296875,-0.46875
409,0.40161133,-0.09283447,-0.9019165,1.84375,1.625,0.578125
410,0.39770508,-0.08892822,-0.8699341,-0.78125,3.3125,0.921875
411,0.3708496,-0.10015869,-0.84088135,0.90625,1.953125,1.8125
412,0.40014648,-0.08453369,-0.8987427,-0.484375,-0.734375,0.46875
413,0.37402344,-0.19390869,-0.770813,8.09375,-0.453125,1.359375
414,0.34057617,-0.09283447,-0.7769165,6.265625,-0.90625,0.75
415,0.38549805,-0.07550049,-0.8682251,-0.59375,-3.171875,-1.421875
416,0.42822266,-0.07208252,-0.9397583,-4.96875,-2.3125,-2.5625
417,0.4296875,-0.07281494,-0.9258423,-3.0625,-2.625,-1.875
418,0.38671875,-0.101623535,-0.8435669,-2.21875,1.53125,-1.1875
419,0.39404297,-0.101867676,-0.8428345,-2.890625,4.453125,-0.8125
420,0.36376953,-0.08331299,-0.8272095,-4.5,1.703125,-1.046875
421,0.44140625,-0.101867676,-1.0039673,-1.25,-0.15625,-0.921875
422,0.45581055,-0.09820557,-0.9299927,-1.765625,0.859375,-1.546875
423,0.36157227,-0.105285645,-0.7974243,-3.796875,5.34375,-2.0625
424,0.37426758,-0.10845947,-0.84991455,-4.953125,7.0,-1.953125
425,0.32910156,-0.13116455,-0.8623657,-3.09375,-1.828125,-1.40625
426,0.40039062,-0.1296997,-0.9175415,-1.625,-0.8125,-1.265625
427,0.39086914,-0.116760254,-0.8850708,-0.109375,1.546875,-0.859375
428,0.38452148,-0.120666504,-0.8735962,-2.046875,1.109375,-1.15625
429,0.37695312,-0.1272583,-0.8694458,-1.671875,1.34375,-0.46875
430,0.3659668,-0.1350708,-0.9163208,1.171875,-2.65625,0.40625
431,0.4621582,-0.13067627,-0.96710205,5.296875,-2.734375,1.28125
432,0.44506836,-0.105529785,-0.9175415,0.234375,-1.203125,-0.78125
433,0.3544922,-0.10675049,-0.7637329,-3.09375,2.578125,-1.640625
434,0.32592773,-0.1260376,-0.7835083,-6.328125,6.265625,-2.203125
435,0.3935547,-0.14385986,-0.91485596,0.078125,-1.984375,-0.34375
436,0.40185547,-0.13067627,-0.91192627,0.953125,-0.6875,-0.140625
437,0.3864746,-0.1338501,-0.8772583,1.59375,0.9375,-0.09375
438,0.36254883,-0.12945557,-0.87091064,-1.0625,2.578125,-0.578125
439,0.40283203,-0.13140869,-0.9151001,-2.078125,3.328125,-0.859375
440,0.34814453,-0.13018799,-0.8875122,-2.09375,4.859375,-0.15625
441,0.33154297,-0.120910645,-0.8049927,-1.421875,3.890625,0.625
442,0.3408203,-0.14434814,-0.86505127,-5.34375,4.5,-0.578125
443,0.34887695,-0.13922119,-0.9024048,-0.859375,0.53125,0.25
444,0.35791016,-0.14068604,-0.8911743,0.0625,1.3125,0.203125
445,0.35839844,-0.14971924,-0.90093994,-1.09375,1.71875,-0.171875
446,0.35986328,-0.13946533,-0.9011841,-0.671875,1.140625,-0.078125
447,0.35351562,-0.1494751,-0.8882446,0.3125,1.1875,0.109375
448,0.34985352,-0.15167236,-0.8870239,-0.03125,1.84375,-0.09375
449,0.3425293,-0.15216064,-0.88775635,0.203125,1.546875,0.03125
450,0.34472656,-0.14385986,-0.8867798,0.34375,0.765625,0.15625
451,0.33374023,-0.14239502,-0.88287354,0.09375,0.25,-0.03125
452,0.33325195,-0.13726807,-0.88067627,0.140625,-0.265625,-0.078125
453,0.34326172,-0.1362915,-0.88604736,1.09375,-0.828125,0.0
454,0.34277344,-0.14093018,-0.8843384,2.59375,-2.46875,0.703125
455,0.3371582,-0.13995361,-0.8897095,4.65625,-5.875,1.765625
456,0.3413086,-0.12432861,-0.96295166,6.0,-14.015625,1.375
457,0.47216797,-0.13800049,-0.878479,9.671875,-11.203125,0.171875
458,0.3540039,-0.089904785,-0.77008057,6.265625,-1.609375,0.53125
459,0.37182617,-0.08892822,-0.8386841,3.4375,0.796875,-0.171875
460,0.39624023,-0.09039307,-0.85357666,-1.46875,0.890625,-1.390625
461,0.4116211,-0.11651611,-0.9536743,-0.84375,1.421875,-1.28125
462,0.40551758,-0.11529541,-0.9216919,-2.75,1.0625,-1.796875
463,0.35961914,-0.121154785,-0.78619385,2.265625,1.234375,0.21875
464,0.35986328,-0.10308838,-0.8154907,1.75,-0.453125,0.453125
465,0.3791504,-0.10357666,-0.8311157,1.828125,1.96875,0.578125
466,0.42382812,-0.093566895,-0.9429321,0.0,0.15625,-0.34375
467,0.41064453,-0.10015869,-0.9529419,-1.15625,2.0,-0.859375
468,0.38842773,-0.1194458,-0.90997314,0.03125,-1.046875,-0.265625
469,0.3564453,-0.113098145,-0.80059814,0.4375,-0.25,-0.078125
470,0.35058594,-0.09893799,-0.8064575,1.03125,1.109375,0.046875
471,0.3828125,-0.09283447,-0.88946533,-0.1875,1.25,-0.34375
472,0.40625,-0.09234619,-0.94366455,-1.0625,1.265625,-0.84375
473,0.37939453,-0.11627197,-0.8862915,-0.609375,0.3125,-0.625
474,0.37841797,-0.11553955,-0.85040283,1.28125,1.4375,0.3125
475,0.36376953,-0.10748291,-0.8413696,1.796875,0.96875,0.796875
476,0.3930664,-0.093322754,-0.9011841,-0.5625,0.671875,-0.359375
477,0.40600586,-0.10040283,-0.95758057,-0.390625,0.40625,-0.53125
478,0.37402344,-0.09625244,-0.8779907,0.078125,0.625,-0.46875
479,0.3696289,-0.1026001,-0.86016846,0.15625,0.59375,-0.359375
480,0.34521484,-0.10284424,-0.8328247,1.84375,2.0,0.078125
481,0.37426758,-0.0947876,-0.87823486,-1.1875,2.015625,-0.484375
482,0.37841797,-0.09698486,-0.8699341,-3.578125,5.5,-1.21875
483,0.36279297,-0.11016846,-0.8843384,-7.796875,6.46875,-1.84375
484,0.34155273,-0.13409424,-0.9014282,-8.015625,2.765625,-1.65625
485,0.36401367,-0.14337158,-0.9155884,-2.734375,0.4375,-0.59375
486,0.36206055,-0.13214111,-0.89849854,0.578125,1.4375,0.078125
487,0.35595703,-0.12506104,-0.88848877,0.734375,1.640625,0.40625
488,0.35302734,-0.12872314,-0.8833618,-0.4375,1.671875,-0.140625
489,0.34570312,-0.124572754,-0.87945557,-0.484375,1.84375,-0.171875
490,0.3395996,-0.1350708,-0.8814087,0.125,1.453125,0.0625
491,0.33984375,-0.13189697,-0.880188,0.5,0.671875,0.28125
492,0.3491211,-0.13653564,-0.9224243,-0.109375,0.8125,-0.109375
493,0.34033203,-0.1272583,-0.8933716,1.109375,-0.90625,0.453125
494,0.35180664,-0.12506104,-0.9133911,0.671875,-1.578125,0.1875
495,0.3486328,-0.12042236,-0.89801025,0.25,-2.453125,0.078125
496,0.33520508,-0.13018799,-0.8845825,0.328125,-4.734375,0.09375
497,0.3251953,-0.11529541,-0.95196533,4.640625,-16.34375,0.265625
498,0.46704102,-0.14385986,-0.9290161,4.390625,-7.0,-1.03125
499,0.3022461,-0.08282471,-0.70269775,7.953125,-1.296875,1.625
500,0.38964844,-0.09942627,-0.8545532,3.25,-0.8125,1.09375
501,0.41186523,-0.10870361,-0.9024048,0.984375,0.671875,-0.125
502,0.4165039,-0.10015869,-0.9456177,-3.375,1.109375,-1.890625
503,0.41064453,-0.10333252,-0.92852783,-5.0625,0.734375,-3.046875
504,0.3918457,-0.12310791,-0.88165283,-7.125,2.359375,-3.203125
505,0.35839844,-0.12823486,-0.8213501,0.765625,0.625,0.203125
506,0.35864258,-0.10064697,-0.8381958,4.453125,2.640625,1.90625
507,0.3461914,-0.09161377,-0.7905884,4.828125,3.0,1.875
508,0.39135742,-0.105285645,-0.89141846,1.203125,2.265625,0.546875
509,0.42089844,-0.09088135,-0.9883423,-1.625,-2.109375,-1.078125
510,0.4350586,-0.10601807,-0.97052,-5.765625,-2.640625,-2.921875
511,0.3881836,-0.11920166,-0.8826294,-6.28125,0.8125,-3.21875
512,0.37548828,-0.13311768,-0.8389282,-3.796875,5.421875,-1.90625
513,0.28051758,-0.11578369,-0.71881104,-0.765625,3.296875,-0.09375
514,0.36645508,-0.1272583,-0.9104614,5.34375,-1.875,1.78125
515,0.38354492,-0.121154785,-0.86309814,5.125,-2.75,1.5625
516,0.41210938,-0.12017822,-0.9151001,0.78125,-1.078125,0.046875
517,0.40698242,-0.1116333,-0.94195557,-3.546875,1.625,-1.484375
518,0.37158203,-0.117248535,-0.86602783,-0.140625,1.375,0.21875
519,0.32983398,-0.10430908,-0.76885986,4.203125,-1.953125,1.90625
520,0.38305664,-0.10455322,-0.88775635,3.3125,-2.21875,0.765625
521,0.41137695,-0.105041504,-0.9155884,5.8125,0.03125,1.25
522,0.41357422,-0.08892822,-0.9182739,0.0625,-0.875,-0.34375
523,0.41357422,-0.09918213,-0.9067993,-0.5625,2.0,-0.5625
524,0.40405273,-0.11578369,-0.9138794,-1.640625,3.421875,-0.828125
525,0.36523438,-0.105773926,-0.84332275,-0.171875,0.578125,-0.4375
526,0.39111328,-0.10992432,-0.9446411,0.234375,-1.9375,-0.734375
527,0.38256836,-0.0960083,-0.83258057,4.34375,-1.859375,0.609375
528,0.38500977,-0.078186035,-0.90631104,0.3125,-1.046875,-0.390625
529,0.3515625,-0.07525635,-0.78863525,4.328125,0.828125,1.171875
530,0.4074707,-0.0869751,-0.9163208,0.640625,1.9375,0.6875
531,0.3947754,-0.09698486,-0.847229,-2.59375,4.859375,-0.609375
532,0.36669922,-0.101135254,-0.8850708,-8.859375,7.84375,-2.078125
533,0.38256836,-0.10845947,-0.923645,-13.421875,5.25,-3.78125
534,0.36279297,-0.13580322,-0.9182739,-9.03125,2.34375,-3.640625
535,0.36083984,-0.13995361,-0.8753052,-5.0,0.90625,-1.96875
536,0.33642578,-0.1404419,-0.8340454,-2.734375,1.4375,-0.75
537,0.34057617,-0.144104,-0.850647,-0.65625,1.703125,0.140625
538,0.34521484,-0.14117432,-0.8777466,1.921875,2.203125,0.78125
539,0.33935547,-0.15704346,-0.88726807,2.515625,2.8125,0.71875
540,0.3400879,-0.13360596,-0.9006958,1.828125,1.921875,0.578125
541,0.34643555,-0.13873291,-0.8994751,0.515625,-0.140625,0.09375
542,0.34399414,-0.13214111,-0.90045166,0.109375,-0.109375,0.0
543,0.35009766,-0.13165283,-0.89678955,-0.09375,-1.984375,0.15625
544,0.34887695,-0.13922119,-0.892395,0.875,-2.0625,0.34375
545,0.33911133,-0.1350708,-0.86431885,2.5625,-3.71875,1.109375
546,0.3564453,-0.128479,-0.9002075,1.109375,-4.671875,0.71875
547,0.37329102,-0.13043213,-0.86676025,-0.265625,-5.1875,0.09375
548,0.3803711,-0.14068604,-0.88946533,-1.265625,-3.296875,-0.5
549,0.3696289,-0.13677979,-0.8555298,0.921875,-2.90625,0.203125
550,0.36401367,-0.112854004,-0.8633423,3.15625,-4.328125,1.046875
551,0.40893555,-0.121398926,-0.9260864,8.453125,-13.5625,1.25
552,0.43823242,-0.11260986,-0.90875244,5.3125,-2.109375,-0.171875
553,0.37768555,-0.093322754,-0.7437134,1.640625,-1.875,-0.90625
554,0.40283203,-0.10455322,-0.8479614,-5.015625,-0.46875,-2.515625
555,0.3918457,-0.124572754,-0.8242798,-3.84375,2.75,-2.3125
556,0.3955078,-0.12579346,-0.866272,-3.0625,3.484375,-1.71875
557,0.42089844,-0.13775635,-0.92071533,-2.21875,0.015625,-1.109375
558,0.4362793,-0.13409424,-0.95147705,-1.015625,-0.75,-0.75
559,0.3959961,-0.1326294,-0.8491821,1.703125,1.40625,-0.03125
560,0.35668945,-0.113098145,-0.7756958,3.46875,0.984375,1.234375
561,0.38452148,-0.117492676,-0.8731079,0.484375,0.6875,-0.03125
562,0.4243164,-0.11138916,-0.92022705,-0.96875,-0.8125,-0.953125
563,0.4116211,-0.13287354,-0.9143677,-3.3125,-1.90625,-1.828125
564,0.3996582,-0.14385986,-0.86968994,-3.796875,0.234375,-2.1875
565,0.39233398,-0.1326294,-0.847229,-2.34375,-0.078125,-1.390625
566,0.4020996,-0.14483643,-0.8713989,0.390625,1.609375,-0.4375
567,0.3881836,-0.12579346,-0.8623657,2.0625,0.8125,0.375
568,0.39648438,-0.12554932,-0.8677368,1.953125,2.703125,0.421875
569,0.3869629,-0.12213135,-0.8648071,1.75,2.078125,0.609375
570,0.4074707,-0.14093018,-0.9163208,-0.734375,0.953125,-0.4375
571,0.39941406,-0.13409424,-0.8858032,-1.90625,0.09375,-1.046875
572,0.38549805,-0.13458252,-0.86553955,-2.640625,0.203125,-1.34375
573,0.3713379,-0.13189697,-0.83966064,-2.203125,0.03125,-0.984375
574,0.37890625,-0.12994385,-0.8399048,-2.1875,1.953125,-1.015625
575,0.38183594,-0.13775635,-0.85479736,-1.875,2.109375,-0.703125
576,0.38720703,-0.14190674,-0.86846924,-4.875,2.890625,-1.53125
577,0.3881836,-0.17559814,-0.89849854,-8.9375,6.984375,-2.71875
578,0.3515625,-0.17144775,-0.86138916,-2.84375,3.59375,-0.65625
579,0.3708496,-0.17315674,-0.8933716,-0.625,1.40625,-0.015625
580,0.3815918,-0.17388916,-0.90045166,0.171875,1.53125,0.390625
581,0.3684082,-0.17047119,-0.87628174,1.0,0.84375,0.5
582,0.359375,-0.17047119,-0.86309814,1.671875,0.953125,0.765625
583,0.35913086,-0.15777588,-0.85357666,1.515625,1.703125,0.953125
584,0.35839844,-0.15924072,-0.8777466,1.1875,1.203125,0.578125
585,0.3671875,-0.1572876,-0.8855591,0.875,0.640625,0.40625
586,0.37231445,-0.16119385,-0.90093994,-0.140625,-0.34375,-0.234375
587,0.36816406,-0.16143799,-0.89019775,-0.015625,-1.203125,-0.109375
588,0.34765625,-0.15997314,-0.8633423,1.015625,-1.46875,0.515625
589,0.34643555,-0.15020752,-0.835022,4.515625,-4.953125,1.9375
590,0.37329102,-0.14312744,-0.8779907,3.984375,-4.75,1.71875
591,0.4074707,-0.15435791,-0.9116821,3.125,-5.953125,1.1875
592,0.39624023,-0.13653564,-0.881897,4.03125,-3.53125,0.90625
593,0.41918945,-0.12432861,-0.9104614,8.4375,-11.65625,1.125
594,0.4375,-0.1272583,-0.9265747,6.15625,-0.28125,-0.34375
595,0.40576172,-0.12213135,-0.8274536,1.03125,-0.078125,-1.375
596,0.41357422,-0.10772705,-0.83917236,-4.5625,0.203125,-2.40625
597,0.41601562,-0.12213135,-0.89971924,-3.828125,1.984375,-2.40625
598,0.39648438,-0.12945557,-0.835022,-2.109375,1.65625,-1.46875
599,0.39086914,-0.14678955,-0.8838501,2.109375,1.78125,0.453125
600,0.39916992,-0.12628174,-0.8682251,7.25,2.234375,2.78125
601,0.38427734,-0.108947754,-0.79644775,11.9375,3.046875,4.328125
602,0.41137695,-0.08917236,-0.92681885,5.140625,3.0,2.0
603,0.4140625,-0.08673096,-0.9348755,-1.484375,1.4375,-0.65625
604,0.38354492,-0.094055176,-0.88653564,-2.28125,-0.734375,-1.484375
605,0.37280273,-0.09918213,-0.84698486,-3.359375,-0.40625,-1.859375
606,0.38793945,-0.09259033,-0.85357666,-3.859375,0.671875,-1.640625
607,0.40478516,-0.09527588,-0.85113525,-3.546875,2.234375,-1.203125
608,0.36157227,-0.11871338,-0.8567505,-4.09375,3.28125,-1.28125
609,0.43066406,-0.12261963,-0.9295044,-1.09375,-1.09375,-0.703125
610,0.42358398,-0.13165283,-0.9038696,-1.484375,-1.96875,-1.359375
611,0.41333008,-0.12945557,-0.8713989,-0.65625,0.5,-0.890625
612,0.39453125,-0.10357666,-0.8340454,-2.6875,3.796875,-1.484375
613,0.38842773,-0.116760254,-0.8735962,-3.203125,4.671875,-1.375
614,0.30859375,-0.13873291,-0.87677,-3.5,1.65625,-1.328125
615,0.38720703,-0.1506958,-0.9299927,-0.65625,-1.765625,-0.765625
616,0.39941406,-0.14483643,-0.8948364,2.1875,-2.953125,-0.109375
617,0.36108398,-0.12579346,-0.81817627,0.234375,-1.640625,-0.390625
618,0.38012695,-0.13409424,-0.7966919,-2.765625,0.09375,-0.671875
619,0.35620117,-0.12628174,-0.81329346,-3.40625,3.890625,-0.796875
620,0.40405273,-0.1350708,-0.9194946,0.921875,-0.734375,0.25
621,0.41577148,-0.14971924,-0.96417236,4.828125,-1.78125,1.109375
622,0.40527344,-0.13946533,-0.8960571,6.75,1.078125,0.640625
623,0.35473633,-0.10675049,-0.7527466,3.625,4.484375,-0.546875
624,0.37304688,-0.10870361,-0.85113525,-0.734375,6.78125,-1.25
625,0.34375,-0.09844971,-0.8526001,-1.171875,5.90625,-0.78125
626,0.35717773,-0.11968994,-0.8936157,-5.515625,5.828125,-1.375
627,0.36132812,-0.14093018,-0.9116821,-8.6875,4.890625,-1.453125
628,0.35253906,-0.14898682,-0.90826416,-7.109375,3.0625,-1.1875
629,0.35058594,-0.15264893,-0.88287354,-3.0625,-0.0625,-0.3125
630,0.3383789,-0.1651001,-0.8735962,-1.046875,-0.46875,0.359375
631,0.36743164,-0.15997314,-0.9265747,0.609375,0.15625,0.8125
632,0.3642578,-0.14654541,-0.88360596,1.171875,0.984375,0.734375
633,0.35205078,-0.15777588,-0.88726807,0.390625,3.4375,0.078125
634,0.34326172,-0.14019775,-0.88946533,1.265625,2.78125,0.765625
635,0.33618164,-0.14459229,-0.878479,2.1875,2.09375,1.0
636,0.31884766,-0.13824463,-0.866272,3.8125,-0.21875,1.96875
637,0.3305664,-0.13848877,-0.89556885,2.765625,-3.90625,1.46875
638,0.35253906,-0.13531494,-0.8796997,2.609375,-7.296875,1.25
639,0.37158203,-0.124572754,-0.92437744,0.140625,-6.796875,-0.046875
640,0.38916016,-0.1350708,-0.91778564,-1.953125,-7.5,-0.984375
641,0.39208984,-0.13555908,-0.8694458,1.125,-5.09375,0.125
642,0.3815918,-0.13214111,-0.88409424,5.84375,-5.734375,1.484375
643,0.3876953,-0.10333252,-0.87384033,8.09375,-4.828125,1.390625
644,0.47216797,-0.11456299,-0.9348755,9.453125,-5.75,0.46875
645,0.35546875,-0.08135986,-0.7703247,7.296875,0.953125,0.953125
646,0.39453125,-0.11138916,-0.8328247,-1.75,3.640625,-1.609375
647,0.39526367,-0.10333252,-0.84625244,-4.328125,2.9375,-2.34375
648,0.40600586,-0.11383057,-0.9002075,-1.703125,3.75,-1.25
649,0.39013672,-0.10235596,-0.86309814,-1.328125,10.125,-0.46875
650,0.3474121,-0.10992432,-0.8428345,1.375,9.0,1.15625
651,0.36694336,-0.11138916,-0.9077759,0.21875,5.515625,1.15625
652,0.39819336,-0.09991455,-0.96099854,0.21875,1.390625,0.390625
653,0.4013672,-0.09307861,-0.9602661,-9.328125,2.875,-2.484375
654,0.36450195,-0.1375122,-0.9343872,-10.234375,3.28125,-3.765625
655,0.3095703,-0.13018799,-0.8406372,-3.828125,-1.734375,-1.015625
656,0.33398438,-0.12896729,-0.8110962,-0.59375,-3.21875,0.34375
657,0.359375,-0.12628174,-0.84161377,2.609375,-0.78125,0.609375
658,0.36987305,-0.12530518,-0.8880005,3.25,2.59375,0.15625
659,0.3786621,-0.13092041,-0.9246216,1.6875,4.25,-0.3125
660,0.36401367,-0.13677979,-0.92974854,-0.203125,1.296875,-0.21875
661,0.34545898,-0.1338501,-0.9077759,0.46875,-2.1875,0.484375
662,0.3503418,-0.12237549,-0.8814087,1.078125,-4.234375,0.921875
663,0.35839844,-0.12335205,-0.8814087,0.140625,-3.625,0.21875
664,0.36254883,-0.120666504,-0.8731079,-0.671875,-3.5625,-0.125
665,0.37475586,-0.12677002,-0.8555298,-0.90625,-1.984375,-0.328125
666,0.37329102,-0.1116333,-0.8718872,-0.515625,-0.859375,-0.40625
667,0.37646484,-0.121398926,-0.8826294,0.078125,-0.171875,-0.171875
668,0.3786621,-0.12872314,-0.88848877,0.40625,0.171875,-0.03125
669,0.35986328,-0.13287354,-0.88116455,1.140625,-1.5,0.3125
670,0.3942871,-0.11090088,-0.9336548,9.546875,-12.625,1.546875
671,0.5107422,-0.11602783,-0.9163208,13.609375,-8.46875,1.5625
672,0.39672852,-0.06402588,-0.8545532,9.1875,1.171875,1.96875
673,0.4013672,-0.09307861,-0.8970337,0.09375,1.78125,0.625
674,0.36108398,-0.090148926,-0.7698364,-0.3125,1.265625,-1.15625
675,0.3581543,-0.085754395,-0.79107666,-2.015625,3.5,-1.421875
676,0.3642578,-0.0803833,-0.82525635,-0.296875,3.703125,-0.671875
677,0.40600586,-0.08428955,-0.90509033,1.140625,0.328125,-0.09375
678,0.41992188,-0.070617676,-0.94976807,1.890625,0.0625,0.140625
679,0.42358398,-0.08721924,-0.9788208,0.140625,0.4375,-0.3125
680,0.421875,-0.07940674,-0.9627075,-1.484375,3.09375,-1.125
681,0.37524414,-0.07696533,-0.86065674,-0.53125,1.828125,-0.53125
682,0.34301758,-0.08746338,-0.8081665,-0.203125,1.5,-0.546875
683,0.36328125,-0.0803833,-0.81622314,0.28125,0.109375,-0.015625
684,0.34643555,-0.082092285,-0.8110962,0.859375,1.5,-0.03125
685,0.3774414,-0.085510254,-0.8621216,0.3125,1.328125,-0.1875
686,0.40234375,-0.07989502,-0.94073486,-4.296875,0.3125,-1.875
687,0.4025879,-0.09942627,-0.9475708,-7.0625,1.1875,-3.03125
688,0.40942383,-0.093811035,-0.91973877,-7.65625,-0.3125,-3.078125
689,0.39379883,-0.12017822,-0.91192627,-5.25,1.109375,-2.015625
690,0.35498047,-0.12677002,-0.82598877,-0.25,2.6875,-0.109375
691,0.39282227,-0.121398926,-0.86138916,-5.828125,10.203125,-1.40625
692,0.3408203,-0.11505127,-0.8616333,-5.625,16.390625,-1.265625
693,0.32299805,-0.1326294,-0.9265747,-3.578125,8.28125,-0.8125
694,0.34057617,-0.14556885,-0.9680786,-2.75,1.15625,-0.59375
695,0.3310547,-0.14093018,-0.90338135,-1.578125,-1.75,-0.484375
696,0.33251953,-0.12823486,-0.88726807,-1.234375,-2.25,-0.390625
697,0.3269043,-0.13677979,-0.8555298,0.5625,-1.046875,0.109375
698,0.3347168,-0.14654541,-0.8772583,1.671875,-1.0625,0.90625
699,0.33569336,-0.13604736,-0.878479,2.46875,-0.28125,0.703125
700,0.34716797,-0.1362915,-0.9048462,1.875,0.640625,0.671875
701,0.3383789,-0.13604736,-0.89556885,0.859375,0.8125,0.15625
702,0.34033203,-0.13555908,-0.90338135,0.40625,0.4375,0.015625
703,0.34155273,-0.13214111,-0.91607666,0.390625,-0.9375,0.0625
704,0.3425293,-0.12628174,-0.9060669,-0.421875,-1.734375,-0.34375
705,0.32202148,-0.13311768,-0.8591919,1.109375,-5.15625,0.734375
706,0.35766602,-0.11895752,-0.90338135,0.421875,-8.53125,0.453125
707,0.40844727,-0.15557861,-1.010315,6.359375,-19.203125,0.125
708,0.38549805,-0.1350708,-0.8093872,13.171875,-3.703125,2.671875
709,0.33911133,-0.046203613,-0.7481079,11.765625,-2.359375,3.59375
710,0.3955078,-0.10675049,-0.86065674,5.890625,2.140625,2.234375
711,0.4326172,-0.078186035,-0.93536377,-0.28125,2.375,-1.0
712,0.41235352,-0.062072754,-0.93341064,-4.21875,0.734375,-2.546875
713,0.40722656,-0.081604004,-0.9199829,-5.75,0.515625,-3.375
714,0.40673828,-0.1038208,-0.86138916,-2.375,-1.296875,-1.578125
715,0.35839844,-0.093566895,-0.8154907,6.9375,1.703125,2.09375
716,0.3696289,-0.08453369,-0.9002075,6.15625,0.390625,2.40625
717,0.38842773,-0.085510254,-0.864563,6.109375,1.28125,2.453125
718,0.34301758,-0.069885254,-0.7974243,2.15625,2.171875,0.296875
719,0.41210938,-0.074279785,-0.9631958,-1.625,2.015625,-1.46875
720,0.3005371,-0.07965088,-0.7827759,-5.390625,1.671875,-2.90625
721,0.3564453,-0.08013916,-0.84991455,-11.234375,0.703125,-5.0
722,0.38793945,-0.09576416,-0.93414307,-7.859375,0.734375,-3.390625
723,0.3696289,-0.11529541,-0.89630127,-4.203125,-1.890625,-1.828125
724,0.3840332,-0.13140869,-0.8948364,-3.859375,0.1875,-1.734375
725,0.38330078,-0.12994385,-0.8237915,-0.96875,1.71875,-0.65625
726,0.39135742,-0.12750244,-0.93927,0.328125,1.78125,-0.046875
727,0.45654297,-0.12506104,-1.0237427,1.71875,1.78125,0.015625
728,0.45874023,-0.12506104,-1.1004028,5.71875,3.15625,0.828125
729,0.3400879,-0.11016846,-0.831604,8.875,4.15625,3.59375
730,0.2529297,-0.12432861,-0.65289307,-0.515625,3.0,1.140625
731,0.32910156,-0.09039307,-0.81329346,-0.484375,-0.578125,-0.484375
732,0.34887695,-0.074279785,-0.8699341,-0.09375,-0.171875,-0.046875
733,0.33935547,-0.08306885,-0.8858032,0.4375,0.453125,-0.140625
734,0.36669922,-0.10626221,-0.881897,-1.765625,-0.40625,-1.203125
735,0.35205078,-0.12921143,-0.87091064,-1.9375,-0.046875,-1.359375
736,0.38916016,-0.11456299,-0.94317627,-2.046875,0.109375,-1.515625
737,0.35083008,-0.10235596,-0.83673096,3.0,2.546875,0.453125
738,0.3569336,-0.093566895,-0.8870239,0.125,3.421875,-0.09375
739,0.34448242,-0.10455322,-0.9024048,-3.046875,0.40625,-0.265625
740,0.3791504,-0.11090088,-0.9487915,-8.28125,-2.40625,-1.671875
741,0.38330078,-0.121398926,-0.9221802,-10.015625,-0.25,-2.484375
742,0.35009766,-0.14898682,-0.87579346,-7.21875,1.0625,-1.78125
743,0.32348633,-0.14556885,-0.7925415,-1.765625,1.71875,-0.015625
744,0.34716797,-0.14508057,-0.8562622,-0.046875,1.4375,1.0
745,0.35986328,-0.14849854,-0.9077759,1.078125,1.96875,0.9375
746,0.3684082,-0.1362915,-0.91973877,1.703125,1.953125,1.171875
747,0.36914062,-0.14312744,-0.91900635,1.25,1.921875,0.59375
748,0.3564453,-0.13775635,-0.90216064,1.125,1.390625,0.375
749,0.33764648,-0.1326294,-0.87628174,0.734375,0.9375,0.296875
750,0.34448242,-0.13336182,-0.90093994,-0.296875,0.03125,0.0625
751,0.3395996,-0.12286377,-0.8804321,-0.046875,-1.421875,-0.078125
752,0.34692383,-0.13946533,-0.89141846,-1.359375,-2.421875,-0.453125
753,0.32885742,-0.1350708,-0.87091064,1.09375,-5.75,0.796875
754,0.36328125,-0.13214111,-0.8989868,-0.609375,-8.953125,-0.1875
755,0.39111328,-0.14923096,-0.8831177,3.0,-11.3125,0.140625
756,0.41430664,-0.11920166,-0.91119385,7.765625,-9.765625,1.921875
757,0.40039062,-0.113586426,-0.866272,5.953125,-5.359375,1.109375
758,0.39819336,-0.09552002,-0.8062134,7.03125,-3.15625,1.765625
759,0.44604492,-0.11456299,-0.89508057,0.5625,-1.5625,-0.390625
