sample_no,accel_x,accel_y,accel_z,gyro_x,gyro_y,gyro_z
0,-0.122802734,-0.9314575,0.29473877,-0.296875,0.21875,-0.171875
1,-0.12011719,-0.9365845,0.302063,0.953125,-0.5625,-2.21875
2,-0.12768555,-0.9356079,0.3057251,0.140625,0.28125,-0.703125
3,-0.12841797,-0.9402466,0.3118286,1.0625,0.703125,-0.109375
4,-0.14038086,-0.9390259,0.29962158,2.71875,0.828125,-0.375
5,-0.12915039,-0.9295044,0.2732544,-0.875,0.328125,-2.328125
6,-0.12207031,-0.94488525,0.3291626,2.15625,-0.625,-1.375
7,-0.13769531,-0.94122314,0.3069458,1.234375,1.0625,1.015625
8,-0.13354492,-0.91900635,0.28375244,0.9375,-0.421875,0.4375
9,-0.13134766,-0.9390259,0.29449463,2.453125,0.03125,-1.859375
10,-0.13916016,-0.954895,0.30743408,4.84375,2.828125,-0.375
11,-0.13696289,-0.9390259,0.30645752,1.140625,2.640625,-0.84375
12,-0.13964844,-0.93585205,0.2942505,-1.203125,-1.03125,-3.953125
13,-0.15136719,-0.91485596,0.31549072,1.0,0.484375,-1.96875
14,-0.12548828,-0.925354,0.29693604,-0.765625,0.921875,-3.078125
15,-0.13232422,-0.93292236,0.2966919,-1.046875,-1.59375,-4.796875
16,-0.16455078,-0.9805298,0.30767822,-2.53125,-2.421875,0.15625
17,-0.17993164,-0.960022,0.3328247,1.109375,0.71875,1.265625
18,-0.16552734,-0.9522095,0.31304932,-1.28125,4.203125,0.671875
19,-0.14355469,-0.94659424,0.29571533,-3.171875,2.71875,-0.375
20,-0.16430664,-0.9649048,0.3213501,-2.40625,-2.046875,1.125
21,-0.14160156,-0.92559814,0.3213501,-1.046875,3.28125,-1.265625
22,-0.15429688,-0.923645,0.28131104,-3.8125,1.0625,-0.21875
23,-0.15063477,-0.94488525,0.30230713,-1.46875,1.015625,-1.15625
24,-0.11669922,-0.92266846,0.28253174,1.921875,1.734375,-2.453125
25,-0.14892578,-0.897522,0.28570557,-0.328125,1.15625,-1.3125
26,-0.15405273,-0.91119385,0.2876587,-0.265625,-0.515625,-2.75
27,-0.14746094,-0.90167236,0.29595947,0.9375,0.09375,-1.515625
28,-0.14257812,-0.93170166,0.2949829,0.0625,-0.640625,0.9375
29,-0.13598633,-0.9421997,0.31695557,0.6875,-2.109375,-0.328125
30,-0.15795898,-0.96661377,0.30352783,0.671875,-1.484375,0.484375
31,-0.15942383,-0.9290161,0.29595947,1.484375,-1.765625,1.171875
32,-0.14868164,-0.9365845,0.3106079,3.578125,-1.328125,-0.890625
33,-0.14013672,-0.9295044,0.28863525,1.859375,-1.640625,0.296875
34,-0.1616211,-0.92803955,0.31207275,1.28125,-3.15625,2.0625
35,-0.19042969,-0.9649048,0.31011963,0.71875,-1.21875,-0.625
36,-0.16040039,-0.93634033,0.300354,1.1875,-1.0,-0.15625
37,-0.14819336,-0.94659424,0.29864502,-0.71875,-2.390625,0.640625
38,-0.1430664,-0.93927,0.30181885,1.546875,0.375,-0.171875
39,-0.14038086,-0.9146118,0.2822876,1.1875,-0.265625,2.21875
40,-0.14013672,-0.93218994,0.3045044,1.140625,-0.5625,1.421875
41,-0.14379883,-0.94122314,0.32354736,0.484375,1.640625,1.578125
42,-0.14550781,-0.9155884,0.30963135,1.703125,-0.296875,3.0625
43,-0.12182617,-0.92022705,0.29107666,0.125,-0.640625,1.203125
44,-0.13720703,-0.93951416,0.3093872,3.265625,-0.0625,3.390625
45,-0.14941406,-0.9234009,0.315979,1.9375,-0.921875,2.375
46,-0.13793945,-0.9841919,0.31427002,-0.21875,-1.546875,1.484375
47,-0.11987305,-0.9927368,0.31793213,3.578125,0.609375,2.578125
48,-0.119140625,-0.9092407,0.2793579,-1.734375,-1.0625,3.453125
49,-0.115722656,-0.9378052,0.2979126,-1.484375,-4.859375,0.0625
50,-0.13769531,-0.92926025,0.29864502,1.296875,-1.484375,-0.375
51,-0.1538086,-0.93292236,0.27398682,-4.90625,-1.6875,3.453125
52,-0.14672852,-0.958313,0.31500244,-0.84375,0.1875,1.0625
53,-0.13647461,-0.9312134,0.29229736,-1.84375,0.515625,-0.046875
54,-0.1550293,-0.9006958,0.31036377,-1.09375,-0.28125,1.578125
55,-0.12011719,-0.9507446,0.31915283,-5.28125,0.765625,-0.140625
56,-0.13378906,-0.9336548,0.333313,-1.890625,-1.25,0.4375
57,-0.13623047,-0.91534424,0.3189087,-1.625,-0.796875,-0.65625
58,-0.11254883,-0.9414673,0.31549072,-3.40625,-0.125,-1.265625
59,-0.11376953,-0.93927,0.34014893,-0.25,1.46875,-0.421875
60,-0.13305664,-0.93463135,0.33306885,-1.796875,-1.4375,-0.390625
61,-0.11376953,-0.92510986,0.3279419,-1.046875,0.546875,-1.5
62,-0.12646484,-0.9194946,0.33551025,-0.34375,-0.734375,-0.8125
63,-0.12548828,-0.9138794,0.35113525,-1.03125,-1.8125,-1.984375
64,-0.11254883,-0.93585205,0.34210205,-0.734375,-1.9375,-1.21875
65,-0.13769531,-0.92926025,0.34161377,-1.875,-3.359375,0.875
66,-0.14624023,-0.89971924,0.34039307,-0.125,-3.625,-1.1875
67,-0.12866211,-0.9151001,0.34332275,-0.203125,-3.40625,-0.8125
68,-0.15014648,-0.94244385,0.35357666,-0.015625,-3.25,1.125
69,-0.16308594,-0.8989868,0.33624268,-1.09375,-2.78125,-0.109375
70,-0.18066406,-0.9133911,0.3411255,-1.5625,-2.71875,0.078125
71,-0.16796875,-0.92852783,0.36431885,0.65625,-0.375,-0.46875
72,-0.1459961,-0.928772,0.3399048,-0.59375,0.421875,0.3125
73,-0.15405273,-0.9116821,0.34576416,0.65625,0.421875,-0.53125
74,-0.15161133,-0.90802,0.35650635,0.109375,0.5,-1.734375
75,-0.14086914,-0.9199829,0.34014893,-0.515625,-0.703125,-0.03125
76,-0.15405273,-0.9248657,0.36090088,0.546875,0.109375,0.796875
77,-0.15527344,-0.9180298,0.34088135,0.328125,0.484375,-0.578125
78,-0.15283203,-0.90631104,0.34649658,1.859375,-0.734375,0.828125
79,-0.14135742,-0.92388916,0.36114502,0.890625,0.75,0.75
80,-0.12963867,-0.9417114,0.3526001,0.484375,-1.234375,0.03125
81,-0.14550781,-0.90582275,0.34088135,2.921875,-2.296875,1.96875
82,-0.1665039,-0.91778564,0.35040283,2.84375,-0.1875,2.5
83,-0.1538086,-0.94000244,0.3328247,3.171875,-1.78125,1.84375
84,-0.118896484,-0.9072876,0.3255005,2.5,-0.734375,-0.28125
85,-0.1184082,-0.93048096,0.32598877,0.65625,-0.015625,-0.515625
86,-0.15917969,-0.9517212,0.32843018,3.84375,-0.046875,1.84375
87,-0.13427734,-0.91729736,0.31451416,2.109375,-0.46875,-0.140625
88,-0.12963867,-0.9319458,0.317688,1.484375,1.046875,-0.65625
89,-0.13305664,-0.94317627,0.34014893,3.515625,0.0,0.09375
90,-0.13232422,-0.9282837,0.31817627,2.359375,-1.1875,-0.78125
91,-0.14697266,-0.92633057,0.30621338,1.734375,-0.234375,-0.125
92,-0.14331055,-0.9378052,0.31549072,1.171875,-0.1875,-0.078125
93,-0.12573242,-0.9336548,0.3196411,1.765625,-0.78125,-0.03125
94,-0.12890625,-0.927063,0.31304932,1.578125,-0.640625,0.546875
95,-0.13964844,-0.9368286,0.31549072,1.75,-0.96875,0.046875
96,-0.1586914,-0.9258423,0.30426025,1.640625,-1.03125,0.046875
97,-0.15161133,-0.92803955,0.3086548,1.71875,-0.328125,0.65625
98,-0.10986328,-0.94317627,0.3069458,2.046875,-0.984375,-1.046875
99,-0.14282227,-0.9194946,0.29229736,1.453125,-0.96875,0.71875
100,-0.15527344,-0.927063,0.29180908,-0.53125,-0.828125,-0.109375
101,-0.14282227,-0.94415283,0.30548096,1.0,-0.078125,-0.546875
102,-0.14526367,-0.925354,0.29766846,0.6875,-0.203125,0.453125
103,-0.15698242,-0.9348755,0.29522705,-1.171875,-0.875,-0.46875
104,-0.13989258,-0.9378052,0.31085205,0.828125,-0.171875,-0.875
105,-0.14575195,-0.92681885,0.2991333,-0.65625,-0.359375,-1.0625
106,-0.14575195,-0.94122314,0.31671143,-1.5625,-0.859375,-1.234375
107,-0.13647461,-0.9282837,0.3069458,-0.46875,-0.703125,-0.0625
108,-0.13305664,-0.9356079,0.3098755,-2.90625,-2.546875,-0.6875
109,-0.13647461,-0.94781494,0.33428955,-0.953125,-2.671875,0.03125
110,-0.13598633,-0.9343872,0.3201294,0.265625,-2.390625,0.5625
111,-0.16748047,-0.92388916,0.30499268,-1.171875,-2.109375,2.140625
112,-0.18164062,-0.928772,0.31573486,1.46875,-0.640625,1.8125
113,-0.15234375,-0.95147705,0.3093872,0.90625,-0.078125,0.328125
114,-0.13378906,-0.92315674,0.32818604,1.5625,-0.1875,-1.015625
115,-0.15625,-0.9229126,0.31158447,-0.25,-0.0625,-0.046875
116,-0.15478516,-0.93927,0.3040161,-0.609375,0.40625,-0.640625
117,-0.16577148,-0.91485596,0.32647705,1.09375,0.8125,0.0
118,-0.12841797,-0.94488525,0.32330322,0.140625,1.53125,-1.609375
119,-0.14819336,-0.95391846,0.3164673,-0.3125,0.21875,2.21875
120,-0.16137695,-0.90802,0.317688,1.515625,2.1875,2.515625
121,-0.13623047,-0.9241333,0.30108643,-0.578125,1.765625,0.359375
122,-0.14331055,-0.9331665,0.31549072,0.1875,1.953125,0.828125
123,-0.13085938,-0.95025635,0.331604,-0.453125,1.625,2.078125
124,-0.13427734,-0.9277954,0.3196411,0.671875,1.578125,1.796875
125,-0.1262207,-0.9133911,0.3250122,1.109375,3.96875,0.4375
126,-0.1262207,-0.92852783,0.31622314,1.984375,3.953125,0.578125
127,-0.12719727,-0.93707275,0.30718994,1.03125,0.40625,1.1875
128,-0.10473633,-0.9380493,0.31207275,1.953125,-1.5625,1.59375
129,-0.11694336,-0.9299927,0.30548096,0.890625,0.6875,0.640625
130,-0.13012695,-0.9343872,0.3201294,-0.28125,-0.875,1.296875
131,-0.12573242,-0.925354,0.31500244,-2.796875,-0.6875,0.15625
132,-0.114990234,-0.9138794,0.3040161,-2.796875,-0.25,0.234375
133,-0.110839844,-0.95391846,0.31744385,-3.203125,-1.453125,-1.046875
134,-0.14331055,-0.9404907,0.34552002,-1.34375,-1.59375,-0.25
135,-0.1315918,-0.9182739,0.32647705,-1.484375,-0.921875,-0.25
136,-0.13598633,-0.9187622,0.32818604,-0.453125,-1.171875,-0.328125
137,-0.12573242,-0.9380493,0.33770752,0.671875,-2.40625,0.625
138,-0.12573242,-0.9209595,0.33721924,-1.0,-1.203125,0.21875
139,-0.11450195,-0.928772,0.3345337,-0.28125,-1.53125,-0.671875
140,-0.12670898,-0.9385376,0.34136963,0.5,-0.109375,0.484375
141,-0.12524414,-0.9241333,0.33428955,-0.859375,-0.25,0.484375
142,-0.123046875,-0.93292236,0.33648682,-0.390625,-0.375,0.171875
143,-0.1328125,-0.9282837,0.33795166,0.84375,-0.265625,1.015625
144,-0.114990234,-0.9282837,0.33843994,1.03125,-0.6875,1.109375
145,-0.12646484,-0.9260864,0.32965088,1.015625,-1.40625,1.09375
146,-0.12524414,-0.92926025,0.33868408,1.015625,-1.046875,1.359375
147,-0.115234375,-0.92071533,0.32183838,2.109375,0.296875,1.5625
148,-0.12597656,-0.9180298,0.32989502,0.234375,1.65625,0.71875
149,-0.13647461,-0.93927,0.34088135,1.71875,1.15625,0.28125
150,-0.13916016,-0.94244385,0.34259033,3.96875,0.015625,1.453125
151,-0.119140625,-0.9175415,0.31988525,1.296875,2.0,-0.3125
152,-0.11254883,-0.92510986,0.32574463,0.703125,2.421875,-1.421875
153,-0.11254883,-0.92974854,0.34161377,0.96875,0.390625,-0.203125
154,-0.1027832,-0.9439087,0.3267212,1.296875,0.25,-0.078125
155,-0.12158203,-0.9360962,0.33111572,2.5625,-0.984375,0.90625
156,-0.110839844,-0.9187622,0.32061768,1.5,0.109375,-0.390625
157,-0.119384766,-0.96173096,0.32696533,1.671875,-0.421875,-0.96875
158,-0.122558594,-0.9026489,0.32159424,1.78125,-1.125,-0.515625
159,-0.103027344,-0.9524536,0.31451416,-2.375,0.625,-1.296875
160,-0.11376953,-0.94415283,0.32574463,0.953125,-0.859375,-0.796875
161,-0.12719727,-0.92022705,0.3255005,0.5,-0.140625,-1.3125
162,-0.13134766,-0.9282837,0.30670166,1.890625,-0.109375,-0.78125
163,-0.1184082,-0.9146118,0.3237915,-0.65625,-2.640625,-0.515625
164,-0.114746094,-0.9380493,0.331604,-0.25,-1.53125,-0.421875
165,-0.1430664,-0.92926025,0.32281494,1.609375,-1.796875,1.21875
166,-0.14501953,-0.91363525,0.32330322,1.46875,-0.890625,0.578125
167,-0.14208984,-0.9299927,0.31866455,1.890625,-1.203125,1.296875
168,-0.10864258,-0.9417114,0.31378174,0.875,-2.546875,-0.703125
169,-0.12084961,-0.94781494,0.3320923,1.046875,-2.578125,-1.859375
170,-0.14208984,-0.9378052,0.32159424,2.046875,0.296875,-0.4375
171,-0.12548828,-0.923645,0.3135376,0.171875,-1.1875,-1.125
172,-0.1237793,-0.92388916,0.32940674,0.75,-1.484375,-1.578125
173,-0.13745117,-0.9373169,0.31939697,1.015625,-1.65625,-0.671875
174,-0.15698242,-0.9602661,0.31402588,0.421875,-3.03125,1.890625
175,-0.1459961,-0.9414673,0.32476807,0.890625,-2.484375,0.71875
176,-0.13085938,-0.92022705,0.2966919,2.0,-1.953125,-0.109375
177,-0.14672852,-0.93878174,0.3032837,0.890625,-0.515625,-0.359375
178,-0.15429688,-0.93218994,0.31036377,-0.96875,-0.734375,-0.75
179,-0.14697266,-0.93536377,0.30523682,-1.265625,-2.203125,-0.96875
180,-0.14111328,-0.928772,0.30255127,1.125,-0.296875,0.90625
181,-0.11230469,-0.9282837,0.29351807,0.03125,-0.140625,0.5
182,-0.12890625,-0.9578247,0.29351807,1.75,-1.328125,1.265625
183,-0.15112305,-0.95440674,0.29742432,1.296875,-3.359375,1.734375
184,-0.16381836,-0.9170532,0.30645752,2.8125,0.515625,0.21875
185,-0.1821289,-0.91729736,0.2822876,1.796875,1.140625,1.46875
186,-0.14575195,-0.942688,0.30255127,0.09375,0.25,-0.90625
187,-0.1184082,-0.972229,0.30352783,-1.46875,-0.28125,-2.3125
188,-0.13012695,-0.9541626,0.30596924,1.6875,0.203125,0.34375
189,-0.13427734,-0.9175415,0.29400635,0.734375,1.328125,-0.75
190,-0.1352539,-0.94122314,0.30792236,-1.75,-0.078125,-0.078125
191,-0.13793945,-0.9468384,0.31524658,-0.34375,-1.09375,1.0625
192,-0.12084961,-0.9365845,0.30670166,0.5625,0.734375,-0.609375
193,-0.13867188,-0.9380493,0.28302002,-0.015625,-0.390625,2.40625
194,-0.13476562,-0.923645,0.30133057,-0.65625,-0.203125,-0.375
195,-0.13623047,-0.9421997,0.31451416,-0.578125,-0.125,0.015625
196,-0.13476562,-0.93536377,0.3093872,1.03125,1.515625,1.640625
197,-0.12792969,-0.9307251,0.3110962,0.875,-0.78125,0.59375
198,-0.12988281,-0.94854736,0.30596924,2.984375,1.234375,0.6875
199,-0.12646484,-0.9434204,0.29229736,1.703125,1.265625,1.625
200,-0.12426758,-0.94903564,0.3032837,1.515625,-1.046875,0.4375
201,-0.12109375,-0.93341064,0.30108643,2.625,-0.8125,0.953125
202,-0.14208984,-0.9385376,0.29693604,0.640625,0.375,1.6875
203,-0.119628906,-0.9446411,0.2991333,1.140625,-0.90625,0.109375
204,-0.11694336,-0.9365845,0.29473877,1.046875,0.34375,-0.265625
205,-0.11767578,-0.9429321,0.29693604,1.21875,-0.375,1.921875
206,-0.123291016,-0.9468384,0.30645752,1.109375,-1.140625,1.390625
207,-0.12597656,-0.9351196,0.29815674,2.125,-0.84375,1.0
208,-0.12695312,-0.9336548,0.2888794,2.265625,0.734375,0.515625
209,-0.12817383,-0.93048096,0.2962036,0.546875,-1.5,0.4375
210,-0.119384766,-0.95440674,0.2793579,0.828125,-1.03125,0.3125
211,-0.11694336,-0.9483032,0.30548096,2.90625,-1.09375,0.71875
212,-0.11279297,-0.9378052,0.2732544,0.40625,-0.453125,-0.515625
213,-0.1303711,-0.9378052,0.28131104,1.328125,-0.59375,0.796875
214,-0.115234375,-0.9505005,0.2979126,2.28125,-0.953125,0.390625
215,-0.103759766,-0.9324341,0.27911377,0.25,-0.328125,-0.734375
216,-0.12939453,-0.9524536,0.28961182,0.5,0.140625,1.609375
217,-0.12084961,-0.9434204,0.28155518,0.203125,-1.890625,0.46875
218,-0.107421875,-0.94537354,0.2805786,0.4375,-0.3125,-0.15625
219,-0.11303711,-0.9404907,0.28619385,-0.046875,-0.546875,0.5
220,-0.118896484,-0.95196533,0.28399658,-1.265625,-1.046875,0.140625
221,-0.115722656,-0.92681885,0.2756958,-0.1875,-0.828125,0.4375
222,-0.12890625,-0.94488525,0.2871704,-0.28125,0.34375,0.8125
223,-0.11279297,-0.9614868,0.2876587,-1.265625,-0.90625,-0.359375
224,-0.1105957,-0.9324341,0.28814697,-2.234375,-1.796875,-0.625
225,-0.12426758,-0.9561157,0.284729,-2.96875,-0.0625,-0.875
226,-0.13256836,-0.94976807,0.3081665,-0.421875,-0.671875,0.1875
227,-0.11206055,-0.9348755,0.28912354,-2.46875,-0.640625,-1.1875
228,-0.1171875,-0.94781494,0.29107666,-2.796875,-0.46875,-1.25
229,-0.123291016,-0.9456177,0.30645752,-1.5,-2.15625,0.0625
230,-0.11669922,-0.9302368,0.29840088,-1.546875,-1.125,-0.875
231,-0.11401367,-0.93463135,0.2954712,0.265625,-0.5,-0.203125
232,-0.13134766,-0.9360962,0.3032837,-1.21875,-0.953125,-0.3125
233,-0.12963867,-0.9351196,0.31329346,-0.703125,-1.953125,-0.5625
234,-0.12670898,-0.9468384,0.3093872,-0.125,-1.453125,0.046875
235,-0.123535156,-0.9246216,0.31500244,-0.0625,-1.8125,-0.25
236,-0.1303711,-0.93536377,0.30841064,-1.234375,-0.6875,-0.609375
237,-0.12817383,-0.9380493,0.3274536,0.9375,-1.453125,0.203125
238,-0.12207031,-0.9343872,0.30963135,-0.390625,-1.546875,-0.375
239,-0.12695312,-0.9282837,0.30743408,-2.796875,-0.5,-0.90625
240,-0.14697266,-0.9414673,0.33721924,-0.046875,-2.0,0.875
241,-0.14550781,-0.92266846,0.33111572,1.484375,0.15625,0.234375
242,-0.12524414,-0.93414307,0.3171997,-0.921875,-0.0625,-0.578125
243,-0.14770508,-0.92388916,0.3189087,-0.1875,-1.703125,0.59375
244,-0.1315918,-0.9331665,0.32305908,-0.71875,-1.03125,-0.8125
245,-0.11694336,-0.9390259,0.3196411,0.21875,-0.234375,0.09375
246,-0.14648438,-0.9365845,0.3250122,1.5,-0.59375,1.328125
247,-0.13598633,-0.91973877,0.32525635,-1.140625,0.078125,-0.15625
248,-0.12011719,-0.9151001,0.31817627,0.40625,-0.3125,-0.21875
249,-0.13330078,-0.9468384,0.3411255,-0.171875,-0.21875,1.15625
250,-0.12768555,-0.9312134,0.33966064,1.421875,-0.75,-0.171875
251,-0.14550781,-0.93170166,0.317688,0.234375,-0.1875,1.640625
252,-0.125,-0.93634033,0.32086182,2.203125,-0.453125,0.421875
253,-0.12109375,-0.9326782,0.3250122,0.328125,-0.375,0.03125
254,-0.12573242,-0.93707275,0.31671143,-0.8125,-0.09375,-0.0625
255,-0.13208008,-0.9326782,0.33306885,0.6875,-0.46875,0.90625
256,-0.13305664,-0.940979,0.3189087,1.8125,0.421875,0.390625
257,-0.12011719,-0.9307251,0.317688,1.5,0.03125,-0.25
258,-0.12402344,-0.93756104,0.3213501,2.28125,-0.125,0.765625
259,-0.13378906,-0.9331665,0.31329346,1.09375,-0.171875,0.96875
260,-0.12036133,-0.93878174,0.31378174,1.65625,-0.015625,0.0625
261,-0.13085938,-0.9356079,0.3093872,2.140625,0.03125,0.5
262,-0.12548828,-0.92510986,0.3098755,1.1875,0.234375,0.375
263,-0.12475586,-0.9356079,0.3098755,1.328125,-0.390625,0.71875
264,-0.119384766,-0.9336548,0.3093872,1.96875,-0.375,0.28125
265,-0.13208008,-0.9417114,0.31085205,2.0,-0.171875,1.265625
266,-0.12402344,-0.93927,0.30548096,3.28125,-0.96875,1.21875
267,-0.115478516,-0.9373169,0.28253174,3.25,1.21875,-0.375
268,-0.125,-0.9348755,0.30133057,1.59375,-0.15625,1.390625
269,-0.11987305,-0.942688,0.3008423,0.15625,-1.078125,-1.015625
270,-0.12792969,-0.9522095,0.30303955,2.4375,-0.015625,0.578125
271,-0.11743164,-0.9246216,0.28668213,0.765625,0.1875,0.75
272,-0.111572266,-0.93341064,0.2949829,0.65625,-1.109375,-0.203125
273,-0.12158203,-0.9451294,0.3045044,1.15625,-1.0,-0.078125
274,-0.12988281,-0.94000244,0.29473877,-0.625,-0.921875,0.734375
275,-0.115234375,-0.93951416,0.29718018,-0.09375,-1.359375,0.25
276,-0.12060547,-0.94903564,0.29742432,-0.859375,-0.953125,-0.328125
277,-0.12036133,-0.9397583,0.29840088,-0.765625,-1.609375,0.40625
278,-0.12573242,-0.9390259,0.2962036,-2.140625,-1.046875,-0.375
279,-0.122558594,-0.94781494,0.30670166,-1.40625,-1.453125,0.09375
280,-0.1303711,-0.9451294,0.31256104,-0.5625,-0.71875,0.921875
281,-0.12060547,-0.9209595,0.29693604,-0.609375,-0.203125,0.3125
282,-0.12695312,-0.94976807,0.3045044,-0.75,-1.640625,0.9375
283,-0.11328125,-0.9221802,0.30963135,-1.609375,-0.46875,-0.625
284,-0.12597656,-0.93536377,0.31304932,-0.859375,1.234375,0.21875
285,-0.12719727,-0.92803955,0.31988525,0.75,0.3125,1.6875
286,-0.10449219,-0.93096924,0.30889893,-1.21875,-0.15625,-0.375
287,-0.11206055,-0.93463135,0.31158447,0.0,-0.421875,-0.359375
288,-0.123291016,-0.94610596,0.32183838,-0.4375,-0.171875,-0.09375
289,-0.111816406,-0.9365845,0.32476807,-0.1875,0.078125,-0.234375
290,-0.1171875,-0.93218994,0.31915283,0.078125,-0.75,-0.296875
291,-0.11987305,-0.94000244,0.31451416,-0.640625,-0.40625,-0.5625
292,-0.12207031,-0.923645,0.3242798,-0.28125,-0.6875,-0.3125
293,-0.12158203,-0.9380493,0.32208252,-0.59375,-0.5625,0.28125
294,-0.11987305,-0.93878174,0.3237915,0.46875,-0.875,0.328125
295,-0.11645508,-0.923645,0.31866455,0.015625,-0.546875,0.140625
296,-0.12768555,-0.9390259,0.31866455,0.640625,-0.125,0.65625
297,-0.119384766,-0.9312134,0.32598877,-0.8125,-0.90625,0.640625
298,-0.119140625,-0.93878174,0.3196411,-0.9375,-1.046875,-0.53125
299,-0.125,-0.9373169,0.33843994,1.34375,-0.75,1.109375
300,-0.11450195,-0.92755127,0.31695557,0.421875,-0.828125,0.171875
301,-0.1159668,-0.9351196,0.32647705,1.140625,-0.71875,0.140625
302,-0.12060547,-0.9290161,0.317688,1.046875,-0.890625,0.46875
303,-0.1159668,-0.9209595,0.3123169,0.546875,-1.265625,0.484375
304,-0.11450195,-0.9380493,0.32281494,0.6875,-1.21875,0.40625
305,-0.11450195,-0.942688,0.3213501,-1.140625,-2.03125,-0.84375
306,-0.11328125,-0.93414307,0.31695557,-0.921875,-2.359375,-1.0625
307,-0.11816406,-0.93585205,0.32476807,-0.609375,-1.796875,-0.953125
308,-0.12524414,-0.92755127,0.3267212,-1.640625,-2.03125,-1.34375
309,-0.14038086,-0.9248657,0.33062744,-0.359375,-2.09375,-0.78125
310,-0.1394043,-0.9312134,0.33184814,0.84375,0.171875,-1.421875
311,-0.13623047,-0.91851807,0.32525635,-0.4375,0.265625,1.4375
312,-0.13354492,-0.9229126,0.32183838,-1.21875,-0.28125,-0.953125
313,-0.1472168,-0.9385376,0.3435669,0.3125,0.453125,-0.21875
314,-0.13256836,-0.9277954,0.3279419,-0.21875,0.8125,0.28125
315,-0.110839844,-0.9307251,0.3357544,-0.75,1.203125,-1.90625
316,-0.13574219,-0.9421997,0.33770752,1.4375,-0.078125,0.484375
317,-0.13769531,-0.9212036,0.33770752,-0.765625,-0.359375,0.3125
318,-0.13916016,-0.92071533,0.32891846,0.703125,0.421875,0.296875
319,-0.1303711,-0.9429321,0.3328247,0.65625,0.203125,0.90625
320,-0.11743164,-0.9326782,0.33599854,-0.875,-1.0625,-0.515625
321,-0.12451172,-0.92144775,0.33184814,0.515625,-0.765625,-0.171875
322,-0.14428711,-0.9417114,0.32867432,-0.578125,-0.578125,0.640625
323,-0.13793945,-0.92510986,0.3501587,1.375,-1.0,0.875
324,-0.109375,-0.90289307,0.3189087,0.3125,0.796875,-1.4375
325,-0.1352539,-0.93218994,0.331604,0.75,-1.109375,-0.515625
326,-0.13867188,-0.92315674,0.3435669,-1.453125,-1.953125,-0.875
327,-0.13256836,-0.9170532,0.34503174,0.03125,-0.109375,-0.15625
328,-0.115722656,-0.9331665,0.33013916,2.53125,-2.0,0.109375
329,-0.13476562,-0.9248657,0.33502197,0.6875,-0.390625,0.15625
330,-0.1472168,-0.92510986,0.33087158,1.84375,-0.515625,1.0
331,-0.14331055,-0.92852783,0.3303833,0.671875,-0.546875,0.015625
332,-0.14648438,-0.9209595,0.35162354,2.125,1.1875,1.234375
333,-0.14282227,-0.9104614,0.33258057,2.359375,1.09375,1.3125
334,-0.12963867,-0.9343872,0.32159424,1.5,1.53125,-0.21875
335,-0.13134766,-0.9480591,0.3430786,3.359375,0.828125,-0.359375
336,-0.1303711,-0.927063,0.32574463,2.8125,1.46875,-0.28125
337,-0.11303711,-0.93292236,0.32086182,0.921875,1.625,-0.765625
338,-0.12524414,-0.92681885,0.32965088,2.296875,0.28125,-0.328125
339,-0.13647461,-0.9299927,0.32305908,1.546875,1.140625,-0.09375
340,-0.1171875,-0.94659424,0.31793213,-0.015625,0.390625,-2.34375
341,-0.13012695,-0.9414673,0.31939697,1.328125,0.328125,0.140625
342,-0.12768555,-0.91851807,0.31500244,1.03125,-0.59375,0.03125
343,-0.114990234,-0.9336548,0.31134033,0.9375,-1.625,-0.125
344,-0.13208008,-0.925354,0.3040161,1.078125,-2.21875,0.65625
345,-0.14257812,-0.9492798,0.3196411,0.578125,-0.78125,1.046875
346,-0.13916016,-0.9265747,0.31915283,1.625,0.046875,1.109375
347,-0.12768555,-0.9146118,0.29815674,0.953125,0.34375,1.34375
348,-0.119140625,-0.9336548,0.3086548,1.828125,-1.765625,-0.234375
349,-0.14501953,-0.9446411,0.32110596,2.75,-0.359375,-0.265625
350,-0.15234375,-0.9343872,0.30767822,2.390625,1.46875,0.546875
351,-0.13720703,-0.9338989,0.29571533,1.5,0.75,-1.375
352,-0.10961914,-0.9246216,0.31207275,3.359375,0.859375,-1.28125
353,-0.1328125,-0.93951416,0.29083252,1.578125,0.796875,0.921875
354,-0.1274414,-0.9483032,0.2871704,-1.171875,-0.15625,-0.875
355,-0.1303711,-0.9439087,0.30889893,2.296875,0.28125,-0.265625
356,-0.110839844,-0.92315674,0.29986572,2.6875,0.625,0.640625
357,-0.11279297,-0.91973877,0.28399658,-0.53125,-0.609375,0.0
358,-0.13330078,-0.95196533,0.30499268,-0.109375,-2.0625,0.828125
359,-0.123046875,-0.9429321,0.30499268,-0.890625,-2.109375,-0.875
360,-0.12426758,-0.93634033,0.29644775,-0.3125,-1.75,-0.25
361,-0.12988281,-0.9290161,0.29522705,-0.53125,-1.65625,0.71875
362,-0.13549805,-0.9524536,0.30963135,-2.34375,-2.328125,0.015625
363,-0.1274414,-0.93218994,0.315979,-0.828125,-1.671875,0.09375
364,-0.13305664,-0.9507446,0.3057251,-1.203125,-1.6875,0.328125
365,-0.12402344,-0.9324341,0.31451416,-0.140625,-2.0625,-0.640625
366,-0.13549805,-0.94122314,0.31622314,-0.78125,-2.328125,-0.046875
367,-0.12524414,-0.9312134,0.31671143,0.984375,-2.984375,-1.71875
368,-0.14794922,-0.942688,0.31304932,-0.390625,-2.3125,0.890625
369,-0.13842773,-0.9229126,0.30255127,-2.296875,-2.390625,-0.59375
370,-0.14672852,-0.93951416,0.32208252,-2.34375,-2.96875,-0.296875
371,-0.14941406,-0.9505005,0.32232666,0.890625,-1.265625,0.5625
372,-0.14501953,-0.91656494,0.29937744,-1.40625,-1.28125,-0.109375
373,-0.13305664,-0.9368286,0.31280518,-0.796875,-1.6875,0.109375
374,-0.13842773,-0.9380493,0.3255005,-0.484375,-1.96875,-0.46875
375,-0.14160156,-0.9319458,0.3110962,-0.875,-1.015625,0.46875
376,-0.15454102,-0.92633057,0.3189087,0.34375,-0.140625,0.640625
377,-0.14208984,-0.9221802,0.32843018,-0.40625,-0.9375,-0.109375
378,-0.13891602,-0.92852783,0.3086548,-0.671875,-0.9375,0.046875
379,-0.1418457,-0.93218994,0.3242798,0.125,-1.234375,1.015625
380,-0.1496582,-0.92315674,0.31939697,-0.90625,-0.109375,0.171875
381,-0.14135742,-0.9299927,0.32061768,0.3125,-0.6875,0.1875
382,-0.14379883,-0.92926025,0.33868408,0.0625,0.0625,0.640625
383,-0.13574219,-0.9336548,0.31793213,0.640625,0.5625,-0.125
384,-0.14160156,-0.9102173,0.31915283,-0.9375,-0.5625,0.453125
385,-0.15112305,-0.9373169,0.32989502,-1.015625,-0.375,-0.65625
386,-0.15356445,-0.94415283,0.347229,1.796875,0.109375,1.625
387,-0.1303711,-0.9351196,0.32843018,1.8125,0.671875,0.90625
388,-0.13452148,-0.92071533,0.3184204,1.15625,-0.46875,1.328125
389,-0.13110352,-0.9414673,0.3196411,1.78125,-1.78125,1.5625
390,-0.13891602,-0.9458618,0.3303833,0.296875,-0.1875,1.953125
391,-0.12768555,-0.94073486,0.3171997,1.171875,0.453125,2.421875
392,-0.12548828,-0.9356079,0.30889893,0.890625,-0.703125,1.984375
393,-0.107177734,-0.9314575,0.31573486,-0.125,-1.578125,1.140625
394,-0.10888672,-0.9417114,0.3171997,0.671875,-0.28125,1.578125
395,-0.119140625,-0.9209595,0.31427002,1.8125,-1.03125,1.546875
396,-0.122558594,-0.92633057,0.3250122,1.078125,0.34375,1.203125
397,-0.13745117,-0.9302368,0.3164673,0.421875,0.296875,1.703125
398,-0.107666016,-0.92926025,0.32037354,1.84375,-0.78125,0.9375
399,-0.107666016,-0.94000244,0.30914307,0.5625,0.984375,1.21875
400,-0.107910156,-0.92022705,0.30499268,-0.375,-0.046875,0.9375
401,-0.10913086,-0.94122314,0.31988525,0.1875,0.59375,-0.125
402,-0.1081543,-0.927063,0.31011963,1.828125,0.71875,0.21875
403,-0.103027344,-0.9397583,0.3015747,-0.515625,-0.171875,-0.125
404,-0.10913086,-0.9458618,0.31988525,0.5,-0.96875,-0.40625
405,-0.10229492,-0.93463135,0.31011963,-0.578125,-0.25,-0.71875
406,-0.10498047,-0.9273071,0.31671143,0.265625,-0.734375,-0.171875
407,-0.11743164,-0.93341064,0.31573486,-0.609375,0.0,-0.421875
408,-0.12695312,-0.92803955,0.31500244,0.09375,-0.453125,-0.375
409,-0.11816406,-0.9404907,0.32720947,0.5,-0.84375,-0.390625
410,-0.115234375,-0.9505005,0.33013916,-0.53125,-0.828125,-0.265625
411,-0.13500977,-0.9373169,0.32891846,-0.359375,-1.234375,0.046875
412,-0.13867188,-0.92437744,0.3328247,0.21875,0.28125,-0.515625
413,-0.123291016,-0.9116821,0.33917236,0.34375,-0.75,-0.453125
414,-0.123291016,-0.93951416,0.33013916,-1.15625,-0.265625,-0.390625
415,-0.11401367,-0.9319458,0.33624268,-1.25,-1.28125,0.234375
416,-0.123535156,-0.94659424,0.33258057,-1.171875,-0.234375,-0.5625
417,-0.12915039,-0.9180298,0.33502197,1.796875,-0.109375,1.109375
418,-0.10668945,-0.9290161,0.32183838,-0.796875,0.46875,-0.3125
419,-0.1159668,-0.9336548,0.3340454,0.375,-1.0625,0.21875
420,-0.12182617,-0.9168091,0.3291626,1.0,-0.03125,0.53125
421,-0.110839844,-0.91363525,0.32452393,-0.140625,1.03125,-0.078125
422,-0.115722656,-0.9326782,0.33355713,0.484375,-0.890625,0.296875
423,-0.103759766,-0.93048096,0.32989502,-1.3125,-1.078125,-1.0
424,-0.107177734,-0.9380493,0.33599854,-1.71875,-1.21875,-1.671875
425,-0.118652344,-0.93951416,0.33624268,-2.765625,-1.59375,-1.953125
426,-0.12060547,-0.9163208,0.33917236,-2.03125,-2.578125,-1.09375
427,-0.13989258,-0.9224243,0.33795166,0.78125,-1.96875,0.453125
428,-0.15014648,-0.92266846,0.34918213,1.015625,-0.796875,0.4375
429,-0.1340332,-0.92974854,0.33428955,1.734375,0.03125,0.09375
430,-0.12231445,-0.9158325,0.3399048,-0.625,-1.09375,-0.234375
431,-0.13476562,-0.928772,0.34625244,0.109375,-0.140625,-1.21875
432,-0.1484375,-0.93756104,0.3508911,1.6875,-0.21875,1.046875
433,-0.1340332,-0.9351196,0.33966064,0.15625,0.578125,-0.375
434,-0.11645508,-0.9158325,0.333313,-1.015625,0.625,-1.125
435,-0.13769531,-0.9221802,0.3381958,0.78125,-0.90625,-0.09375
436,-0.1418457,-0.9468384,0.348938,-0.5625,0.09375,0.4375
437,-0.13061523,-0.9234009,0.34454346,-0.03125,-0.71875,0.671875
438,-0.11401367,-0.8892212,0.3303833,1.015625,0.109375,-0.984375
439,-0.1274414,-0.9155884,0.34625244,1.515625,-0.953125,-0.296875
440,-0.14135742,-0.94244385,0.34332275,0.765625,-1.703125,0.75
441,-0.1274414,-0.91973877,0.34405518,0.578125,-1.453125,-0.125
442,-0.13061523,-0.9163208,0.33380127,2.078125,-0.453125,0.28125
443,-0.13989258,-0.9067993,0.33306885,3.03125,-0.484375,0.359375
444,-0.15722656,-0.9414673,0.34039307,0.625,0.03125,0.578125
445,-0.13208008,-0.9258423,0.32452393,-1.46875,-0.671875,-0.140625
446,-0.13110352,-0.9121704,0.3513794,2.1875,0.71875,0.171875
447,-0.12548828,-0.9194946,0.33087158,0.78125,-0.796875,-0.28125
448,-0.12402344,-0.9290161,0.34259033,0.3125,-1.40625,-1.90625
449,-0.13134766,-0.9351196,0.35186768,1.40625,-1.453125,-1.3125
450,-0.13745117,-0.92315674,0.34405518,1.25,-0.265625,0.484375
451,-0.14746094,-0.90802,0.33746338,1.65625,-1.1875,-0.140625
452,-0.13452148,-0.92071533,0.3303833,1.53125,-0.515625,-2.0625
453,-0.12670898,-0.9553833,0.32208252,-0.578125,-4.515625,-1.359375
454,-0.15917969,-0.9351196,0.33795166,1.03125,-1.90625,0.984375
455,-0.16625977,-0.91851807,0.31402588,0.1875,0.921875,0.609375
456,-0.1394043,-0.93292236,0.3279419,0.78125,0.921875,-0.3125
457,-0.123535156,-0.93414307,0.3213501,2.765625,0.203125,0.359375
458,-0.13305664,-0.9468384,0.3123169,0.3125,-0.484375,1.875
459,-0.1484375,-0.90338135,0.3032837,0.421875,-1.375,0.46875
460,-0.12988281,-0.940979,0.32525635,1.75,0.859375,-1.265625
461,-0.14257812,-0.94000244,0.32183838,1.515625,0.59375,0.578125
462,-0.14135742,-0.9319458,0.30181885,-0.59375,0.4375,-0.578125
463,-0.12841797,-0.93341064,0.31793213,0.140625,0.703125,-1.25
464,-0.12646484,-0.9302368,0.32281494,-0.375,-0.671875,-1.453125
465,-0.14038086,-0.9360962,0.3357544,-0.3125,0.34375,-1.03125
466,-0.14282227,-0.9385376,0.32476807,-0.625,0.765625,0.1875
467,-0.13232422,-0.92852783,0.3189087,-0.734375,-2.078125,0.171875
468,-0.12695312,-0.928772,0.3411255,0.390625,-1.09375,-0.5
469,-0.15600586,-0.92852783,0.32232666,0.953125,0.09375,0.4375
470,-0.1694336,-0.92559814,0.3250122,0.171875,-1.109375,0.296875
471,-0.13256836,-0.93829346,0.32843018,0.46875,0.46875,-0.578125
472,-0.12231445,-0.9212036,0.32989502,2.296875,0.90625,0.5
473,-0.15844727,-0.92022705,0.31695557,2.09375,-0.90625,1.265625
474,-0.1496582,-0.9229126,0.32208252,0.28125,-0.125,-0.1875
475,-0.1315918,-0.9390259,0.32769775,1.59375,0.09375,-0.5
476,-0.13549805,-0.93341064,0.33892822,3.65625,0.5625,1.1875
477,-0.15112305,-0.9221802,0.31817627,0.4375,-0.875,0.59375
478,-0.14111328,-0.92974854,0.31427002,0.84375,-0.40625,0.125
479,-0.13647461,-0.93878174,0.33087158,1.3125,-0.296875,1.578125
480,-0.13134766,-0.92852783,0.3255005,2.734375,-0.515625,0.171875
481,-0.13891602,-0.9221802,0.31549072,2.328125,0.375,1.578125
482,-0.14819336,-0.9348755,0.31427002,1.171875,-0.984375,1.03125
483,-0.13232422,-0.9492798,0.3196411,2.9375,-0.15625,0.265625
484,-0.13671875,-0.92510986,0.3008423,2.109375,0.125,1.34375
485,-0.13256836,-0.93536377,0.30670166,1.609375,0.296875,0.859375
486,-0.1352539,-0.942688,0.30181885,1.046875,-0.953125,0.25
487,-0.13867188,-0.9326782,0.3106079,2.75,0.34375,1.65625
488,-0.12084961,-0.93927,0.28814697,0.578125,0.5625,0.734375
489,-0.1237793,-0.94976807,0.28692627,-0.78125,-1.28125,0.46875
490,-0.12573242,-0.94195557,0.31036377,-0.15625,-0.78125,0.46875
491,-0.13745117,-0.92974854,0.30181885,-0.96875,-0.28125,0.15625
492,-0.12231445,-0.92193604,0.29815674,-0.859375,-0.953125,-0.65625
493,-0.11743164,-0.9512329,0.30499268,-2.0,-1.625,-0.34375
494,-0.12475586,-0.94244385,0.32452393,-1.171875,-1.109375,-0.453125
495,-0.12695312,-0.9351196,0.3081665,-3.03125,-0.953125,-0.125
496,-0.12768555,-0.9307251,0.31866455,-0.453125,-1.5,0.125
497,-0.1472168,-0.9307251,0.31011963,-2.390625,-0.875,-0.109375
498,-0.13793945,-0.9380493,0.3184204,-1.3125,-1.390625,0.546875
499,-0.123535156,-0.9199829,0.33013916,-0.359375,-0.59375,-0.109375
500,-0.13330078,-0.9312134,0.3201294,-1.484375,-0.3125,0.703125
501,-0.13745117,-0.93634033,0.3274536,-0.5625,-0.765625,0.125
502,-0.12524414,-0.9194946,0.32696533,-0.046875,-1.3125,-0.3125
503,-0.12573242,-0.9336548,0.33111572,-0.078125,-0.96875,0.46875
504,-0.12915039,-0.9229126,0.32720947,-0.859375,-0.9375,0.484375
505,-0.13964844,-0.93218994,0.32891846,-2.265625,-0.390625,-0.78125
506,-0.14331055,-0.9338989,0.3423462,0.578125,-0.828125,0.609375
507,-0.123046875,-0.927063,0.3345337,-0.828125,-0.234375,0.0
508,-0.12646484,-0.9224243,0.33087158,-0.625,-0.53125,-0.09375
509,-0.13232422,-0.9258423,0.3406372,0.09375,-0.21875,0.015625
510,-0.14233398,-0.9260864,0.33599854,-0.3125,-0.65625,-0.015625
511,-0.12646484,-0.9248657,0.33673096,1.171875,-0.15625,0.75
512,-0.13452148,-0.9312134,0.3357544,-0.65625,-0.625,-0.28125
513,-0.14453125,-0.9248657,0.3418579,0.59375,-1.125,-0.15625
514,-0.13842773,-0.92681885,0.348938,0.90625,0.390625,0.125
515,-0.12573242,-0.91192627,0.32965088,-0.15625,0.0625,0.0625
516,-0.13476562,-0.9336548,0.34161377,0.15625,-0.78125,-0.25
517,-0.14233398,-0.9168091,0.3526001,1.46875,-0.6875,0.9375
518,-0.12963867,-0.928772,0.3274536,0.296875,0.546875,-0.03125
519,-0.13330078,-0.91729736,0.34161377,-0.296875,-0.984375,0.8125
520,-0.12963867,-0.93048096,0.34405518,-1.03125,-1.5,-1.0
521,-0.14526367,-0.9229126,0.347229,0.0625,0.015625,0.484375
522,-0.13427734,-0.9175415,0.3369751,0.75,-1.015625,0.4375
523,-0.1303711,-0.92852783,0.33917236,-0.515625,-0.546875,0.015625
524,-0.13354492,-0.92633057,0.34454346,0.9375,-0.953125,1.09375
525,-0.12084961,-0.9126587,0.34429932,-0.25,-0.609375,0.03125
526,-0.13256836,-0.9368286,0.34381104,0.390625,-0.34375,0.40625
527,-0.13110352,-0.91973877,0.3423462,0.140625,-0.828125,0.625
528,-0.11743164,-0.91729736,0.3320923,-0.015625,-1.0,-0.265625
529,-0.123291016,-0.92559814,0.3423462,0.390625,-1.203125,-0.296875
530,-0.14453125,-0.9258423,0.347229,0.046875,-1.359375,0.28125
531,-0.12084961,-0.92144775,0.3418579,-0.140625,-0.828125,-0.71875
532,-0.125,-0.93756104,0.3501587,2.21875,-1.421875,0.09375
533,-0.12670898,-0.9212036,0.34039307,1.625,0.203125,-0.65625
534,-0.14477539,-0.91729736,0.32940674,1.25,-0.328125,0.46875
535,-0.13427734,-0.91192627,0.3189087,-0.109375,0.09375,0.171875
536,-0.13378906,-0.93927,0.34381104,0.78125,0.0,0.453125
537,-0.13745117,-0.9282837,0.34136963,1.453125,-0.40625,0.75
538,-0.140625,-0.9307251,0.3225708,-0.796875,-0.3125,-1.640625
539,-0.12817383,-0.92315674,0.34210205,0.4375,-0.125,-0.0625
540,-0.122802734,-0.9194946,0.33306885,-0.46875,0.5625,0.140625
541,-0.12524414,-0.92266846,0.33551025,-0.234375,0.03125,-0.875
542,-0.13549805,-0.9273071,0.3423462,0.859375,-0.140625,-0.375
543,-0.13549805,-0.93170166,0.34625244,-0.84375,-0.96875,-0.203125
544,-0.12866211,-0.9182739,0.33966064,0.765625,-1.09375,0.8125
545,-0.13720703,-0.92633057,0.33917236,0.375,-0.015625,0.5
546,-0.14672852,-0.93707275,0.34332275,-0.03125,-0.65625,0.6875
547,-0.1430664,-0.92315674,0.333313,0.015625,-0.484375,0.625
548,-0.1340332,-0.9155884,0.34454346,0.453125,-0.890625,0.296875
549,-0.13500977,-0.91729736,0.34405518,1.015625,0.203125,-0.390625
550,-0.14355469,-0.9116821,0.3381958,0.4375,-0.09375,0.265625
551,-0.13232422,-0.9209595,0.3418579,-0.953125,-0.125,-1.84375
552,-0.14160156,-0.93707275,0.36016846,0.296875,-0.546875,0.3125
553,-0.12963867,-0.8989868,0.3406372,0.71875,-0.265625,0.515625
554,-0.12084961,-0.9326782,0.32452393,0.28125,0.234375,0.515625
555,-0.1352539,-0.9338989,0.31085205,0.140625,0.625,0.890625
556,-0.14257812,-0.9385376,0.32037354,2.3125,-0.875,0.84375
557,-0.13696289,-0.927063,0.31011963,1.234375,0.078125,-0.375
558,-0.13012695,-0.9495239,0.31695557,2.90625,0.078125,1.234375
559,-0.14160156,-0.9182739,0.31402588,2.359375,-0.6875,1.46875
560,-0.14135742,-0.93218994,0.30352783,1.25,0.234375,0.40625
561,-0.1328125,-0.9402466,0.30792236,1.75,-0.640625,1.171875
562,-0.12695312,-0.94000244,0.32696533,3.515625,0.734375,-0.359375
563,-0.1262207,-0.94537354,0.30010986,1.046875,0.109375,0.421875
564,-0.13232422,-0.9212036,0.2991333,1.5625,-0.984375,0.921875
565,-0.12084961,-0.9402466,0.30499268,-0.375,-1.453125,-0.6875
566,-0.1352539,-0.93585205,0.3110962,1.921875,-0.359375,0.59375
567,-0.13208008,-0.9312134,0.2937622,-0.546875,-1.25,-0.828125
568,-0.13574219,-0.9414673,0.3086548,0.28125,-1.65625,-0.46875
569,-0.13208008,-0.93341064,0.30548096,-1.34375,-1.40625,-0.34375
570,-0.1496582,-0.93096924,0.31134033,-0.453125,-1.375,-0.375
571,-0.14331055,-0.93829346,0.31036377,-0.4375,-1.375,-0.609375
572,-0.14477539,-0.9319458,0.3093872,-0.703125,-1.1875,-0.546875
573,-0.14013672,-0.9299927,0.31011963,-0.625,-1.296875,-0.046875
574,-0.13989258,-0.91900635,0.3106079,-0.1875,-0.578125,-0.546875
575,-0.15161133,-0.942688,0.30792236,-1.734375,-1.015625,-0.03125
576,-0.13647461,-0.93536377,0.31939697,0.25,-1.9375,-0.3125
577,-0.13745117,-0.9163208,0.31207275,-0.296875,-0.46875,-0.671875
578,-0.15405273,-0.9417114,0.31085205,-1.40625,-0.65625,-0.046875
579,-0.14257812,-0.9290161,0.31304932,-0.8125,-0.796875,-0.28125
580,-0.14477539,-0.9348755,0.31524658,-1.5625,-1.5625,-0.578125
581,-0.15527344,-0.9319458,0.3242798,1.0,0.578125,0.4375
582,-0.14428711,-0.91290283,0.31256104,-0.421875,-0.765625,-0.71875
583,-0.14111328,-0.9336548,0.32281494,-1.171875,-1.03125,-0.90625
584,-0.13671875,-0.93536377,0.3369751,1.140625,-0.390625,0.40625
585,-0.14648438,-0.9175415,0.3123169,-0.578125,-0.453125,0.09375
586,-0.14697266,-0.9365845,0.33111572,0.625,-0.171875,0.671875
587,-0.14331055,-0.9312134,0.32574463,-0.703125,-0.4375,0.390625
588,-0.14453125,-0.91851807,0.32110596,-0.234375,-0.640625,0.15625
589,-0.15136719,-0.928772,0.33477783,0.421875,0.03125,0.71875
590,-0.14819336,-0.93463135,0.33013916,-0.375,-0.40625,0.140625
591,-0.1418457,-0.9336548,0.3250122,0.1875,-0.546875,-0.40625
592,-0.14990234,-0.9241333,0.33673096,1.0625,0.15625,1.078125
593,-0.14624023,-0.9326782,0.33306885,-0.21875,0.015625,-0.109375
594,-0.13989258,-0.9209595,0.3274536,-0.296875,-0.828125,0.375
595,-0.13427734,-0.9248657,0.32476807,-1.375,-0.625,-0.171875
596,-0.15063477,-0.9290161,0.33258057,0.78125,0.359375,0.484375
597,-0.15014648,-0.93218994,0.33428955,1.34375,-0.453125,0.578125
598,-0.13500977,-0.93292236,0.3340454,1.71875,-0.109375,0.34375
599,-0.13867188,-0.9378052,0.33013916,2.15625,-0.984375,0.453125
600,-0.15673828,-0.92315674,0.3213501,-0.484375,-1.34375,0.515625
601,-0.13745117,-0.91900635,0.32598877,0.734375,-0.125,0.265625
602,-0.13598633,-0.94488525,0.32818604,1.828125,-0.671875,0.078125
603,-0.14038086,-0.92681885,0.3274536,1.3125,-0.3125,-0.21875
604,-0.14233398,-0.92022705,0.3303833,3.359375,-0.78125,0.4375
605,-0.14819336,-0.92022705,0.31085205,1.625,-0.296875,0.3125
606,-0.14453125,-0.94000244,0.32305908,1.671875,-0.125,0.953125
607,-0.15063477,-0.9360962,0.3267212,1.78125,-0.46875,0.734375
608,-0.13696289,-0.9209595,0.3118286,2.328125,-0.5,0.78125
609,-0.14379883,-0.9456177,0.3147583,2.546875,0.828125,1.78125
610,-0.14038086,-0.91778564,0.30670166,-0.375,-0.796875,0.59375
611,-0.13500977,-0.9365845,0.3171997,0.5,-0.296875,0.046875
612,-0.13208008,-0.9573364,0.32647705,2.3125,0.65625,2.53125
613,-0.11303711,-0.93341064,0.2888794,-1.328125,-0.96875,0.015625
614,-0.13232422,-0.9365845,0.31207275,1.421875,-1.8125,0.84375
615,-0.14038086,-0.925354,0.31549072,1.484375,-0.09375,1.578125
616,-0.13061523,-0.93341064,0.29644775,-0.984375,-0.21875,-0.59375
617,-0.13232422,-0.93585205,0.30767822,-2.203125,-2.21875,0.890625
618,-0.13330078,-0.93756104,0.3213501,-2.125,-1.296875,0.953125
619,-0.125,-0.9302368,0.3123169,-1.015625,-0.703125,0.28125
620,-0.14038086,-0.92315674,0.32354736,-0.90625,-0.484375,0.640625
621,-0.14257812,-0.911438,0.32965088,-1.09375,-0.0625,0.1875
622,-0.13085938,-0.93048096,0.3225708,-1.9375,-0.375,0.796875
623,-0.1237793,-0.93707275,0.32598877,-1.40625,-0.640625,0.25
624,-0.11767578,-0.9155884,0.32305908,0.25,-0.421875,-1.90625
625,-0.1340332,-0.9302368,0.3291626,0.328125,-0.234375,0.21875
626,-0.12670898,-0.92193604,0.3184204,-2.359375,-0.9375,-0.9375
627,-0.13305664,-0.9336548,0.3411255,-0.875,-0.78125,-0.34375
628,-0.1303711,-0.92437744,0.34136963,1.703125,-0.609375,0.28125
629,-0.13745117,-0.9365845,0.32525635,-1.515625,-0.265625,-0.171875
630,-0.1315918,-0.9356079,0.33477783,-0.015625,-1.765625,0.28125
631,-0.12158203,-0.93096924,0.33502197,-0.5,-0.34375,-0.40625
632,-0.13696289,-0.91900635,0.3418579,-0.453125,-0.5625,0.453125
633,-0.1484375,-0.927063,0.33892822,-0.5625,-0.546875,0.21875
634,-0.13647461,-0.9326782,0.33551025,-0.078125,-0.578125,-0.078125
635,-0.12890625,-0.91851807,0.33477783,0.78125,-0.421875,0.578125
636,-0.12988281,-0.9277954,0.33795166,-0.109375,-0.296875,-0.140625
637,-0.1340332,-0.9248657,0.33892822,0.796875,-0.796875,-0.25
638,-0.13330078,-0.91363525,0.33599854,0.953125,0.0625,0.15625
639,-0.13330078,-0.9314575,0.3357544,0.046875,-0.578125,0.421875
640,-0.11645508,-0.92926025,0.3430786,0.953125,-0.890625,-0.71875
641,-0.13598633,-0.9265747,0.33721924,0.421875,-0.796875,1.21875
642,-0.12084961,-0.9151001,0.32110596,-1.71875,-0.5625,-0.609375
643,-0.14135742,-0.93927,0.34649658,-0.5625,-1.0625,-0.4375
644,-0.14746094,-0.91656494,0.34503174,1.5625,-0.296875,0.625
645,-0.13793945,-0.91729736,0.33624268,-0.6875,-0.265625,-0.78125
646,-0.13232422,-0.93170166,0.33770752,0.28125,-0.953125,-0.828125
647,-0.13989258,-0.9260864,0.34405518,0.140625,-0.28125,-0.25
648,-0.13476562,-0.92071533,0.33868408,0.71875,-0.40625,-0.828125
649,-0.12670898,-0.9265747,0.3418579,0.703125,-0.34375,-1.46875
650,-0.13134766,-0.9299927,0.34039307,0.03125,-1.609375,-1.0625
651,-0.13208008,-0.9331665,0.3496704,1.9375,-1.09375,0.1875
652,-0.14477539,-0.9365845,0.33599854,2.3125,-0.640625,0.671875
653,-0.1394043,-0.91900635,0.33868408,1.0625,-0.640625,0.140625
654,-0.14257812,-0.9138794,0.32305908,0.15625,-0.5,1.0625
655,-0.14941406,-0.9373169,0.3399048,0.703125,-0.53125,1.34375
656,-0.12792969,-0.92315674,0.33599854,0.6875,0.171875,-0.296875
657,-0.13549805,-0.92926025,0.33428955,-0.265625,-0.671875,0.453125
658,-0.1394043,-0.9116821,0.3262329,-1.578125,0.234375,-1.25
659,-0.14770508,-0.92852783,0.34698486,-1.234375,-0.53125,-0.453125
660,-0.13745117,-0.9282837,0.3411255,1.109375,-0.578125,-0.15625
661,-0.1237793,-0.91290283,0.3345337,-1.09375,-0.375,-0.75
662,-0.15039062,-0.92803955,0.3447876,0.171875,-0.578125,0.390625
663,-0.1508789,-0.9331665,0.348938,0.171875,-0.84375,0.71875
664,-0.1303711,-0.9241333,0.3352661,0.28125,-0.234375,-0.078125
665,-0.13232422,-0.91656494,0.3399048,1.171875,-1.0,0.703125
666,-0.14013672,-0.9102173,0.33087158,-0.078125,-0.84375,0.21875
667,-0.14111328,-0.9170532,0.33087158,0.40625,-0.3125,-0.5
668,-0.13964844,-0.9248657,0.34503174,1.328125,-0.28125,-0.515625
669,-0.14892578,-0.9277954,0.34698486,0.296875,-0.453125,0.234375
670,-0.13720703,-0.9180298,0.34039307,0.15625,-0.90625,0.0625
671,-0.13623047,-0.91290283,0.33868408,1.703125,-0.375,-0.171875
672,-0.15600586,-0.9373169,0.3381958,0.890625,-0.046875,0.25
673,-0.13793945,-0.9151001,0.34942627,0.34375,-0.921875,0.015625
674,-0.12890625,-0.9055786,0.3345337,-0.5625,-0.234375,-1.296875
675,-0.1496582,-0.9295044,0.34332275,0.4375,-0.390625,-0.203125
676,-0.15893555,-0.9175415,0.34088135,0.75,-1.0625,-0.65625
677,-0.14648438,-0.9180298,0.34088135,0.0625,0.375,-1.015625
678,-0.12988281,-0.9290161,0.33892822,1.859375,-0.015625,0.5
679,-0.14038086,-0.9216919,0.3418579,1.640625,-0.671875,0.0625
680,-0.13549805,-0.9158325,0.34039307,1.609375,0.265625,-1.21875
681,-0.13134766,-0.93096924,0.331604,1.3125,-1.59375,-1.890625
682,-0.16137695,-0.9170532,0.3447876,3.03125,-2.296875,-1.015625
683,-0.15991211,-0.90631104,0.32476807,1.046875,-0.109375,-2.359375
684,-0.15625,-0.9378052,0.34332275,0.1875,-2.65625,-0.796875
685,-0.14990234,-0.9077759,0.33673096,3.25,0.4375,-2.734375
686,-0.1328125,-0.913147,0.2786255,0.078125,-0.078125,-0.65625
687,-0.18432617,-0.97369385,0.3320923,4.4375,-5.796875,0.890625
688,-0.17358398,-0.9402466,0.3640747,0.859375,0.703125,-3.90625
689,-0.16235352,-0.9234009,0.30181885,-2.34375,1.34375,-0.375
690,-0.18383789,-0.92144775,0.32965088,-1.484375,0.015625,1.578125
691,-0.16064453,-0.9182739,0.32696533,-0.46875,1.25,0.6875
692,-0.14892578,-0.90948486,0.3303833,1.375,0.921875,0.953125
693,-0.18115234,-0.9155884,0.32940674,-1.140625,3.046875,1.578125
694,-0.18188477,-0.9421997,0.31573486,-1.875,2.203125,0.671875
695,-0.13696289,-0.9324341,0.3369751,-0.015625,1.6875,-1.265625
696,-0.13452148,-0.91607666,0.33795166,0.265625,2.03125,-0.671875
697,-0.16455078,-0.92681885,0.3250122,-0.375,0.65625,1.203125
698,-0.14208984,-0.9077759,0.32354736,1.40625,0.53125,1.390625
699,-0.1303711,-0.9187622,0.31817627,1.4375,-1.796875,3.4375
700,-0.15063477,-0.9314575,0.3352661,2.84375,-1.046875,2.984375
701,-0.16210938,-0.9290161,0.32843018,3.46875,-0.5625,2.078125
702,-0.13647461,-0.9036255,0.3255005,2.84375,-0.4375,1.75
703,-0.14868164,-0.9429321,0.3303833,1.328125,-1.328125,0.46875
704,-0.1352539,-0.94488525,0.3328247,-1.0,-0.53125,-0.953125
705,-0.15429688,-0.9192505,0.3352661,-0.53125,-1.421875,-0.875
706,-0.14428711,-0.94659424,0.3399048,-0.640625,0.625,-1.03125
707,-0.14160156,-0.9092407,0.33868408,-0.71875,-0.375,-1.46875
708,-0.1430664,-0.9102173,0.33502197,-0.859375,-0.3125,-0.828125
709,-0.14331055,-0.94659424,0.34625244,-1.515625,0.0625,-0.53125
710,-0.12670898,-0.9002075,0.32354736,0.546875,0.84375,0.65625
711,-0.13720703,-0.9221802,0.33233643,0.671875,0.59375,2.765625
712,-0.13842773,-0.93585205,0.34283447,0.15625,0.515625,0.921875
713,-0.13867188,-0.9224243,0.32086182,2.703125,-0.640625,1.484375
714,-0.13549805,-0.9163208,0.32574463,1.71875,0.40625,0.484375
715,-0.11352539,-0.93634033,0.33868408,3.171875,1.46875,-0.09375
716,-0.13549805,-0.93096924,0.32452393,1.859375,-1.5625,1.078125
717,-0.140625,-0.92266846,0.31939697,2.4375,-0.359375,0.515625
718,-0.12695312,-0.9212036,0.31866455,3.125,-0.03125,1.0625
719,-0.12231445,-0.9451294,0.32354736,0.171875,-2.453125,1.09375
720,-0.12158203,-0.94244385,0.3242798,0.40625,-1.421875,0.703125
721,-0.1340332,-0.927063,0.3135376,0.171875,-1.34375,1.1875
722,-0.14501953,-0.91973877,0.3196411,1.3125,-0.828125,0.40625
723,-0.12670898,-0.923645,0.31378174,-0.203125,-2.453125,-1.0625
724,-0.14916992,-0.94000244,0.32086182,-0.28125,-2.0,-0.203125
725,-0.13208008,-0.9182739,0.31695557,0.171875,-2.078125,-1.0
726,-0.12817383,-0.94244385,0.3135376,-2.1875,-2.390625,-0.46875
727,-0.14355469,-0.9326782,0.3279419,0.828125,-0.84375,0.03125
728,-0.14819336,-0.93341064,0.31915283,-1.890625,-1.65625,-0.53125
729,-0.12890625,-0.93585205,0.3225708,-0.71875,-2.28125,-0.0625
730,-0.13671875,-0.9204712,0.33843994,0.609375,-0.765625,-0.296875
731,-0.15600586,-0.9390259,0.3184204,-1.421875,-0.96875,0.546875
732,-0.14355469,-0.93292236,0.32720947,0.953125,-1.875,-1.078125
733,-0.14550781,-0.93170166,0.32476807,-0.1875,-0.84375,-0.5625
734,-0.14916992,-0.91900635,0.32940674,0.75,-0.34375,-0.5625
735,-0.1586914,-0.9216919,0.3352661,-0.25,-0.890625,0.0625
736,-0.13476562,-0.9290161,0.3196411,-2.265625,-0.390625,-0.96875
737,-0.140625,-0.9273071,0.3369751,0.84375,-0.46875,-0.125
738,-0.15722656,-0.9212036,0.32891846,0.796875,0.21875,1.03125
739,-0.16210938,-0.9077759,0.33233643,0.359375,-0.171875,-0.109375
740,-0.13208008,-0.9360962,0.32476807,-0.5625,0.6875,-0.9375
741,-0.14208984,-0.9241333,0.33111572,0.84375,0.0,0.21875
742,-0.15625,-0.92803955,0.32891846,0.234375,0.625,-0.359375
743,-0.15161133,-0.9194946,0.3274536,1.453125,0.1875,-0.671875
744,-0.14892578,-0.9290161,0.32598877,0.6875,0.53125,-0.703125
745,-0.1418457,-0.9365845,0.33306885,1.171875,-0.8125,-1.046875
746,-0.13598633,-0.925354,0.3345337,0.84375,-0.34375,-0.296875
747,-0.14404297,-0.91656494,0.32452393,0.546875,-1.125,0.140625
748,-0.15625,-0.9343872,0.33355713,0.890625,-1.078125,0.25
749,-0.15991211,-0.9295044,0.331604,1.078125,-0.46875,1.09375
750,-0.13769531,-0.9224243,0.3291626,2.59375,-1.765625,-1.1875
751,-0.15649414,-0.94537354,0.32354736,0.15625,-1.5625,1.75
752,-0.15649414,-0.91534424,0.32281494,0.0625,-1.59375,0.828125
753,-0.14990234,-0.9319458,0.32110596,0.375,-0.203125,0.109375
754,-0.15771484,-0.93536377,0.34210205,3.40625,-0.515625,1.953125
755,-0.14794922,-0.9248657,0.32305908,0.640625,-0.171875,0.21875
756,-0.14672852,-0.92193604,0.30352783,0.125,-2.015625,1.546875
757,-0.15600586,-0.92071533,0.3196411,0.28125,-0.71875,1.09375
758,-0.14697266,-0.9458618,0.32525635,-0.71875,0.09375,0.953125
759,-0.13208008,-0.9258423,0.3250122,1.96875,-0.3125,1.453125
