sample_no,accel_x,accel_y,accel_z,gyro_x,gyro_y,gyro_z
0,-0.72509766,-0.0881958,-0.6812134,-0.671875,-0.390625,0.875
1,-0.7216797,-0.09429932,-0.68341064,-0.890625,-0.796875,0.25
2,-0.72509766,-0.0960083,-0.6812134,-0.359375,-0.609375,0.21875
3,-0.7175293,-0.0869751,-0.6836548,-0.25,-0.546875,0.296875
4,-0.7282715,-0.08770752,-0.68536377,-0.40625,-0.703125,0.34375
5,-0.7175293,-0.08648682,-0.6851196,0.109375,-0.125,0.03125
6,-0.72875977,-0.089904785,-0.67755127,-0.25,0.375,0.125
7,-0.7236328,-0.08648682,-0.675354,0.234375,-0.078125,0.09375
8,-0.72387695,-0.0869751,-0.6814575,-0.578125,-0.265625,0.015625
9,-0.7260742,-0.08331299,-0.67926025,-0.3125,-0.546875,0.203125
10,-0.72094727,-0.0869751,-0.6790161,-0.515625,-0.515625,0.171875
11,-0.7260742,-0.0791626,-0.6843872,-0.296875,0.125,0.53125
12,-0.72998047,-0.0947876,-0.6795044,-0.1875,-0.46875,0.328125
13,-0.72436523,-0.082092285,-0.6819458,-0.546875,-0.171875,-0.03125
14,-0.734375,-0.085754395,-0.67755127,-0.5625,-0.1875,0.140625
15,-0.73168945,-0.08135986,-0.68170166,-0.28125,-0.609375,0.40625
16,-0.73413086,-0.097473145,-0.6760864,-0.671875,-0.609375,0.21875
17,-0.7258301,-0.08380127,-0.67022705,-0.6875,-0.625,-0.140625
18,-0.72680664,-0.08404541,-0.6843872,-0.59375,-0.578125,-0.078125
19,-0.72753906,-0.08648682,-0.67633057,-0.765625,0.015625,-0.0625
20,-0.73168945,-0.08502197,-0.6824341,-0.15625,-0.03125,0.046875
21,-0.7270508,-0.08770752,-0.67266846,-0.390625,-0.59375,0.25
22,-0.7297363,-0.08721924,-0.67681885,0.34375,0.140625,0.828125
23,-0.7285156,-0.08868408,-0.6682739,-0.421875,-0.78125,0.234375
24,-0.7290039,-0.08477783,-0.6724243,-0.46875,-0.828125,0.078125
25,-0.73095703,-0.08648682,-0.6709595,0.015625,-0.625,0.328125
26,-0.73046875,-0.089904785,-0.67755127,-0.390625,-1.203125,-0.265625
27,-0.7297363,-0.08380127,-0.67633057,-0.296875,-1.046875,-0.0625
28,-0.72998047,-0.086242676,-0.67437744,-0.859375,-1.03125,0.171875
29,-0.73339844,-0.07598877,-0.67510986,-1.09375,-0.59375,0.078125
30,-0.73046875,-0.07550049,-0.6734009,-0.84375,0.25,0.484375
31,-0.73535156,-0.081848145,-0.6765747,-0.109375,1.046875,1.140625
32,-0.73535156,-0.09429932,-0.66729736,1.078125,0.78125,0.96875
33,-0.73999023,-0.089660645,-0.67437744,0.03125,1.453125,1.03125
34,-0.7297363,-0.07525635,-0.6724243,0.328125,-0.03125,0.46875
35,-0.7375488,-0.08135986,-0.6741333,-0.3125,-0.21875,0.21875
36,-0.73950195,-0.093566895,-0.6655884,-0.3125,-0.359375,0.0
37,-0.7368164,-0.08380127,-0.6716919,-0.625,-0.71875,-0.28125
38,-0.74609375,-0.08331299,-0.673645,-0.9375,-0.8125,0.0625
39,-0.73583984,-0.08721924,-0.66290283,-1.609375,-1.078125,-0.3125
40,-0.73535156,-0.07940674,-0.67388916,-1.40625,-0.421875,-0.390625
41,-0.74243164,-0.08062744,-0.66607666,-0.71875,-0.359375,0.359375
42,-0.7397461,-0.08258057,-0.6626587,-0.703125,-0.8125,0.4375
43,-0.7409668,-0.101379395,-0.663147,-0.796875,-1.375,-0.171875
44,-0.73779297,-0.09136963,-0.6682739,-1.5625,-1.234375,-0.578125
45,-0.74072266,-0.08404541,-0.66070557,-3.28125,-1.640625,-1.484375
46,-0.74902344,-0.093322754,-0.6470337,-6.703125,-1.5,-3.984375
47,-0.75219727,-0.10333252,-0.6838989,-9.984375,-6.9375,-6.53125
48,-0.7182617,-0.09552002,-0.6873169,-0.109375,-2.734375,-6.5
49,-0.7236328,-0.05987549,-0.673645,-1.546875,-2.0,-2.890625
50,-0.74365234,-0.08306885,-0.6799927,2.0625,-1.796875,-0.59375
51,-0.7043457,-0.07696533,-0.6914673,1.4375,-1.4375,1.125
52,-0.7338867,-0.07476807,-0.68927,1.28125,-0.5,2.0625
53,-0.72094727,-0.090148926,-0.6643677,1.421875,-0.71875,2.40625
54,-0.7246094,-0.08673096,-0.67266846,1.21875,-0.671875,1.40625
55,-0.74072266,-0.06573486,-0.6873169,0.640625,-0.828125,-0.15625
56,-0.7285156,-0.0791626,-0.675354,0.0,-0.203125,-1.046875
57,-0.72436523,-0.081604004,-0.6585083,-1.265625,0.5,0.453125
58,-0.73217773,-0.08648682,-0.6658325,-2.0,0.4375,0.3125
59,-0.7429199,-0.06719971,-0.6760864,-1.859375,-0.21875,-0.015625
60,-0.7294922,-0.07891846,-0.67803955,-0.53125,-0.65625,0.6875
61,-0.73339844,-0.08404541,-0.6651001,0.203125,-0.90625,1.046875
62,-0.73046875,-0.08673096,-0.6799927,-0.28125,-1.734375,0.5625
63,-0.72558594,-0.089660645,-0.67315674,0.375,-0.640625,0.671875
64,-0.7246094,-0.08111572,-0.67852783,-0.453125,-0.5625,0.0625
65,-0.73828125,-0.08892822,-0.6709595,-0.25,-0.859375,0.234375
66,-0.7331543,-0.07525635,-0.6765747,-0.984375,-0.953125,0.0
67,-0.73046875,-0.085998535,-0.67559814,-0.90625,0.828125,0.609375
68,-0.7363281,-0.0803833,-0.66412354,-0.8125,0.25,0.46875
69,-0.74121094,-0.08087158,-0.6773071,-0.6875,0.765625,0.6875
70,-0.7392578,-0.08868408,-0.6741333,-0.484375,0.53125,0.21875
71,-0.73583984,-0.08331299,-0.6682739,-0.09375,-0.015625,0.046875
72,-0.7348633,-0.081604004,-0.67315674,0.03125,-0.890625,0.015625
73,-0.7404785,-0.0803833,-0.66729736,-0.546875,-1.171875,-0.140625
74,-0.74194336,-0.0791626,-0.65460205,-0.625,-0.875,0.34375
75,-0.7314453,-0.0881958,-0.66729736,-0.640625,-0.265625,0.625
76,-0.74560547,-0.09234619,-0.67559814,0.1875,0.375,1.015625
77,-0.7441406,-0.078186035,-0.6543579,0.9375,0.8125,0.78125
78,-0.74487305,-0.07891846,-0.67193604,2.171875,2.28125,1.6875
79,-0.74487305,-0.08111572,-0.659729,1.078125,3.328125,1.5
80,-0.7495117,-0.0881958,-0.6609497,1.4375,1.9375,0.78125
81,-0.7470703,-0.07720947,-0.6548462,0.296875,1.59375,0.125
82,-0.7507324,-0.08331299,-0.6519165,-0.46875,1.421875,0.421875
83,-0.75634766,-0.07696533,-0.6482544,-1.375,-0.234375,-0.0625
84,-0.7524414,-0.08404541,-0.6524048,-1.140625,-1.390625,-0.46875
85,-0.7573242,-0.07354736,-0.64923096,-1.125,-0.953125,-0.328125
86,-0.7607422,-0.09552002,-0.647522,-1.3125,-0.4375,0.046875
87,-0.7565918,-0.07232666,-0.6487427,0.421875,-1.59375,-0.671875
88,-0.75634766,-0.06011963,-0.64312744,1.046875,-0.234375,-0.28125
89,-0.75341797,-0.08502197,-0.65582275,-0.296875,-0.5,0.515625
90,-0.75268555,-0.073791504,-0.6543579,-0.828125,-2.171875,0.671875
91,-0.75805664,-0.07672119,-0.6465454,-1.109375,-1.796875,1.203125
92,-0.75024414,-0.08526611,-0.65216064,-0.640625,-2.4375,0.828125
93,-0.74780273,-0.09039307,-0.6524048,-1.46875,-1.953125,0.703125
94,-0.74975586,-0.07696533,-0.6548462,-1.21875,-0.953125,0.1875
95,-0.74853516,-0.07598877,-0.6572876,-0.21875,0.84375,1.234375
96,-0.7583008,-0.082336426,-0.65509033,0.03125,0.46875,0.859375
97,-0.75219727,-0.093566895,-0.64727783,0.03125,-0.515625,0.453125
98,-0.7451172,-0.0881958,-0.64508057,-1.171875,-0.5,-0.140625
99,-0.748291,-0.08135986,-0.6428833,-1.546875,-1.5,0.140625
100,-0.74365234,-0.08135986,-0.65460205,-2.703125,-3.34375,-0.09375
101,-0.75341797,-0.08770752,-0.6489868,-1.59375,-5.078125,-1.640625
102,-0.7548828,-0.09527588,-0.6824341,-0.25,-3.078125,-0.921875
103,-0.74780273,-0.09869385,-0.661438,-0.53125,-1.6875,-0.625
104,-0.7441406,-0.081604004,-0.6716919,-0.4375,-0.40625,-0.09375
105,-0.7458496,-0.06964111,-0.678772,1.21875,-0.328125,0.5625
106,-0.7434082,-0.08331299,-0.6699829,-0.96875,1.375,0.421875
107,-0.74731445,-0.0881958,-0.64068604,0.328125,1.578125,0.125
108,-0.7536621,-0.0725708,-0.6380005,0.03125,0.875,0.875
109,-0.7468262,-0.08795166,-0.6526489,-0.078125,-1.09375,0.453125
110,-0.7446289,-0.07891846,-0.66241455,0.828125,-1.515625,0.375
111,-0.74121094,-0.07476807,-0.6577759,0.34375,-0.328125,1.03125
112,-0.751709,-0.09136963,-0.6548462,0.125,-1.65625,1.4375
113,-0.75268555,-0.08111572,-0.6602173,-0.609375,-2.15625,0.109375
114,-0.7553711,-0.09039307,-0.65460205,-1.1875,-2.0,-0.109375
115,-0.74853516,-0.07940674,-0.6638794,-0.96875,-3.1875,-0.875
116,-0.7409668,-0.08746338,-0.6704712,-0.546875,-2.0625,-0.59375
117,-0.7380371,-0.08526611,-0.6724243,0.765625,-1.78125,0.25
118,-0.7426758,-0.07281494,-0.6748657,1.984375,-2.125,0.515625
119,-0.7355957,-0.08355713,-0.6663208,1.296875,-0.421875,0.578125
120,-0.73291016,-0.07550049,-0.65826416,0.9375,-1.578125,-0.390625
121,-0.73779297,-0.06451416,-0.6506958,-0.59375,-0.71875,1.25
122,-0.7495117,-0.074035645,-0.6651001,-0.5,-0.921875,1.640625
123,-0.7416992,-0.062072754,-0.67388916,-0.109375,0.203125,2.015625
124,-0.74121094,-0.097717285,-0.6604614,-0.625,-0.25,2.171875
125,-0.7446289,-0.08746338,-0.66485596,0.0,-1.765625,0.578125
126,-0.74853516,-0.074279785,-0.6721802,-0.046875,-0.71875,0.15625
127,-0.7409668,-0.08526611,-0.66607666,0.421875,-1.28125,-0.25
128,-0.7375488,-0.08258057,-0.6553345,-0.21875,-0.953125,-0.90625
129,-0.734375,-0.07354736,-0.67633057,-0.171875,-1.53125,-0.40625
130,-0.7429199,-0.078186035,-0.68096924,-0.75,0.828125,0.28125
131,-0.72802734,-0.07476807,-0.66119385,-0.3125,-0.828125,0.078125
132,-0.73706055,-0.07574463,-0.6680298,-0.34375,-1.609375,0.15625
133,-0.73535156,-0.07720947,-0.6602173,-2.9375,-0.390625,1.34375
134,-0.7495117,-0.082336426,-0.65167236,-2.078125,0.078125,1.390625
135,-0.74975586,-0.08917236,-0.6709595,1.0625,-0.640625,0.734375
136,-0.74365234,-0.08648682,-0.65289307,-0.234375,-0.03125,0.15625
137,-0.7446289,-0.077941895,-0.6602173,-0.6875,-0.421875,-0.578125
138,-0.74658203,-0.09136963,-0.6592407,-1.28125,-1.625,-0.765625
139,-0.74438477,-0.07940674,-0.66656494,-2.109375,-1.171875,-1.375
140,-0.74072266,-0.0791626,-0.65704346,-2.625,-1.734375,-1.75
141,-0.7297363,-0.08843994,-0.6824341,-0.9375,-0.34375,-0.125
142,-0.7492676,-0.078186035,-0.68878174,-0.875,0.28125,-0.4375
143,-0.74731445,-0.085998535,-0.67144775,-2.4375,1.0625,-0.1875
144,-0.73657227,-0.08746338,-0.6585083,-4.359375,3.25,0.328125
145,-0.7468262,-0.08795166,-0.6758423,-3.203125,2.359375,0.625
146,-0.74975586,-0.07623291,-0.65631104,-2.640625,0.265625,-3.09375
147,-0.75439453,-0.089660645,-0.6350708,-0.984375,3.84375,0.4375
148,-0.7709961,-0.094055176,-0.62506104,0.875,1.75,-1.046875
149,-0.76342773,-0.08526611,-0.64556885,0.109375,-0.0625,-2.125
150,-0.7583008,-0.07672119,-0.63165283,-0.328125,0.78125,-0.859375
151,-0.77075195,-0.07989502,-0.62750244,-0.421875,-0.484375,0.28125
152,-0.7614746,-0.08453369,-0.645813,0.0,-2.28125,0.359375
153,-0.7519531,-0.07598877,-0.6367798,-0.625,-2.75,0.5
154,-0.7573242,-0.07647705,-0.6380005,-0.796875,-3.890625,1.015625
155,-0.7463379,-0.08843994,-0.63409424,-4.8125,-5.78125,-0.40625
156,-0.78149414,-0.10870361,-0.66729736,-3.46875,-4.15625,-2.6875
157,-0.73706055,-0.10430908,-0.66485596,-3.28125,-3.5625,-1.671875
158,-0.73828125,-0.07696533,-0.6692505,-3.109375,-4.3125,-2.03125
159,-0.75097656,-0.07720947,-0.67926025,0.0,-2.953125,-1.6875
160,-0.7260742,-0.07525635,-0.67633057,1.328125,-3.578125,-0.84375
161,-0.7338867,-0.08135986,-0.6826782,1.734375,-2.75,0.453125
162,-0.73706055,-0.07647705,-0.6687622,0.578125,-0.734375,2.1875
163,-0.7453613,-0.08502197,-0.66900635,0.40625,-0.65625,2.65625
164,-0.7385254,-0.08917236,-0.6729126,-0.21875,-0.828125,2.53125
165,-0.7375488,-0.09112549,-0.6777954,-0.234375,-1.0625,2.109375
166,-0.7348633,-0.09063721,-0.6709595,-0.28125,-1.09375,0.78125
167,-0.7390137,-0.0881958,-0.66851807,-0.015625,-1.65625,-0.40625
168,-0.73095703,-0.090148926,-0.659729,-0.125,-0.46875,-0.90625
169,-0.73828125,-0.078186035,-0.6694946,-0.40625,-0.5625,-0.546875
170,-0.7307129,-0.0869751,-0.6699829,-0.5625,-0.8125,-0.515625
171,-0.73339844,-0.08380127,-0.6692505,-0.234375,-1.078125,-0.90625
172,-0.74487305,-0.07086182,-0.67022705,-0.5625,-0.296875,-0.71875
173,-0.7307129,-0.07550049,-0.6675415,-0.21875,-1.328125,-0.578125
174,-0.74487305,-0.07647705,-0.6687622,0.078125,-0.453125,-0.015625
175,-0.7409668,-0.078430176,-0.66851807,-0.4375,-0.203125,0.40625
176,-0.73413086,-0.07965088,-0.6670532,0.09375,-0.390625,0.359375
177,-0.7441406,-0.078186035,-0.67510986,-0.171875,-0.0625,0.796875
178,-0.73413086,-0.082092285,-0.6655884,-0.34375,0.171875,0.765625
179,-0.7312012,-0.08526611,-0.6716919,-1.796875,0.53125,1.125
180,-0.74609375,-0.082336426,-0.6704712,-0.953125,0.59375,0.84375
181,-0.74438477,-0.085510254,-0.66729736,-0.171875,0.75,0.375
182,-0.74194336,-0.08453369,-0.6585083,0.0,0.234375,-0.25
183,-0.74316406,-0.08721924,-0.6604614,-0.234375,-0.15625,0.1875
184,-0.7480469,-0.090148926,-0.66729736,-0.84375,-0.78125,-0.15625
185,-0.74121094,-0.077941895,-0.6687622,-0.234375,-0.171875,-0.625
186,-0.74731445,-0.08282471,-0.645813,-0.5,-0.71875,0.25
187,-0.7414551,-0.07623291,-0.6675415,-1.734375,-1.109375,-0.078125
188,-0.7426758,-0.08258057,-0.6536255,-1.890625,0.9375,0.46875
189,-0.7458496,-0.08843994,-0.65802,-1.046875,0.40625,-0.109375
190,-0.75146484,-0.08892822,-0.6616821,-1.25,0.890625,-0.1875
191,-0.7409668,-0.085510254,-0.6592407,-0.75,1.484375,-0.359375
192,-0.7536621,-0.08648682,-0.6655884,0.171875,0.703125,-0.375
193,-0.76416016,-0.07305908,-0.647522,0.625,0.078125,-0.375
194,-0.7585449,-0.08380127,-0.6494751,0.21875,-0.34375,0.171875
195,-0.7636719,-0.08355713,-0.64312744,-0.9375,-0.015625,0.46875
196,-0.75268555,-0.07598877,-0.64801025,-0.78125,-0.625,0.515625
197,-0.75683594,-0.082092285,-0.66119385,-0.8125,-1.0625,0.265625
198,-0.7434082,-0.07940674,-0.65948486,-0.40625,-0.21875,0.59375
199,-0.7558594,-0.08453369,-0.6543579,-0.484375,-0.03125,0.734375
200,-0.7531738,-0.0881958,-0.64849854,-0.046875,-0.015625,0.75
201,-0.7541504,-0.078430176,-0.6555786,0.125,0.03125,0.8125
202,-0.7368164,-0.062561035,-0.6524048,1.734375,0.25,2.171875
203,-0.76782227,-0.12506104,-0.6296997,1.140625,-0.5,0.453125
204,-0.74902344,-0.10845947,-0.6428833,-1.53125,-1.9375,-1.953125
205,-0.75268555,-0.06060791,-0.6477661,-1.921875,-3.09375,-2.6875
206,-0.75341797,-0.06011963,-0.6604614,-1.171875,-0.15625,-0.140625
207,-0.751709,-0.07696533,-0.65411377,-0.171875,-0.734375,0.703125
208,-0.75,-0.09283447,-0.6499634,-0.28125,-2.5,-0.5
209,-0.7519531,-0.077941895,-0.6553345,-0.984375,-3.546875,-0.75
210,-0.74438477,-0.074523926,-0.66119385,-1.8125,-3.46875,-0.28125
211,-0.7480469,-0.07110596,-0.65997314,-1.0,-1.625,0.6875
212,-0.7453613,-0.09283447,-0.6572876,-0.25,-1.65625,0.203125
213,-0.748291,-0.07965088,-0.6663208,-0.171875,-2.0,-0.125
214,-0.75561523,-0.082092285,-0.6668091,-0.328125,-1.25,0.359375
215,-0.74243164,-0.070617676,-0.66412354,-0.796875,-0.875,-0.078125
216,-0.74560547,-0.086242676,-0.66070557,-1.34375,0.203125,1.21875
217,-0.7458496,-0.08526611,-0.659729,-0.703125,-1.21875,-0.109375
218,-0.74194336,-0.08282471,-0.6567993,-1.4375,-0.453125,-0.140625
219,-0.7524414,-0.07574463,-0.6633911,-0.515625,-0.59375,0.21875
220,-0.74243164,-0.081604004,-0.66070557,-0.28125,-1.203125,-0.046875
221,-0.7414551,-0.09161377,-0.6567993,-0.296875,-1.015625,-0.25
222,-0.74731445,-0.08380127,-0.6506958,-1.640625,-1.171875,-0.046875
223,-0.7536621,-0.07672119,-0.6692505,-1.828125,-2.46875,-1.53125
224,-0.76538086,-0.07672119,-0.65704346,0.234375,0.203125,-1.53125
225,-0.73950195,-0.07476807,-0.6799927,3.71875,3.53125,-0.765625
226,-0.76342773,-0.04449463,-0.68218994,5.5625,13.78125,5.796875
227,-0.75805664,-0.08306885,-0.6189575,4.890625,8.90625,5.59375
228,-0.75146484,-0.086242676,-0.6199341,1.546875,1.4375,1.125
229,-0.7788086,-0.08331299,-0.62164307,-0.140625,0.640625,3.546875
230,-0.78637695,-0.06842041,-0.63531494,1.15625,2.515625,3.46875
231,-0.7741699,-0.08648682,-0.6370239,2.5625,3.875,2.390625
232,-0.78271484,-0.09063721,-0.62945557,-1.21875,3.859375,1.0
233,-0.77001953,-0.074279785,-0.6074829,3.109375,0.015625,1.1875
234,-0.7902832,-0.10308838,-0.62945557,-0.796875,0.203125,1.125
235,-0.7883301,-0.08526611,-0.61016846,-0.5,-1.421875,0.359375
236,-0.779541,-0.07476807,-0.6201782,-0.484375,-0.6875,-0.1875
237,-0.7832031,-0.07672119,-0.6174927,-1.296875,-0.875,0.421875
238,-0.7841797,-0.081848145,-0.61553955,-2.015625,-1.421875,-0.546875
239,-0.7890625,-0.07183838,-0.62286377,-2.0625,-2.984375,-1.375
240,-0.7871094,-0.078430176,-0.6218872,-1.828125,-2.359375,-1.375
241,-0.7758789,-0.07159424,-0.61724854,-0.421875,-2.53125,-0.359375
242,-0.77563477,-0.07232666,-0.6226196,-1.0,-1.828125,0.578125
243,-0.7697754,-0.08526611,-0.6157837,-1.625,-1.953125,1.125
244,-0.7805176,-0.08282471,-0.63848877,-1.40625,-3.3125,1.046875
245,-0.7741699,-0.09234619,-0.61676025,-1.1875,-2.890625,1.171875
246,-0.77612305,-0.08648682,-0.63946533,-1.234375,-3.0,0.34375
247,-0.75878906,-0.08770752,-0.644104,0.203125,-2.578125,-0.453125
248,-0.7636719,-0.09674072,-0.6651001,-0.109375,-2.71875,-0.90625
249,-0.7661133,-0.082336426,-0.63775635,-0.703125,0.078125,0.046875
250,-0.76708984,-0.097717285,-0.6380005,-0.1875,-1.125,-0.453125
251,-0.7727051,-0.07720947,-0.64508057,-0.546875,-1.421875,-1.25
252,-0.76538086,-0.06036377,-0.62701416,-0.546875,-0.875,-0.65625
253,-0.7626953,-0.07183838,-0.63409424,-0.390625,-1.046875,-0.5
254,-0.7668457,-0.074035645,-0.63238525,-1.609375,-1.09375,-0.234375
255,-0.75268555,-0.07305908,-0.6255493,-4.421875,-1.71875,0.03125
256,-0.78100586,-0.08721924,-0.65411377,-5.765625,-3.625,-0.015625
257,-0.765625,-0.09967041,-0.63287354,-2.9375,-1.765625,1.203125
258,-0.75439453,-0.09698486,-0.63946533,-2.3125,-2.40625,-0.109375
259,-0.7626953,-0.09967041,-0.63775635,-3.921875,-3.640625,-0.1875
260,-0.7595215,-0.10284424,-0.644104,-4.46875,-6.09375,-1.03125
261,-0.7470703,-0.1026001,-0.64434814,-5.25,-7.1875,-4.046875
262,-0.7624512,-0.11627197,-0.6663208,-4.453125,-7.328125,-4.625
263,-0.74609375,-0.08404541,-0.6548462,-2.875,-8.984375,-6.796875
264,-0.7336426,-0.08868408,-0.67852783,-1.203125,-7.46875,-5.34375
265,-0.73657227,-0.08282471,-0.68096924,-0.359375,-4.8125,-2.546875
266,-0.73461914,-0.07940674,-0.6824341,2.28125,-3.0,-0.921875
267,-0.7097168,-0.062316895,-0.6890259,1.265625,-0.1875,-1.046875
268,-0.71484375,-0.07525635,-0.6860962,1.140625,0.140625,1.5625
269,-0.7282715,-0.08111572,-0.6651001,0.5625,0.609375,3.171875
270,-0.7258301,-0.078430176,-0.6621704,-0.734375,-0.703125,2.1875
271,-0.7319336,-0.07501221,-0.6824341,-0.421875,-0.5,1.5
272,-0.72802734,-0.077697754,-0.6851196,-0.09375,-1.0625,0.984375
273,-0.72314453,-0.08795166,-0.67926025,-0.1875,-2.1875,1.109375
274,-0.7348633,-0.08380127,-0.6848755,-0.328125,-1.640625,1.078125
275,-0.72875977,-0.081848145,-0.68170166,0.65625,-0.203125,0.6875
276,-0.7297363,-0.08746338,-0.6824341,1.109375,-0.390625,0.140625
277,-0.7385254,-0.08355713,-0.68829346,2.421875,-1.265625,-0.453125
278,-0.7253418,-0.090148926,-0.6819458,2.046875,0.0625,-0.40625
279,-0.734375,-0.08087158,-0.6729126,0.84375,0.5,-0.765625
280,-0.73217773,-0.07696533,-0.6856079,0.96875,1.46875,-0.3125
281,-0.72802734,-0.07574463,-0.67852783,-2.78125,2.921875,-1.71875
282,-0.7258301,-0.09307861,-0.6814575,-1.890625,2.703125,-1.609375
283,-0.734375,-0.046936035,-0.6616821,-3.71875,1.21875,-3.5625
284,-0.73999023,-0.070373535,-0.67144775,-3.78125,0.078125,-3.140625
285,-0.7651367,-0.061828613,-0.6616821,-0.875,1.6875,-2.65625
286,-0.7446289,-0.070617676,-0.65631104,0.25,1.421875,-0.328125
287,-0.7390137,-0.05230713,-0.64678955,0.21875,-0.140625,0.53125
288,-0.74487305,-0.081604004,-0.65997314,-1.265625,1.0625,2.21875
289,-0.7512207,-0.06744385,-0.6553345,1.265625,-0.140625,1.296875
290,-0.7602539,-0.06524658,-0.6704712,1.875,1.390625,0.5
291,-0.7453613,-0.053771973,-0.6633911,1.078125,2.46875,0.0625
292,-0.73657227,-0.06378174,-0.6560669,0.390625,0.84375,0.65625
293,-0.75756836,-0.07672119,-0.65216064,-1.78125,0.75,1.796875
294,-0.7597656,-0.059143066,-0.64727783,-0.25,-0.421875,0.125
295,-0.7651367,-0.06011963,-0.6482544,-0.90625,-0.890625,-0.3125
296,-0.75561523,-0.06842041,-0.65216064,0.5,-1.109375,0.1875
297,-0.7565918,-0.066223145,-0.6487427,-0.640625,-1.359375,0.484375
298,-0.75805664,-0.065979004,-0.6506958,-0.296875,-1.390625,0.34375
299,-0.75561523,-0.06329346,-0.64849854,-0.765625,-1.453125,0.078125
300,-0.7553711,-0.07989502,-0.6494751,0.015625,-1.734375,0.09375
301,-0.7636719,-0.070129395,-0.6436157,0.9375,-1.90625,0.234375
302,-0.74853516,-0.042541504,-0.65631104,0.015625,-2.296875,0.140625
303,-0.75341797,-0.05718994,-0.66070557,0.140625,-1.65625,1.1875
304,-0.7553711,-0.07720947,-0.66290283,0.03125,-0.125,2.3125
305,-0.7495117,-0.0713501,-0.6445923,-1.296875,0.1875,1.140625
306,-0.7531738,-0.06866455,-0.6543579,-1.4375,0.140625,1.671875
307,-0.74365234,-0.081604004,-0.65997314,-2.078125,0.609375,1.875
308,-0.7680664,-0.09649658,-0.65460205,-1.03125,0.953125,0.875
309,-0.75219727,-0.08258057,-0.6572876,-1.734375,-0.234375,-0.984375
310,-0.7609863,-0.05645752,-0.64508057,-1.1875,-1.171875,-1.640625
311,-0.75512695,-0.06915283,-0.6531372,-0.671875,-0.265625,-1.1875
312,-0.75756836,-0.070373535,-0.65460205,0.390625,0.03125,-0.96875
313,-0.7573242,-0.07159424,-0.6470337,0.46875,0.65625,0.0625
314,-0.75,-0.074035645,-0.64630127,0.390625,0.1875,-0.609375
315,-0.7609863,-0.06890869,-0.6428833,-0.578125,1.0625,1.0
316,-0.76586914,-0.0791626,-0.63775635,0.046875,1.484375,0.921875
317,-0.76416016,-0.070617676,-0.6326294,0.71875,0.390625,1.25
318,-0.76586914,-0.074035645,-0.64263916,0.84375,0.578125,1.0625
319,-0.7705078,-0.07281494,-0.64068604,0.0625,1.375,1.3125
320,-0.76586914,-0.08135986,-0.63946533,0.28125,-0.265625,0.625
321,-0.76220703,-0.08282471,-0.6392212,-0.109375,-0.828125,-0.0625
322,-0.7714844,-0.086242676,-0.628479,-2.265625,-0.296875,-0.765625
323,-0.7602539,-0.06719971,-0.6506958,-3.515625,-0.609375,-2.96875
324,-0.7824707,-0.05255127,-0.62701416,-2.75,-0.09375,-2.03125
325,-0.77075195,-0.06768799,-0.6206665,-1.765625,-2.34375,-2.046875
326,-0.76660156,-0.070373535,-0.6199341,-5.46875,-4.359375,-3.125
327,-0.75878906,-0.08892822,-0.6355591,-10.375,-8.765625,-3.765625
328,-0.7626953,-0.09210205,-0.661438,-5.828125,-6.8125,-2.203125
329,-0.7475586,-0.0803833,-0.65802,-5.71875,-4.765625,-1.0625
330,-0.73339844,-0.06109619,-0.6524048,-5.078125,-5.46875,-0.265625
331,-0.7702637,-0.08355713,-0.65948486,-1.796875,0.3125,1.265625
332,-0.74487305,-0.062316895,-0.69415283,4.171875,0.40625,2.09375
333,-0.7297363,-0.07110596,-0.66412354,5.640625,0.796875,3.5625
334,-0.7375488,-0.08843994,-0.6470337,3.453125,-1.28125,3.40625
335,-0.76782227,-0.1116333,-0.6304321,1.0625,-2.796875,3.6875
336,-0.7453613,-0.0791626,-0.6626587,0.375,-4.640625,0.328125
337,-0.73876953,-0.07281494,-0.66900635,-1.0,-3.875,0.15625
338,-0.73779297,-0.0725708,-0.6716919,-2.3125,-2.359375,-0.296875
339,-0.73950195,-0.081848145,-0.6721802,-1.765625,-1.9375,-0.546875
340,-0.736084,-0.089416504,-0.69000244,-0.171875,-1.3125,0.5625
341,-0.7351074,-0.0881958,-0.6758423,-0.359375,0.515625,-0.140625
342,-0.7355957,-0.08404541,-0.65289307,0.1875,2.359375,1.25
343,-0.7375488,-0.09136963,-0.673645,-0.625,0.078125,0.484375
344,-0.74316406,-0.08917236,-0.65753174,0.921875,-0.125,0.625
345,-0.7373047,-0.07647705,-0.6655884,-0.046875,-0.953125,0.0625
346,-0.7458496,-0.07574463,-0.67266846,-0.609375,-1.328125,-0.0625
347,-0.73657227,-0.08648682,-0.6536255,-0.515625,-1.265625,-0.28125
348,-0.7441406,-0.07989502,-0.6729126,-1.21875,-1.203125,-0.875
349,-0.74194336,-0.07623291,-0.66729736,-1.140625,-1.140625,0.0
350,-0.7475586,-0.08502197,-0.6655884,-1.5625,-1.078125,-0.578125
351,-0.73950195,-0.09161377,-0.673645,-0.875,-0.53125,-0.09375
352,-0.7390137,-0.085998535,-0.6658325,-0.234375,1.03125,0.890625
353,-0.74243164,-0.08013916,-0.6699829,-0.859375,0.203125,0.75
354,-0.74243164,-0.09136963,-0.65948486,-0.3125,-1.015625,0.40625
355,-0.7355957,-0.082336426,-0.6604614,-1.203125,-0.421875,-0.296875
356,-0.74194336,-0.09039307,-0.6577759,-0.953125,-0.484375,0.390625
357,-0.74487305,-0.08453369,-0.6716919,-0.75,-0.25,0.09375
358,-0.75,-0.08477783,-0.661438,-0.734375,0.453125,0.4375
359,-0.7355957,-0.08917236,-0.66192627,-0.65625,-0.390625,-0.234375
360,-0.7536621,-0.085998535,-0.6577759,-0.171875,-0.359375,0.078125
361,-0.75,-0.0803833,-0.6592407,-0.09375,-0.703125,0.03125
362,-0.75024414,-0.08477783,-0.6604614,0.328125,0.796875,0.34375
363,-0.7487793,-0.08868408,-0.65753174,-0.375,-1.203125,0.0
364,-0.7390137,-0.07696533,-0.6560669,-1.640625,-2.625,-0.546875
365,-0.7548828,-0.0803833,-0.66070557,-1.546875,-0.96875,-0.046875
366,-0.7438965,-0.08428955,-0.6589966,-1.0,0.109375,0.390625
367,-0.74487305,-0.08282471,-0.6760864,0.703125,-1.25,0.921875
368,-0.7470703,-0.08892822,-0.6668091,2.484375,-0.4375,1.78125
369,-0.7414551,-0.07623291,-0.66534424,1.625,-1.46875,0.40625
370,-0.75512695,-0.085510254,-0.6543579,0.703125,-0.796875,0.875
371,-0.74121094,-0.06793213,-0.65753174,-0.375,-0.65625,0.5625
372,-0.74780273,-0.082336426,-0.6643677,0.015625,-0.5625,1.34375
373,-0.7429199,-0.089660645,-0.6638794,-0.984375,-0.546875,0.859375
374,-0.74658203,-0.08770752,-0.6589966,-0.859375,0.359375,0.921875
375,-0.7565918,-0.08795166,-0.6663208,-0.71875,-0.84375,0.375
376,-0.7446289,-0.086242676,-0.6543579,-0.75,-0.484375,0.359375
377,-0.7470703,-0.09527588,-0.6489868,-0.765625,-0.484375,0.015625
378,-0.74072266,-0.08013916,-0.6577759,-0.34375,-0.5,-0.28125
379,-0.7404785,-0.078430176,-0.6692505,-0.453125,0.671875,-0.25
380,-0.7507324,-0.08477783,-0.65411377,-0.25,0.0625,0.140625
381,-0.75097656,-0.07965088,-0.6626587,-0.359375,-0.265625,0.421875
382,-0.7536621,-0.09210205,-0.6531372,-0.125,0.453125,0.890625
383,-0.74072266,-0.09161377,-0.65460205,-1.421875,-1.6875,-0.515625
384,-0.748291,-0.07745361,-0.6668091,-1.09375,-1.625,-0.515625
385,-0.7595215,-0.08917236,-0.65631104,0.078125,0.375,0.09375
386,-0.7453613,-0.07965088,-0.65460205,0.34375,-0.125,0.0
387,-0.75439453,-0.089904785,-0.6567993,0.34375,-1.515625,-0.546875
388,-0.74243164,-0.08258057,-0.64849854,-0.84375,-0.734375,-0.296875
389,-0.7531738,-0.08477783,-0.6460571,-0.15625,0.109375,0.359375
390,-0.7597656,-0.08306885,-0.6514282,-0.640625,-1.0,-0.265625
391,-0.74731445,-0.08331299,-0.65875244,-0.3125,-0.5625,0.359375
392,-0.75219727,-0.08721924,-0.65167236,-0.09375,-0.828125,0.28125
393,-0.7463379,-0.07720947,-0.6526489,-0.3125,-1.5625,0.1875
394,-0.75097656,-0.077941895,-0.65704346,-0.65625,-0.828125,0.703125
395,-0.7541504,-0.08453369,-0.64727783,-0.5,-1.5625,0.59375
396,-0.74487305,-0.07940674,-0.65753174,-0.9375,-1.46875,-0.15625
397,-0.74731445,-0.0791626,-0.6633911,-1.28125,-0.28125,0.34375
398,-0.748291,-0.0869751,-0.6489868,-0.640625,-0.34375,0.6875
399,-0.75561523,-0.08355713,-0.6633911,-0.265625,-0.78125,0.5
400,-0.7487793,-0.09454346,-0.65216064,-0.625,-0.21875,0.234375
401,-0.7519531,-0.085754395,-0.6585083,-0.515625,-0.03125,0.046875
402,-0.7519531,-0.082336426,-0.6536255,-1.125,-0.046875,-0.15625
403,-0.7541504,-0.08380127,-0.65216064,-1.328125,-0.375,-0.859375
404,-0.7583008,-0.089416504,-0.65338135,-0.828125,-0.1875,-0.75
405,-0.748291,-0.082336426,-0.65411377,-1.1875,0.0625,-1.828125
406,-0.7692871,-0.082336426,-0.6470337,-1.078125,-0.21875,-1.59375
407,-0.7416992,-0.074523926,-0.65753174,0.046875,-1.109375,-1.9375
408,-0.76904297,-0.08746338,-0.6404419,-0.546875,-2.625,-0.421875
409,-0.7463379,-0.09552002,-0.64849854,-0.1875,-2.8125,-0.921875
410,-0.7507324,-0.057678223,-0.65509033,-0.34375,-1.03125,-0.71875
411,-0.7636719,-0.06402588,-0.6487427,-0.53125,0.09375,0.171875
412,-0.75927734,-0.07086182,-0.6555786,-0.921875,-1.734375,-0.359375
413,-0.76538086,-0.08746338,-0.6411743,-1.59375,0.3125,0.203125
414,-0.7446289,-0.08502197,-0.63726807,-3.28125,-2.09375,0.21875
415,-0.7495117,-0.077941895,-0.6577759,-4.1875,-3.96875,0.21875
416,-0.75024414,-0.082336426,-0.6445923,-4.765625,-5.5625,-0.015625
417,-0.7409668,-0.09503174,-0.6633911,-8.125,-4.53125,-0.53125
418,-0.7529297,-0.11138916,-0.65704346,-6.5,-3.359375,-1.15625
419,-0.73657227,-0.09503174,-0.675354,-0.125,-4.625,-1.546875
420,-0.7397461,-0.09625244,-0.68463135,0.21875,-3.34375,-0.609375
421,-0.72998047,-0.09283447,-0.6836548,1.859375,-1.296875,-0.234375
422,-0.73876953,-0.09869385,-0.6802368,2.015625,-0.875,-1.0
423,-0.7192383,-0.07476807,-0.6687622,2.28125,-1.328125,-0.765625
424,-0.73583984,-0.07110596,-0.6746216,1.25,-1.234375,0.265625
425,-0.75,-0.082336426,-0.6709595,0.828125,-1.65625,0.5625
426,-0.7270508,-0.085998535,-0.6734009,0.65625,-1.625,-0.046875
427,-0.7265625,-0.07720947,-0.6712036,-0.59375,-1.25,0.796875
428,-0.7397461,-0.07598877,-0.6795044,-1.75,0.453125,1.515625
429,-0.7414551,-0.097961426,-0.661438,-0.65625,-0.09375,1.34375
430,-0.7282715,-0.08111572,-0.67266846,0.078125,0.171875,0.25
431,-0.7355957,-0.08746338,-0.6729126,0.3125,-0.796875,0.53125
432,-0.7248535,-0.074035645,-0.68292236,-0.671875,-0.859375,0.359375
433,-0.73706055,-0.081604004,-0.66900635,-0.625,-0.1875,1.515625
434,-0.73535156,-0.085754395,-0.6741333,-0.84375,-0.53125,1.1875
435,-0.7392578,-0.10235596,-0.6802368,-0.453125,-1.0,1.453125
436,-0.7331543,-0.09454346,-0.6716919,-1.859375,1.078125,1.125
437,-0.7324219,-0.0960083,-0.68218994,-0.453125,0.53125,0.65625
438,-0.72802734,-0.09552002,-0.67315674,0.796875,1.90625,1.265625
439,-0.74365234,-0.08917236,-0.66119385,0.546875,0.984375,0.546875
440,-0.7441406,-0.10040283,-0.6668091,0.46875,1.46875,0.390625
441,-0.7429199,-0.09429932,-0.65631104,0.15625,-0.09375,-0.765625
442,-0.7463379,-0.09039307,-0.6526489,0.0625,0.984375,-0.828125
443,-0.73583984,-0.08306885,-0.67071533,0.28125,0.75,-1.140625
444,-0.7524414,-0.07720947,-0.66900635,0.21875,0.8125,-1.046875
445,-0.7480469,-0.06573486,-0.65045166,-0.109375,0.140625,-0.625
446,-0.74609375,-0.08258057,-0.65753174,0.53125,1.953125,1.015625
447,-0.75341797,-0.07745361,-0.6499634,0.296875,-0.1875,1.171875
448,-0.7524414,-0.077697754,-0.6370239,0.046875,-1.6875,1.390625
449,-0.7541504,-0.08331299,-0.6519165,-0.78125,-3.265625,0.640625
450,-0.7487793,-0.08673096,-0.6526489,-0.984375,-1.96875,0.703125
451,-0.7392578,-0.09429932,-0.6560669,-1.671875,-2.4375,0.359375
452,-0.736084,-0.08428955,-0.66363525,-1.53125,-3.328125,-0.640625
453,-0.7429199,-0.08770752,-0.6802368,-0.96875,-1.4375,-0.28125
454,-0.748291,-0.08013916,-0.67144775,-0.421875,-0.25,-0.21875
455,-0.7492676,-0.08892822,-0.66363525,-0.3125,-0.0625,0.234375
456,-0.7463379,-0.08111572,-0.66363525,-0.484375,-0.703125,0.265625
457,-0.7492676,-0.08770752,-0.6487427,-1.078125,0.90625,0.65625
458,-0.73828125,-0.08477783,-0.65802,-0.734375,-0.890625,0.078125
459,-0.7561035,-0.08721924,-0.6555786,-0.8125,-0.84375,-0.375
460,-0.7487793,-0.08477783,-0.6548462,-1.171875,-1.4375,-0.234375
461,-0.74902344,-0.08477783,-0.6572876,-1.375,-2.515625,-0.0625
462,-0.73876953,-0.08917236,-0.6519165,-1.796875,-2.09375,-0.265625
463,-0.74658203,-0.09552002,-0.6526489,-1.953125,-2.75,-0.25
464,-0.75683594,-0.097473145,-0.6460571,-2.796875,-3.9375,-1.953125
465,-0.76171875,-0.10870361,-0.6721802,-3.1875,-5.078125,-4.03125
466,-0.72998047,-0.06915283,-0.67510986,3.234375,-5.375,-3.390625
467,-0.72094727,-0.062316895,-0.68292236,4.015625,-2.828125,-1.609375
468,-0.70996094,-0.066467285,-0.68634033,2.84375,-1.171875,-0.34375
469,-0.6958008,-0.06744385,-0.6958618,1.171875,-1.703125,1.171875
470,-0.71777344,-0.0713501,-0.69659424,1.3125,-1.296875,3.1875
471,-0.73046875,-0.08062744,-0.6782837,1.03125,-0.515625,3.375
472,-0.73706055,-0.08062744,-0.66656494,0.65625,-1.421875,1.875
473,-0.73657227,-0.078186035,-0.67437744,0.390625,-1.546875,1.234375
474,-0.7241211,-0.06427002,-0.68292236,0.390625,-0.734375,0.296875
475,-0.72265625,-0.07232666,-0.68463135,-0.59375,0.140625,0.734375
476,-0.72998047,-0.07720947,-0.6860962,-1.078125,0.421875,0.484375
477,-0.73168945,-0.07672119,-0.6734009,-1.46875,0.546875,0.4375
478,-0.7272949,-0.07940674,-0.6865845,-1.359375,-0.171875,0.078125
479,-0.7270508,-0.08135986,-0.68756104,-0.921875,0.03125,0.15625
480,-0.7385254,-0.07208252,-0.6748657,-0.59375,0.46875,0.0
481,-0.7260742,-0.07745361,-0.69073486,0.015625,0.171875,0.0
482,-0.7270508,-0.07647705,-0.66973877,0.296875,0.8125,1.078125
483,-0.732666,-0.082336426,-0.6692505,-0.453125,-1.53125,0.21875
484,-0.72875977,-0.077697754,-0.6748657,-0.234375,-1.640625,-0.5
485,-0.7375488,-0.077941895,-0.6716919,-0.8125,-1.09375,0.015625
486,-0.7236328,-0.074279785,-0.6814575,-0.5,-1.65625,-0.3125
487,-0.7307129,-0.069885254,-0.6790161,-0.5625,-1.734375,-0.359375
488,-0.73779297,-0.065979004,-0.6878052,-0.734375,-0.484375,0.046875
489,-0.72094727,-0.07354736,-0.67974854,-1.0625,0.6875,-0.03125
490,-0.734375,-0.07330322,-0.6699829,-0.515625,-0.078125,-0.046875
491,-0.7331543,-0.06573486,-0.67681885,-0.109375,-0.71875,-0.390625
492,-0.7468262,-0.065979004,-0.6592407,1.59375,1.203125,0.734375
493,-0.73583984,-0.081848145,-0.66729736,1.71875,0.265625,1.34375
494,-0.72509766,-0.07159424,-0.6851196,0.75,-3.453125,0.875
495,-0.7224121,-0.07354736,-0.6824341,-1.28125,-3.421875,0.78125
496,-0.7285156,-0.06915283,-0.6843872,-1.703125,-1.828125,0.6875
497,-0.72924805,-0.078186035,-0.6773071,-1.546875,-1.46875,0.640625
498,-0.73291016,-0.07672119,-0.67388916,-1.09375,-2.140625,0.109375
499,-0.72216797,-0.077941895,-0.690979,-1.203125,-2.125,-0.390625
500,-0.7236328,-0.07476807,-0.6824341,-1.078125,-1.140625,-0.109375
501,-0.72436523,-0.08258057,-0.6890259,-0.5,-0.390625,0.046875
502,-0.71972656,-0.07476807,-0.6856079,-0.5625,-0.375,-0.046875
503,-0.7229004,-0.07525635,-0.68170166,-0.75,0.109375,-0.328125
504,-0.72509766,-0.0791626,-0.6848755,-0.21875,0.09375,-0.21875
505,-0.7272949,-0.062561035,-0.68218994,-0.53125,0.984375,-0.4375
506,-0.7265625,-0.070129395,-0.67315674,-0.546875,0.6875,0.484375
507,-0.73217773,-0.0725708,-0.6716919,-0.4375,0.875,1.046875
508,-0.7368164,-0.085754395,-0.6680298,-0.765625,0.28125,0.78125
509,-0.7324219,-0.07965088,-0.67266846,-0.03125,-0.859375,0.140625
510,-0.73657227,-0.081604004,-0.6765747,-0.546875,-0.765625,0.09375
511,-0.7260742,-0.074279785,-0.66778564,-0.171875,-0.78125,0.15625
512,-0.7351074,-0.081604004,-0.67755127,-0.015625,-0.703125,0.53125
513,-0.7277832,-0.06793213,-0.66900635,-0.328125,-1.328125,0.375
514,-0.73291016,-0.074279785,-0.68218994,-1.3125,-0.578125,-0.03125
515,-0.7368164,-0.077697754,-0.6699829,-0.921875,-0.28125,0.6875
516,-0.73461914,-0.07989502,-0.6760864,-0.390625,-0.890625,0.484375
517,-0.7392578,-0.070373535,-0.67755127,-0.75,-0.125,0.78125
518,-0.73535156,-0.0713501,-0.6680298,-0.171875,1.6875,1.609375
519,-0.7319336,-0.097717285,-0.67803955,0.578125,-0.578125,1.609375
520,-0.73046875,-0.078186035,-0.6694946,-0.59375,-1.046875,0.375
521,-0.7438965,-0.09307861,-0.6604614,-2.0,-0.84375,0.75
522,-0.73046875,-0.07989502,-0.66656494,-1.328125,-1.21875,-0.109375
523,-0.7397461,-0.074523926,-0.6843872,-0.625,-0.765625,-0.046875
524,-0.7348633,-0.07354736,-0.6716919,-0.0625,0.140625,0.21875
525,-0.7336426,-0.081848145,-0.6694946,0.0625,-0.0625,0.578125
526,-0.7302246,-0.08331299,-0.6741333,0.046875,0.125,0.34375
527,-0.74365234,-0.08770752,-0.6716919,-0.609375,0.75,1.015625
528,-0.7402344,-0.082336426,-0.6555786,-0.453125,0.265625,0.1875
529,-0.74243164,-0.08648682,-0.65826416,-0.140625,0.234375,-0.4375
530,-0.75146484,-0.07598877,-0.65704346,-0.25,0.1875,-0.03125
531,-0.74902344,-0.07354736,-0.6670532,-0.78125,-0.4375,0.6875
532,-0.7458496,-0.0803833,-0.6663208,0.03125,-0.71875,0.5625
533,-0.74438477,-0.09283447,-0.65216064,-0.234375,-0.328125,0.15625
534,-0.7348633,-0.07940674,-0.66729736,-0.46875,-1.25,-0.171875
535,-0.74438477,-0.07745361,-0.65802,-0.546875,-0.4375,0.375
536,-0.7470703,-0.0869751,-0.6716919,-0.4375,-0.75,-0.015625
537,-0.74316406,-0.08306885,-0.6565552,0.078125,-0.203125,0.484375
538,-0.74609375,-0.07525635,-0.66412354,-0.109375,-0.328125,0.140625
539,-0.73950195,-0.08013916,-0.6567993,-1.078125,-0.296875,0.40625
540,-0.74902344,-0.07623291,-0.64801025,-0.5,-0.34375,-0.078125
541,-0.74438477,-0.07281494,-0.67071533,-0.765625,-1.046875,-0.109375
542,-0.7429199,-0.08306885,-0.6589966,-0.09375,-0.609375,-0.0625
543,-0.748291,-0.07550049,-0.659729,-0.1875,-0.8125,0.109375
544,-0.7429199,-0.082336426,-0.6670532,-0.71875,-0.65625,0.09375
545,-0.74438477,-0.074035645,-0.66534424,-0.75,-0.578125,0.265625
546,-0.7446289,-0.08282471,-0.65802,-0.6875,-0.421875,0.484375
547,-0.748291,-0.08428955,-0.66119385,-0.71875,-0.515625,0.109375
548,-0.74365234,-0.07501221,-0.6643677,-1.21875,-0.671875,0.0
549,-0.7451172,-0.07159424,-0.6638794,-1.546875,-0.53125,0.078125
550,-0.74243164,-0.07940674,-0.65948486,-0.953125,0.1875,0.125
551,-0.75634766,-0.09674072,-0.647522,0.4375,-0.015625,0.640625
552,-0.7397461,-0.07501221,-0.6748657,0.703125,0.4375,-1.421875
553,-0.7446289,-0.09063721,-0.6699829,-0.9375,0.96875,-1.453125
554,-0.7529297,-0.07281494,-0.6477661,-0.1875,0.796875,-2.265625
555,-0.7565918,-0.059631348,-0.6416626,1.171875,2.328125,-2.0
556,-0.7529297,-0.06939697,-0.6643677,0.78125,0.84375,-1.953125
557,-0.75634766,-0.06964111,-0.6448364,-0.734375,1.890625,-0.1875
558,-0.76342773,-0.066223145,-0.6375122,-0.96875,0.234375,0.03125
559,-0.76831055,-0.054504395,-0.64190674,-0.921875,-0.609375,0.015625
560,-0.7602539,-0.05328369,-0.6370239,-0.328125,-0.546875,1.203125
561,-0.76342773,-0.06524658,-0.6470337,-0.46875,-0.984375,1.015625
562,-0.7529297,-0.07159424,-0.64068604,-1.375,-1.65625,0.6875
563,-0.7573242,-0.077697754,-0.6358032,-2.046875,-2.8125,0.328125
564,-0.7541504,-0.06109619,-0.64971924,-1.875,-2.40625,0.4375
565,-0.7585449,-0.07940674,-0.644104,-1.328125,-2.171875,0.421875
566,-0.75683594,-0.07305908,-0.65289307,-0.984375,-2.90625,-0.21875
567,-0.75341797,-0.073791504,-0.65802,-0.921875,-1.71875,0.15625
568,-0.75439453,-0.0803833,-0.6621704,-0.71875,-1.859375,-0.046875
569,-0.75561523,-0.074523926,-0.65826416,-0.625,-0.765625,0.015625
570,-0.74609375,-0.07647705,-0.65753174,-0.59375,-0.40625,-0.15625
571,-0.74902344,-0.07354736,-0.6633911,-0.8125,-0.234375,-0.65625
572,-0.75219727,-0.06744385,-0.65167236,-1.09375,0.5625,-0.421875
573,-0.751709,-0.07232666,-0.6658325,-1.5625,-0.078125,-0.484375
574,-0.75390625,-0.07965088,-0.6416626,-2.703125,0.203125,-0.9375
575,-0.75683594,-0.07867432,-0.64141846,-3.203125,0.3125,-1.328125
576,-0.76586914,-0.070617676,-0.6460571,-1.984375,-0.28125,-0.78125
577,-0.7705078,-0.07330322,-0.6489868,-0.421875,0.484375,0.296875
578,-0.7631836,-0.07745361,-0.6433716,0.234375,-0.15625,-0.015625
579,-0.7644043,-0.08843994,-0.6399536,1.03125,-0.671875,0.75
580,-0.75146484,-0.07208252,-0.6502075,1.84375,-1.21875,-0.453125
581,-0.7504883,-0.08502197,-0.659729,0.171875,-0.265625,-0.140625
582,-0.7038574,-0.058166504,-0.65875244,-2.109375,-0.9375,1.390625
583,-0.77978516,-0.08331299,-0.6397095,-3.4375,-2.9375,0.28125
584,-0.7558594,-0.08331299,-0.647522,-5.15625,-0.734375,-1.921875
585,-0.7475586,-0.07159424,-0.6421509,-5.15625,-1.65625,-1.75
586,-0.7558594,-0.06036377,-0.64068604,-3.453125,-1.4375,-0.21875
587,-0.78393555,-0.08380127,-0.6487427,-1.8125,-1.359375,0.5
588,-0.7541504,-0.11578369,-0.6589966,0.96875,-1.46875,0.96875
589,-0.7595215,-0.08795166,-0.647522,-0.234375,-1.046875,-0.734375
590,-0.7438965,-0.0803833,-0.6428833,-0.28125,-1.5625,-1.5
591,-0.7512207,-0.08502197,-0.6511841,0.4375,-1.46875,-1.140625
592,-0.76049805,-0.07940674,-0.65875244,0.859375,-1.015625,-1.1875
593,-0.74853516,-0.07720947,-0.6604614,0.6875,-0.515625,-1.109375
594,-0.74658203,-0.070129395,-0.6589966,-0.265625,-0.21875,-0.03125
595,-0.7546387,-0.06451416,-0.64849854,-0.671875,0.078125,-0.125
596,-0.76049805,-0.07305908,-0.64971924,-1.078125,-0.328125,0.171875
597,-0.7590332,-0.078186035,-0.65093994,-1.625,-0.953125,-0.296875
598,-0.7495117,-0.07574463,-0.6416626,-2.328125,-1.953125,-0.71875
599,-0.74902344,-0.0803833,-0.63604736,-4.53125,-2.03125,-1.125
600,-0.75805664,-0.10211182,-0.6370239,-7.984375,-3.34375,-2.734375
601,-0.75512695,-0.08111572,-0.65997314,-7.671875,-11.9375,-5.65625
602,-0.72998047,-0.077697754,-0.67388916,-4.5625,-10.796875,-3.0625
603,-0.76464844,-0.09918213,-0.6721802,4.25,-3.6875,-1.875
604,-0.7182617,-0.057434082,-0.6934204,4.109375,-3.71875,-0.609375
605,-0.70825195,-0.047912598,-0.6773071,4.03125,-3.546875,0.328125
606,-0.7138672,-0.04864502,-0.69122314,2.140625,-2.609375,2.046875
607,-0.7097168,-0.06500244,-0.67193604,0.9375,-3.359375,2.265625
608,-0.7307129,-0.09527588,-0.6721802,-0.734375,-3.078125,2.25
609,-0.7067871,-0.0803833,-0.6902466,-0.9375,-4.203125,0.21875
610,-0.71313477,-0.05987549,-0.7000122,-1.953125,-2.328125,0.140625
611,-0.7216797,-0.061584473,-0.69976807,-2.859375,-1.0625,0.765625
612,-0.71484375,-0.078430176,-0.6865845,-1.640625,-0.65625,0.40625
613,-0.7092285,-0.07891846,-0.70318604,-1.078125,-0.875,-0.03125
614,-0.70336914,-0.07281494,-0.6992798,-1.03125,-1.171875,-0.53125
615,-0.71240234,-0.08477783,-0.69122314,0.125,-0.90625,0.15625
616,-0.71069336,-0.08013916,-0.7029419,0.640625,-1.0,-0.390625
617,-0.7067871,-0.07110596,-0.69610596,0.765625,-0.515625,-0.546875
618,-0.7163086,-0.070129395,-0.69781494,0.8125,-0.0625,0.171875
619,-0.7175293,-0.07183838,-0.69122314,0.71875,0.0,0.25
620,-0.7141113,-0.07672119,-0.6921997,-0.1875,0.203125,0.46875
621,-0.71240234,-0.074035645,-0.6865845,-0.859375,-0.265625,0.84375
622,-0.7219238,-0.07867432,-0.69195557,-1.140625,-1.171875,0.53125
623,-0.7199707,-0.0803833,-0.6897583,-0.671875,-0.640625,0.703125
624,-0.70751953,-0.07354736,-0.6968384,-0.296875,-0.921875,0.421875
625,-0.7150879,-0.07965088,-0.7012329,0.3125,-0.90625,0.328125
626,-0.71362305,-0.06842041,-0.6921997,0.03125,-0.265625,-0.140625
627,-0.7236328,-0.07183838,-0.67974854,-0.09375,-1.09375,0.265625
628,-0.7097168,-0.06842041,-0.70196533,-0.828125,-1.40625,-0.140625
629,-0.72265625,-0.07965088,-0.6902466,-0.703125,-0.46875,0.28125
630,-0.71118164,-0.07159424,-0.6983032,-0.34375,-1.09375,0.1875
631,-0.7128906,-0.07354736,-0.6851196,-0.609375,-0.765625,0.46875
632,-0.7167969,-0.07501221,-0.68707275,-0.640625,-0.421875,0.203125
633,-0.7233887,-0.07208252,-0.690979,-0.4375,-0.46875,-0.0625
634,-0.70703125,-0.07598877,-0.6980591,0.140625,-0.890625,0.359375
635,-0.71972656,-0.065979004,-0.69073486,-0.421875,-1.203125,0.375
636,-0.7229004,-0.07305908,-0.6878052,-0.65625,-0.734375,0.609375
637,-0.70751953,-0.07891846,-0.68536377,-0.21875,-1.046875,0.640625
638,-0.7155762,-0.06890869,-0.6995239,-0.296875,-1.5625,0.140625
639,-0.7141113,-0.06939697,-0.6975708,-0.875,-0.703125,0.109375
640,-0.7167969,-0.07183838,-0.68585205,-0.34375,-0.203125,0.25
641,-0.7150879,-0.07232666,-0.694397,-0.5625,-0.546875,0.453125
642,-0.717041,-0.06793213,-0.6799927,-1.234375,-0.484375,0.28125
643,-0.7175293,-0.08404541,-0.6878052,-0.4375,-0.46875,0.796875
644,-0.7141113,-0.06500244,-0.6914673,-0.296875,-0.984375,0.125
645,-0.71606445,-0.06939697,-0.6983032,-0.421875,-0.390625,0.453125
646,-0.7155762,-0.08111572,-0.6885376,0.5625,0.0625,1.25
647,-0.71875,-0.074279785,-0.69781494,0.125,-0.59375,0.234375
648,-0.7192383,-0.07281494,-0.67926025,-0.578125,-0.265625,0.3125
649,-0.7219238,-0.07574463,-0.694397,-0.609375,-1.640625,-0.03125
650,-0.70874023,-0.070373535,-0.69317627,-1.65625,-1.21875,0.0625
651,-0.7141113,-0.08526611,-0.6921997,-0.921875,-0.765625,0.546875
652,-0.7175293,-0.074279785,-0.6885376,-0.46875,-0.328125,-0.046875
653,-0.71533203,-0.07745361,-0.69903564,-0.3125,-0.515625,-0.109375
654,-0.7133789,-0.06866455,-0.68829346,-0.046875,0.578125,-0.265625
655,-0.7233887,-0.06427002,-0.6873169,0.453125,0.5,0.125
656,-0.7211914,-0.06304932,-0.68414307,0.1875,0.421875,0.515625
657,-0.7216797,-0.0725708,-0.6885376,0.28125,0.953125,0.78125
658,-0.71728516,-0.070373535,-0.6819458,0.09375,1.171875,0.96875
659,-0.7307129,-0.06866455,-0.6851196,-0.125,0.125,1.125
660,-0.7224121,-0.0713501,-0.6885376,-0.328125,0.0,1.359375
661,-0.72998047,-0.085510254,-0.68414307,-0.234375,-1.0625,0.875
662,-0.7302246,-0.070617676,-0.69073486,0.609375,-1.109375,0.65625
663,-0.72680664,-0.0647583,-0.68048096,0.71875,-1.015625,1.0
664,-0.7270508,-0.081604004,-0.67437744,0.53125,-0.984375,0.484375
665,-0.7285156,-0.08477783,-0.677063,-0.234375,-1.015625,0.21875
666,-0.71850586,-0.062805176,-0.69537354,-0.765625,-0.53125,-0.828125
667,-0.7248535,-0.066223145,-0.6802368,-0.71875,1.015625,0.390625
668,-0.72509766,-0.07891846,-0.67926025,0.15625,0.625,0.34375
669,-0.73168945,-0.07086182,-0.6782837,-0.125,0.96875,0.859375
670,-0.7236328,-0.07354736,-0.675354,-0.3125,0.453125,0.71875
671,-0.72753906,-0.074279785,-0.6799927,-1.03125,-0.328125,0.40625
672,-0.7314453,-0.070617676,-0.67315674,-0.453125,-0.5,-0.078125
673,-0.73046875,-0.06719971,-0.68585205,0.21875,-1.1875,0.40625
674,-0.73168945,-0.07330322,-0.6812134,-0.125,-0.171875,0.5625
675,-0.7277832,-0.08746338,-0.67510986,0.015625,-0.46875,0.390625
676,-0.7348633,-0.0647583,-0.68707275,0.234375,-1.21875,-0.21875
677,-0.7294922,-0.06964111,-0.6795044,-0.515625,0.5625,-0.28125
678,-0.7390137,-0.07574463,-0.6741333,-1.28125,-0.546875,-0.46875
679,-0.72021484,-0.058898926,-0.68170166,-1.90625,-1.4375,-1.03125
680,-0.7368164,-0.074523926,-0.67852783,-2.140625,-0.765625,-0.859375
681,-0.71972656,-0.062316895,-0.67926025,-0.53125,-0.328125,-0.265625
682,-0.73779297,-0.07720947,-0.6721802,-0.28125,0.171875,0.546875
683,-0.72998047,-0.06329346,-0.6777954,0.3125,0.0,0.109375
684,-0.7351074,-0.07989502,-0.6626587,0.625,0.078125,1.203125
685,-0.7324219,-0.06842041,-0.68096924,0.65625,-0.671875,-0.125
686,-0.73291016,-0.06866455,-0.6836548,0.0,-0.03125,0.0
687,-0.7373047,-0.06793213,-0.67071533,0.953125,-0.28125,0.203125
688,-0.7338867,-0.070129395,-0.67437744,0.34375,-1.203125,0.140625
689,-0.7270508,-0.070617676,-0.68170166,-2.109375,-0.34375,0.359375
690,-0.7290039,-0.06866455,-0.6646118,-4.140625,0.03125,-0.03125
691,-0.7416992,-0.06036377,-0.67193604,-3.828125,0.015625,-0.21875
692,-0.7548828,-0.08428955,-0.6643677,-1.5,0.9375,1.765625
693,-0.7363281,-0.07501221,-0.6668091,-0.5625,-0.5,0.390625
694,-0.736084,-0.070129395,-0.6799927,-0.484375,-0.203125,0.546875
695,-0.7409668,-0.07891846,-0.6577759,-0.375,-0.6875,0.28125
696,-0.73950195,-0.07940674,-0.6663208,0.25,-1.046875,-0.21875
697,-0.74121094,-0.07281494,-0.67144775,-0.109375,-0.5625,-0.203125
698,-0.7363281,-0.06939697,-0.6694946,-0.5,-0.765625,-0.40625
699,-0.73779297,-0.070617676,-0.6694946,-0.421875,-0.15625,0.171875
700,-0.7475586,-0.08306885,-0.66241455,-0.609375,-0.296875,0.265625
701,-0.74609375,-0.07745361,-0.6716919,-0.5,-0.984375,0.0
702,-0.7416992,-0.07086182,-0.66412354,-0.640625,0.375,0.28125
703,-0.7404785,-0.07501221,-0.6704712,-0.546875,-0.09375,0.25
704,-0.74365234,-0.07574463,-0.6626587,-0.421875,-0.53125,0.21875
705,-0.7380371,-0.07232666,-0.65826416,0.140625,-0.859375,0.171875
706,-0.7416992,-0.07891846,-0.6663208,-1.015625,-0.34375,0.34375
707,-0.7453613,-0.085510254,-0.64727783,-3.609375,-1.109375,-0.78125
708,-0.72558594,-0.08502197,-0.6511841,-7.375,-1.59375,-3.84375
709,-0.7253418,-0.07208252,-0.67755127,-13.109375,-0.171875,-2.984375
710,-0.77783203,-0.08648682,-0.65704346,-6.84375,2.75,2.484375
711,-0.7470703,-0.11602783,-0.6345825,-5.953125,-2.46875,-0.140625
712,-0.75634766,-0.11456299,-0.65460205,-4.578125,-7.34375,-0.640625
713,-0.7636719,-0.11016846,-0.6734009,0.78125,-5.15625,-0.640625
714,-0.7224121,-0.10479736,-0.6741333,3.78125,-2.75,-0.875
715,-0.7175293,-0.10064697,-0.69659424,5.515625,-3.171875,-0.8125
716,-0.7216797,-0.08355713,-0.68096924,1.421875,-2.03125,-0.328125
717,-0.7277832,-0.093322754,-0.66851807,0.421875,-1.046875,0.421875
718,-0.72143555,-0.086242676,-0.6851196,1.90625,-2.96875,-0.40625
719,-0.74316406,-0.06329346,-0.68170166,0.859375,-0.3125,-0.390625
720,-0.732666,-0.085998535,-0.6712036,0.75,0.546875,0.390625
721,-0.7180176,-0.085998535,-0.68536377,0.59375,1.578125,-0.0625
722,-0.73999023,-0.08380127,-0.67510986,-0.25,3.0625,1.171875
723,-0.7182617,-0.08331299,-0.67852783,0.65625,5.5625,3.453125
724,-0.75219727,-0.085998535,-0.6506958,-0.4375,3.328125,2.125
725,-0.73828125,-0.09210205,-0.6765747,0.203125,-0.296875,-0.015625
726,-0.7409668,-0.085754395,-0.66729736,1.125,1.359375,-0.796875
727,-0.748291,-0.07574463,-0.6577759,1.109375,1.515625,-0.4375
728,-0.7512207,-0.06402588,-0.6506958,-0.265625,-0.296875,-0.9375
729,-0.7507324,-0.09136963,-0.6470337,-0.4375,-1.03125,0.171875
730,-0.7487793,-0.08428955,-0.65826416,-0.90625,-1.65625,-0.875
731,-0.74658203,-0.07305908,-0.6555786,-1.078125,-0.984375,0.203125
732,-0.7492676,-0.07672119,-0.6565552,-0.640625,-1.59375,0.515625
733,-0.74658203,-0.08087158,-0.65826416,-0.53125,-2.015625,0.734375
734,-0.7380371,-0.089660645,-0.6643677,0.078125,-1.625,0.421875
735,-0.7441406,-0.077941895,-0.65582275,-0.359375,-1.5625,0.40625
736,-0.7451172,-0.085998535,-0.66119385,-0.65625,-1.78125,0.0625
737,-0.7480469,-0.08135986,-0.66241455,-0.703125,-1.59375,-0.125
738,-0.7375488,-0.101623535,-0.6704712,-1.71875,-1.484375,-0.828125
739,-0.7297363,-0.08795166,-0.67193604,-1.984375,0.671875,-2.828125
740,-0.7644043,-0.047668457,-0.66778564,0.28125,7.046875,-0.921875
741,-0.75634766,-0.058166504,-0.6309204,2.28125,3.515625,0.09375
742,-0.75097656,-0.073791504,-0.62994385,0.90625,-2.328125,0.578125
743,-0.7507324,-0.085998535,-0.63726807,-1.421875,-4.9375,0.109375
744,-0.7531738,-0.07574463,-0.6524048,-3.265625,-3.609375,-0.5
745,-0.734375,-0.06719971,-0.6812134,-2.359375,-2.5625,-0.203125
746,-0.74780273,-0.06964111,-0.66851807,-2.390625,-0.3125,-0.34375
747,-0.7531738,-0.07720947,-0.65509033,-1.5,0.5625,0.171875
748,-0.7324219,-0.08111572,-0.64630127,-3.046875,-3.609375,0.046875
749,-0.7524414,-0.07232666,-0.6734009,-5.171875,-9.265625,-0.5625
750,-0.7463379,-0.09039307,-0.6658325,-1.921875,0.015625,1.921875
751,-0.7404785,-0.09429932,-0.66729736,0.84375,-1.234375,0.859375
752,-0.7338867,-0.09112549,-0.67022705,0.328125,-1.1875,0.015625
753,-0.7241211,-0.081604004,-0.67974854,0.671875,-0.328125,0.375
754,-0.73706055,-0.07720947,-0.66412354,0.375,0.203125,0.796875
755,-0.7380371,-0.08428955,-0.66656494,0.296875,-0.3125,0.140625
756,-0.74853516,-0.0881958,-0.6585083,-0.796875,0.546875,0.484375
757,-0.7421875,-0.093566895,-0.6416626,-2.46875,0.140625,-0.0625
758,-0.74194336,-0.08795166,-0.65826416,-3.046875,-0.09375,-0.875
759,-0.7663574,-0.093322754,-0.66534424,-2.53125,0.078125,-1.296875
