sample_no,accel_x,accel_y,accel_z,gyro_x,gyro_y,gyro_z
0,-0.782959,0.010681152,-0.66363525,1.71875,1.84375,-0.921875
1,-0.78686523,0.014343262,-0.65997314,0.921875,1.59375,0.203125
2,-0.78930664,0.0060424805,-0.673645,0.203125,0.9375,0.671875
3,-0.7844238,0.0016479492,-0.6799927,0.578125,1.40625,1.171875
4,-0.7722168,-0.0049438477,-0.6802368,1.140625,0.9375,0.65625
5,-0.77319336,-0.0017700195,-0.6716919,0.46875,0.53125,0.09375
6,-0.77124023,0.007019043,-0.6712036,0.171875,-1.15625,-0.421875
7,-0.7763672,0.0060424805,-0.678772,2.09375,2.34375,0.15625
8,-0.76904297,0.014831543,-0.65582275,3.109375,2.28125,-0.46875
9,-0.7668457,0.02166748,-0.67315674,0.09375,-0.046875,0.6875
10,-0.7746582,0.01751709,-0.6543579,0.421875,0.234375,0.921875
11,-0.7717285,0.00970459,-0.67974854,-1.53125,0.34375,0.671875
12,-0.78930664,0.020935059,-0.6802368,-2.25,0.515625,0.5625
13,-0.77563477,0.012390137,-0.69073486,-3.171875,1.078125,0.546875
14,-0.779541,0.0067749023,-0.67022705,-1.328125,3.078125,1.328125
15,-0.7692871,-0.008361816,-0.65338135,-0.203125,2.3125,0.421875
16,-0.77734375,-0.0010375977,-0.68536377,-1.21875,-0.59375,-0.21875
17,-0.7741699,-0.012756348,-0.66900635,-1.328125,-0.484375,-0.171875
18,-0.7805176,0.008483887,-0.6675415,-1.578125,-0.71875,0.1875
19,-0.76904297,0.0053100586,-0.678772,-0.609375,0.734375,0.59375
20,-0.7819824,-6.1035156e-05,-0.67633057,-1.359375,0.140625,0.609375
21,-0.77001953,0.0033569336,-0.6643677,-0.859375,-0.34375,0.25
22,-0.7783203,0.007507324,-0.67926025,-1.515625,0.5625,0.015625
23,-0.7702637,-0.0020141602,-0.6795044,-1.5,0.9375,-0.40625
24,-0.77441406,-0.0064086914,-0.6699829,-2.703125,0.375,0.109375
25,-0.76538086,0.0004272461,-0.65875244,-1.203125,2.0625,-0.15625
26,-0.7739258,-0.0037231445,-0.6790161,-0.59375,1.828125,0.15625
27,-0.7687988,0.0004272461,-0.6663208,-0.28125,1.5625,0.171875
28,-0.77001953,-0.0015258789,-0.6658325,0.15625,0.609375,0.28125
29,-0.7668457,-0.0005493164,-0.6721802,0.5625,1.046875,0.4375
30,-0.7783203,0.0038452148,-0.6760864,-0.046875,-0.1875,0.625
31,-0.7817383,-0.00079345703,-0.6802368,-0.75,-0.859375,1.546875
32,-0.7717285,-0.0032348633,-0.67315674,0.5,-0.078125,0.96875
33,-0.7663574,-0.012023926,-0.67633057,0.03125,0.03125,1.078125
34,-0.76049805,-0.008361816,-0.68341064,-0.9375,-0.296875,0.625
35,-0.763916,-0.002746582,-0.6814575,-1.234375,1.015625,0.59375
36,-0.76049805,-0.011291504,-0.67755127,-1.0625,1.09375,0.53125
37,-0.765625,-0.010559082,-0.67388916,-0.796875,1.015625,-0.15625
38,-0.76831055,0.00018310547,-0.67974854,-0.703125,1.0,-0.03125
39,-0.7763672,-0.00982666,-0.68707275,-0.9375,0.96875,0.0
40,-0.7788086,-0.0022583008,-0.68096924,-0.65625,1.609375,0.53125
41,-0.7668457,-0.010559082,-0.6758423,-0.359375,1.09375,0.421875
42,-0.77124023,-0.00592041,-0.6655884,-0.34375,0.421875,0.34375
43,-0.7675781,-0.0051879883,-0.67559814,-0.609375,-0.109375,0.3125
44,-0.76708984,0.0028686523,-0.677063,-0.609375,-0.1875,0.40625
45,-0.7651367,-0.0044555664,-0.67974854,-1.140625,-0.0625,0.671875
46,-0.77441406,-0.0049438477,-0.67852783,-0.828125,0.078125,0.796875
47,-0.76586914,-0.010803223,-0.6795044,-0.5625,-0.25,0.375
48,-0.7702637,-0.004699707,-0.6934204,-0.875,-0.3125,0.0625
49,-0.76538086,-0.003479004,-0.69488525,-1.09375,0.34375,0.09375
50,-0.7644043,-0.00982666,-0.67852783,0.09375,1.359375,-0.15625
51,-0.76220703,-0.0017700195,-0.6824341,0.15625,1.453125,-0.359375
52,-0.763916,0.0099487305,-0.6897583,-0.796875,1.21875,-0.015625
53,-0.7609863,-0.0056762695,-0.6724243,-0.3125,2.09375,-0.046875
54,-0.76171875,-0.009094238,-0.66900635,-1.25,0.875,0.234375
55,-0.77124023,-0.009338379,-0.6668091,-2.03125,-0.671875,-0.25
56,-0.7807617,-0.0012817383,-0.6904907,-1.375,-1.390625,0.1875
57,-0.7651367,-0.007385254,-0.6795044,0.015625,-0.296875,0.625
58,-0.76538086,-0.00079345703,-0.6878052,0.71875,1.546875,0.734375
59,-0.76049805,-0.0020141602,-0.694397,0.8125,2.625,1.34375
60,-0.7512207,-0.017150879,-0.6897583,-0.140625,3.703125,1.15625
61,-0.76220703,-0.011047363,-0.6790161,-1.140625,3.875,0.359375
62,-0.7668457,-0.0037231445,-0.66290283,-1.09375,3.296875,-0.09375
63,-0.78515625,0.00091552734,-0.66192627,-0.25,3.59375,0.0
64,-0.77905273,-0.0037231445,-0.6592407,-0.03125,2.328125,0.28125
65,-0.7885742,0.0021362305,-0.6643677,-0.03125,0.953125,0.828125
66,-0.7758789,0.0072631836,-0.6638794,0.984375,1.703125,1.03125
67,-0.7729492,-0.00592041,-0.67022705,0.40625,1.03125,1.46875
68,-0.7734375,-0.013244629,-0.6651001,-0.234375,1.609375,1.640625
69,-0.7702637,-0.009094238,-0.65411377,0.765625,0.109375,0.5
70,-0.76953125,-0.008361816,-0.66192627,0.03125,-1.21875,0.28125
71,-0.7734375,-0.0049438477,-0.6643677,-0.234375,-0.953125,0.390625
72,-0.779541,-0.008850098,-0.6814575,-1.640625,-1.6875,0.71875
73,-0.7873535,-0.018371582,-0.68585205,-1.0,0.40625,0.875
74,-0.7729492,-0.0068969727,-0.6777954,0.078125,1.3125,0.046875
75,-0.7663574,-0.004699707,-0.6626587,0.46875,1.640625,0.34375
76,-0.7705078,-0.018615723,-0.67559814,0.53125,1.0625,-0.171875
77,-0.7800293,-0.010559082,-0.6826782,0.25,1.734375,-0.078125
78,-0.779541,0.0079956055,-0.66656494,1.21875,3.84375,-0.171875
79,-0.7819824,-0.0012817383,-0.67022705,1.21875,4.9375,0.71875
80,-0.77685547,-0.00592041,-0.6585083,1.390625,4.640625,0.578125
81,-0.7717285,-0.0020141602,-0.65289307,0.9375,2.328125,0.109375
82,-0.7849121,0.00579834,-0.6399536,0.140625,2.421875,1.515625
83,-0.7883301,-0.008605957,-0.6609497,0.4375,1.59375,1.703125
84,-0.80859375,0.0026245117,-0.67803955,0.21875,1.921875,1.359375
85,-0.8041992,-0.0012817383,-0.6699829,1.140625,4.4375,1.75
86,-0.79418945,-0.0056762695,-0.65509033,0.546875,3.90625,0.671875
87,-0.79003906,-0.0017700195,-0.642395,1.953125,3.296875,-1.078125
88,-0.80322266,0.0021362305,-0.6436157,1.84375,3.359375,-0.96875
89,-0.8022461,0.0119018555,-0.64263916,0.40625,2.78125,-0.296875
90,-0.8010254,0.013122559,-0.63897705,0.1875,1.734375,0.078125
91,-0.8083496,0.0067749023,-0.64434814,-0.796875,1.203125,0.09375
92,-0.8054199,0.012878418,-0.6314087,-0.640625,0.375,0.28125
93,-0.8059082,0.0079956055,-0.63165283,0.109375,0.359375,0.25
94,-0.7998047,0.0067749023,-0.63116455,-1.390625,-1.953125,0.734375
95,-0.80200195,0.0006713867,-0.64727783,-2.828125,-1.9375,0.765625
96,-0.79174805,0.00018310547,-0.642395,-1.625,-2.171875,0.140625
97,-0.78759766,-0.0010375977,-0.64971924,-2.484375,-3.71875,-0.28125
98,-0.7836914,-0.006164551,-0.6553345,-3.203125,-5.421875,-0.421875
99,-0.7902832,0.008972168,-0.67437744,-3.65625,-4.75,-0.625
100,-0.7858887,0.0079956055,-0.67193604,-2.03125,-2.21875,-0.28125
101,-0.77905273,0.001159668,-0.6655884,-0.859375,-0.265625,-0.15625
102,-0.7763672,0.00091552734,-0.66485596,-0.671875,-0.921875,-0.34375
103,-0.7753906,-0.0020141602,-0.66778564,-1.203125,-0.890625,-0.796875
104,-0.7792969,0.0072631836,-0.67559814,-0.875,-1.078125,-0.15625
105,-0.77124023,-0.0032348633,-0.67681885,1.15625,-0.203125,-0.03125
106,-0.77124023,-0.0071411133,-0.68414307,0.296875,-0.078125,-0.3125
107,-0.76464844,0.0065307617,-0.678772,0.484375,0.015625,-0.328125
108,-0.7702637,-0.0010375977,-0.6831665,-0.296875,-0.421875,-0.125
109,-0.77124023,0.012634277,-0.6802368,-0.96875,0.328125,-0.234375
110,-0.7714844,-0.0005493164,-0.6836548,0.296875,0.96875,-0.234375
111,-0.77197266,0.007019043,-0.6802368,-0.171875,0.8125,0.015625
112,-0.7817383,0.014831543,-0.6826782,-0.453125,0.5625,0.625
113,-0.7702637,0.011169434,-0.6807251,-0.828125,0.34375,0.921875
114,-0.76293945,0.012145996,-0.65289307,1.34375,1.1875,1.078125
115,-0.7619629,0.0119018555,-0.6675415,1.40625,-2.03125,1.21875
116,-0.74780273,0.0016479492,-0.6897583,0.125,-2.4375,1.625
117,-0.7536621,0.014343262,-0.68634033,0.40625,-2.25,0.703125
118,-0.76782227,0.00579834,-0.71954346,-0.625,-1.21875,1.59375
119,-0.7565918,-0.0056762695,-0.7090454,-0.625,2.78125,1.265625
120,-0.7648926,0.0028686523,-0.7139282,0.296875,2.578125,0.140625
121,-0.76708984,-6.1035156e-05,-0.68218994,-0.84375,4.546875,-0.71875
122,-0.76123047,0.00970459,-0.6675415,-0.359375,3.046875,-0.46875
123,-0.7583008,0.0021362305,-0.67193604,-0.25,2.40625,-0.21875
124,-0.7685547,0.012878418,-0.68536377,-0.296875,2.09375,-0.03125
125,-0.76904297,0.0099487305,-0.6663208,-0.09375,1.53125,0.265625
126,-0.75878906,0.008728027,-0.675354,-0.984375,0.0,0.140625
127,-0.7722168,0.016052246,-0.678772,-0.25,-0.53125,-0.328125
128,-0.7824707,0.020690918,-0.6807251,-0.171875,1.75,0.390625
129,-0.7685547,0.012634277,-0.6758423,0.140625,1.84375,1.203125
130,-0.7714844,-0.002746582,-0.67681885,-0.640625,2.0625,1.1875
131,-0.77001953,0.00018310547,-0.678772,-0.59375,1.203125,0.578125
132,-0.77124023,0.007751465,-0.68341064,-0.75,0.703125,0.21875
133,-0.7644043,0.008972168,-0.6734009,-0.09375,2.015625,0.171875
134,-0.7766113,0.0067749023,-0.6729126,0.140625,1.734375,-0.03125
135,-0.77124023,0.0099487305,-0.6670532,0.0,0.484375,0.421875
136,-0.76708984,0.009460449,-0.6709595,-0.40625,0.890625,0.515625
137,-0.77783203,0.010925293,-0.68048096,-0.609375,-0.21875,0.15625
138,-0.765625,0.0065307617,-0.6741333,-1.078125,0.390625,0.515625
139,-0.7763672,0.00970459,-0.6746216,-0.140625,-0.390625,-0.21875
140,-0.7680664,0.015075684,-0.67633057,-0.875,-1.171875,-0.125
141,-0.7805176,0.007751465,-0.6826782,-1.546875,-1.125,0.09375
142,-0.7648926,0.014099121,-0.66241455,-1.359375,-0.859375,0.453125
143,-0.7729492,0.009460449,-0.68707275,-1.546875,-1.0625,0.375
144,-0.7648926,0.00579834,-0.6860962,-0.890625,-0.765625,0.40625
145,-0.75878906,0.010192871,-0.6831665,-0.46875,0.25,0.8125
146,-0.7624512,0.0053100586,-0.6951294,0.78125,0.515625,0.75
147,-0.7636719,0.0036010742,-0.69976807,0.359375,2.296875,0.78125
148,-0.7651367,-0.0010375977,-0.69610596,-0.578125,2.921875,0.625
149,-0.77124023,0.008483887,-0.67681885,-0.21875,4.40625,0.515625
150,-0.765625,0.012878418,-0.6643677,-0.21875,4.15625,-0.0625
151,-0.7714844,0.010437012,-0.66607666,-0.4375,3.15625,-0.25
152,-0.7770996,0.011169434,-0.6687622,-0.515625,1.8125,-0.1875
153,-0.77197266,0.015808105,-0.6729126,-0.53125,1.53125,0.1875
154,-0.7770996,0.004333496,-0.6724243,-0.890625,2.03125,0.5
155,-0.7697754,0.008483887,-0.6487427,-1.390625,1.125,0.5625
156,-0.7775879,0.007751465,-0.6694946,-0.921875,1.125,0.328125
157,-0.7751465,0.011413574,-0.6748657,-0.671875,0.890625,0.5625
158,-0.7714844,0.0036010742,-0.66363525,-1.25,1.21875,0.28125
159,-0.7807617,0.001159668,-0.66534424,-1.25,0.953125,-0.0625
160,-0.7817383,0.012634277,-0.6812134,-1.40625,1.0625,-0.109375
161,-0.7858887,0.0067749023,-0.66656494,-0.40625,2.75,0.484375
162,-0.7763672,0.0060424805,-0.6604614,0.65625,2.875,0.46875
163,-0.7705078,0.0067749023,-0.6609497,0.734375,2.71875,1.078125
164,-0.7832031,0.016540527,-0.64312744,2.515625,5.359375,1.015625
165,-0.80249023,0.026550293,-0.6577759,8.796875,9.796875,1.75
166,-0.7922363,-0.0049438477,-0.6445923,5.234375,5.828125,2.3125
167,-0.8066406,0.011413574,-0.6487427,2.15625,2.578125,1.5625
168,-0.798584,0.0119018555,-0.65338135,1.3125,2.828125,1.265625
169,-0.79052734,0.015319824,-0.6350708,1.046875,3.65625,0.71875
170,-0.8005371,0.01776123,-0.63604736,-0.703125,2.0625,0.578125
171,-0.8100586,0.01751709,-0.6436157,-0.5625,1.875,0.84375
172,-0.8059082,0.01751709,-0.63360596,0.265625,3.4375,0.796875
173,-0.8161621,0.024108887,-0.6362915,-0.140625,3.390625,0.734375
174,-0.8088379,0.013366699,-0.61602783,0.890625,2.8125,1.015625
175,-0.8076172,0.013122559,-0.62677,0.671875,1.03125,-0.578125
176,-0.81347656,0.019470215,-0.6309204,-0.640625,1.359375,-0.265625
177,-0.80859375,0.01727295,-0.6255493,-1.625,2.859375,0.953125
178,-0.81811523,0.030700684,-0.62506104,-0.75,3.765625,0.46875
179,-0.82666016,0.028015137,-0.61187744,-0.609375,4.265625,1.84375
180,-0.8239746,0.019226074,-0.5947876,-0.546875,4.09375,1.90625
181,-0.81811523,0.009460449,-0.59161377,-0.28125,1.9375,1.953125
182,-0.8405762,0.015563965,-0.6135864,-0.421875,1.25,1.8125
183,-0.8364258,0.015075684,-0.6069946,1.125,2.78125,1.65625
184,-0.7836914,0.02532959,-0.64434814,-0.21875,-1.765625,1.015625
185,-0.782959,0.016052246,-0.64508057,-1.640625,-3.875,0.8125
186,-0.78686523,0.019958496,-0.6404419,-3.390625,-7.75,-0.046875
187,-0.78100586,0.016784668,-0.6802368,-2.96875,-6.0625,-0.15625
188,-0.7702637,0.01751709,-0.67193604,-2.578125,-2.40625,-1.4375
189,-0.7832031,0.031677246,-0.6663208,-4.046875,0.078125,-0.90625
190,-0.78930664,0.019714355,-0.68756104,-3.0625,2.015625,-0.28125
191,-0.8029785,0.031188965,-0.6760864,-0.859375,4.59375,-0.046875
192,-0.77905273,0.0048217773,-0.66973877,0.125,6.171875,0.34375
193,-0.7668457,0.010437012,-0.63067627,0.296875,5.078125,-0.671875
194,-0.782959,0.011657715,-0.65582275,-1.6875,0.578125,-0.703125
195,-0.79467773,0.039489746,-0.62701416,1.34375,3.421875,-0.84375
196,-0.7746582,0.01776123,-0.6135864,-0.59375,0.09375,0.40625
197,-0.8063965,0.023132324,-0.6572876,-1.34375,-1.515625,0.53125
198,-0.8000488,0.03338623,-0.6692505,-1.375,-2.484375,0.71875
199,-0.7902832,0.035339355,-0.6670532,-1.90625,-0.53125,1.78125
200,-0.7753906,0.022155762,-0.65582275,0.265625,3.703125,2.140625
201,-0.7878418,0.0016479492,-0.6592407,-0.359375,2.734375,1.859375
202,-0.77783203,-0.003967285,-0.65704346,-0.546875,-0.0625,0.6875
203,-0.7897949,0.009460449,-0.65167236,-1.75,-0.75,0.546875
204,-0.78149414,0.008972168,-0.6460571,-0.765625,-1.515625,0.15625
205,-0.7631836,0.0065307617,-0.6602173,-1.359375,-3.15625,-0.4375
206,-0.7819824,0.008239746,-0.6687622,-1.953125,-3.0,-0.421875
207,-0.7807617,0.00091552734,-0.677063,-3.09375,-4.125,-0.84375
208,-0.79003906,0.015563965,-0.6885376,-2.171875,-1.984375,-0.828125
209,-0.7766113,0.018981934,-0.6860962,0.0,-0.015625,0.203125
210,-0.7609863,0.012145996,-0.66192627,-1.375,-0.4375,1.15625
211,-0.75,-0.006164551,-0.67022705,-1.046875,-2.59375,0.5
212,-0.7619629,-0.0044555664,-0.69122314,-1.671875,-3.90625,0.078125
213,-0.7705078,0.008239746,-0.6987915,-1.921875,-1.84375,-0.15625
214,-0.7675781,0.012878418,-0.7078247,-0.703125,1.125,-0.15625
215,-0.7602539,0.0021362305,-0.7058716,0.359375,4.75,0.3125
216,-0.7541504,-0.012512207,-0.69073486,-0.546875,3.84375,0.484375
217,-0.76049805,0.010681152,-0.6658325,-1.09375,2.734375,-0.1875
218,-0.7565918,0.0072631836,-0.66119385,-0.53125,0.75,-0.203125
219,-0.7631836,0.0079956055,-0.68096924,-0.84375,0.40625,0.0625
220,-0.7668457,0.0067749023,-0.6782837,-0.15625,1.234375,-0.03125
221,-0.7648926,0.010437012,-0.68463135,-0.625,0.625,0.0
222,-0.77612305,-0.007873535,-0.6980591,-1.953125,0.71875,0.109375
223,-0.7663574,0.008728027,-0.7144165,-3.046875,-1.671875,-0.21875
224,-0.7578125,0.010925293,-0.67266846,-3.125,0.515625,0.828125
225,-0.7270508,0.001159668,-0.64678955,-0.9375,3.890625,-0.078125
226,-0.7717285,0.0018920898,-0.6712036,-0.65625,0.03125,-0.625
227,-0.7766113,0.009216309,-0.68585205,0.21875,2.703125,0.609375
228,-0.782959,0.0021362305,-0.6843872,-0.96875,0.625,1.265625
229,-0.76904297,0.0004272461,-0.692688,-1.015625,-0.25,2.125
230,-0.7426758,-0.0025024414,-0.6668091,0.03125,-0.546875,1.25
231,-0.7529297,-0.018371582,-0.6716919,-2.53125,-2.734375,0.859375
232,-0.7548828,-0.028381348,-0.6773071,-4.890625,-6.875,-0.640625
233,-0.7758789,-0.0025024414,-0.7420044,-5.625,-7.734375,-1.125
234,-0.7512207,0.0045776367,-0.7144165,-1.96875,-0.90625,0.5625
235,-0.73876953,-0.011779785,-0.6633911,-1.265625,3.03125,0.15625
236,-0.7512207,-0.003967285,-0.69195557,1.34375,1.484375,-0.375
237,-0.75878906,0.010925293,-0.7371216,1.203125,1.5,1.046875
238,-0.74609375,0.0028686523,-0.7085571,0.890625,7.25,2.109375
239,-0.7385254,-0.022277832,-0.68048096,1.453125,6.34375,1.890625
240,-0.75390625,-0.030578613,-0.67266846,0.609375,2.75,0.421875
241,-0.7836914,-0.019348145,-0.69732666,-0.46875,-0.984375,-0.359375
242,-0.7746582,-0.0032348633,-0.70880127,-0.328125,2.375,-0.21875
243,-0.75439453,-0.0010375977,-0.68536377,0.84375,4.171875,-0.21875
244,-0.73583984,-0.00030517578,-0.6567993,2.1875,1.875,0.046875
245,-0.7397461,-0.005432129,-0.64678955,0.0,-0.921875,0.734375
246,-0.77734375,-0.021057129,-0.68951416,-3.375,-4.703125,1.046875
247,-0.78027344,-0.0154418945,-0.7241821,-2.9375,-2.78125,1.015625
248,-0.767334,-0.012268066,-0.72442627,1.421875,1.3125,0.15625
249,-0.7644043,-0.009338379,-0.69488525,1.015625,4.59375,-0.140625
250,-0.7451172,0.0016479492,-0.6790161,0.546875,3.609375,-0.796875
251,-0.7404785,-0.0012817383,-0.6860962,-1.015625,1.3125,-0.3125
252,-0.74902344,0.0033569336,-0.6524048,-1.890625,0.546875,0.234375
253,-0.76049805,-0.01763916,-0.6831665,-2.75,-2.453125,-0.140625
254,-0.77734375,-0.0115356445,-0.6917114,-1.453125,-1.640625,-0.125
255,-0.7661133,-0.009338379,-0.70806885,0.125,0.46875,0.296875
256,-0.75805664,0.0016479492,-0.6958618,1.0,2.046875,0.578125
257,-0.7590332,-0.005432129,-0.67852783,0.671875,-0.5625,1.296875
258,-0.7355957,-0.012268066,-0.68096924,0.3125,-2.25,1.015625
259,-0.75219727,-0.009094238,-0.6929321,-1.875,-2.609375,0.40625
260,-0.7446289,-0.00030517578,-0.7407837,-1.546875,-2.0625,0.546875
261,-0.76831055,0.007507324,-0.7131958,1.25,2.984375,1.46875
262,-0.7385254,-0.0115356445,-0.66534424,0.984375,3.53125,2.09375
263,-0.7272949,-0.016906738,-0.6621704,2.6875,3.359375,1.328125
264,-0.7492676,-0.02911377,-0.7227173,1.0625,0.546875,0.46875
265,-0.77441406,0.0026245117,-0.7107544,0.3125,2.8125,0.296875
266,-0.7727051,-0.006164551,-0.7178345,1.15625,7.234375,0.390625
267,-0.7717285,-0.002746582,-0.68463135,1.859375,8.21875,0.171875
268,-0.7590332,-0.0178833,-0.647522,1.9375,6.625,-0.703125
269,-0.7734375,-0.0025024414,-0.6592407,-1.203125,1.21875,-1.453125
270,-0.779541,-0.0020141602,-0.69415283,-1.96875,0.421875,-1.6875
271,-0.7739258,0.003112793,-0.67022705,-1.421875,2.28125,-1.046875
272,-0.76220703,0.012878418,-0.6616821,-2.0,2.8125,-0.484375
273,-0.77563477,0.0033569336,-0.66534424,-1.890625,2.203125,0.0
274,-0.77441406,0.0067749023,-0.6589966,-0.328125,2.234375,-0.4375
275,-0.77563477,0.009460449,-0.6572876,0.0625,0.984375,-0.765625
276,-0.7819824,0.0119018555,-0.6460571,1.6875,1.03125,-0.671875
277,-0.7783203,0.022399902,-0.6255493,4.15625,1.59375,-0.453125
278,-0.7961426,0.008239746,-0.68414307,0.6875,-3.203125,0.859375
279,-0.7922363,0.012878418,-0.69488525,-0.015625,-2.671875,2.140625
280,-0.767334,0.007019043,-0.6819458,1.171875,0.359375,1.65625
281,-0.7524414,0.002380371,-0.67144775,2.890625,1.3125,0.8125
282,-0.74487305,-0.003479004,-0.6836548,0.109375,0.640625,-0.984375
283,-0.7741699,0.02532959,-0.6716919,-1.25,0.890625,-1.140625
284,-0.77856445,0.020202637,-0.6868286,-1.546875,1.3125,-0.78125
285,-0.779541,0.011657715,-0.6734009,-1.65625,3.03125,-0.046875
286,-0.78564453,0.008972168,-0.6699829,-2.03125,1.59375,0.265625
287,-0.7819824,0.026550293,-0.66119385,-1.546875,0.828125,0.609375
288,-0.7702637,0.012634277,-0.65460205,-1.765625,1.0,0.828125
289,-0.7763672,0.0119018555,-0.6651001,-1.109375,0.03125,0.828125
290,-0.76904297,0.009216309,-0.66534424,-1.421875,-0.84375,0.828125
291,-0.7729492,0.00091552734,-0.66729736,-0.5,0.96875,0.90625
292,-0.7746582,0.005065918,-0.6795044,-0.203125,-0.03125,0.3125
293,-0.782959,0.0067749023,-0.6824341,-0.859375,0.625,0.203125
294,-0.76708984,0.01361084,-0.6958618,-1.1875,0.921875,0.25
295,-0.7663574,0.0065307617,-0.69000244,-0.875,1.8125,-0.1875
296,-0.77319336,0.0036010742,-0.6836548,-2.046875,1.171875,-0.296875
297,-0.7722168,0.0045776367,-0.6819458,-1.421875,2.09375,-0.03125
298,-0.77563477,0.00970459,-0.63238525,1.125,3.265625,-0.25
299,-0.7783203,0.012390137,-0.65411377,1.484375,2.359375,-0.40625
300,-0.77905273,0.016052246,-0.65997314,-0.96875,-0.53125,0.234375
301,-0.78515625,0.007507324,-0.6838989,-1.703125,-0.0625,1.15625
302,-0.78637695,0.007751465,-0.6746216,-0.203125,1.578125,0.984375
303,-0.77075195,-0.0017700195,-0.6668091,-0.03125,2.0,0.359375
304,-0.7751465,0.0048217773,-0.6729126,-0.75,1.265625,0.671875
305,-0.78271484,0.008239746,-0.65704346,-1.09375,1.4375,0.375
306,-0.7817383,0.007019043,-0.6524048,-1.171875,0.765625,0.578125
307,-0.7788086,0.0036010742,-0.6604614,-0.984375,0.578125,0.328125
308,-0.78881836,0.0014038086,-0.6548462,-0.53125,0.4375,0.484375
309,-0.78393555,0.005554199,-0.67144775,-0.21875,-0.296875,0.46875
310,-0.779541,0.007751465,-0.67437744,-0.625,-0.109375,0.390625
311,-0.78125,0.007507324,-0.65948486,-0.46875,0.109375,0.53125
312,-0.77783203,0.012390137,-0.6724243,-0.296875,0.375,0.515625
313,-0.77685547,0.0065307617,-0.6729126,-0.46875,0.25,0.359375
314,-0.7780762,0.0006713867,-0.6748657,-1.34375,0.75,0.609375
315,-0.7766113,0.00091552734,-0.6663208,-0.71875,1.328125,0.484375
316,-0.7766113,0.0067749023,-0.6748657,0.9375,2.03125,0.6875
317,-0.7800293,-0.0005493164,-0.6795044,-0.140625,1.859375,0.640625
318,-0.78564453,-0.0020141602,-0.6668091,-0.59375,1.984375,0.859375
319,-0.7807617,-0.008850098,-0.678772,-0.28125,2.046875,0.15625
320,-0.77563477,0.0006713867,-0.6651001,-0.515625,1.984375,-0.015625
321,-0.78125,-0.0025024414,-0.66485596,-1.984375,0.890625,-0.421875
322,-0.798584,0.005065918,-0.6499634,-1.390625,1.875,-0.390625
323,-0.78930664,0.0036010742,-0.6643677,-1.234375,1.921875,0.46875
324,-0.7866211,0.0067749023,-0.6592407,-0.203125,1.828125,0.734375
325,-0.7836914,0.008972168,-0.6433716,0.890625,2.0,0.65625
326,-0.7780762,-0.003479004,-0.65582275,0.671875,0.375,0.203125
327,-0.7832031,-0.0032348633,-0.6555786,-0.234375,-0.703125,-0.171875
328,-0.7907715,0.0045776367,-0.6765747,-0.796875,-0.671875,-0.171875
329,-0.79296875,0.0099487305,-0.66656494,-0.15625,1.9375,0.359375
330,-0.78466797,0.009460449,-0.6526489,0.953125,3.171875,0.765625
331,-0.7792969,0.010437012,-0.65509033,2.390625,4.484375,0.359375
332,-0.79345703,0.0026245117,-0.6592407,1.59375,4.453125,0.390625
333,-0.7907715,0.0079956055,-0.6465454,1.5,2.9375,0.03125
334,-0.7963867,0.0036010742,-0.64385986,1.96875,3.328125,0.359375
335,-0.80810547,0.014343262,-0.65411377,-0.953125,1.5625,0.671875
336,-0.8000488,0.014343262,-0.6331177,-0.140625,2.90625,1.03125
337,-0.78759766,0.0004272461,-0.6350708,-1.484375,1.578125,1.140625
338,-0.79296875,0.007019043,-0.63897705,-2.328125,-0.546875,0.546875
339,-0.79833984,0.020446777,-0.64434814,-1.703125,-0.109375,0.5
340,-0.80249023,0.010681152,-0.6572876,-1.75,0.84375,0.703125
341,-0.7980957,0.0033569336,-0.6494751,-0.859375,1.8125,0.171875
342,-0.8034668,-0.0015258789,-0.6370239,-1.40625,1.578125,0.140625
343,-0.796875,0.001159668,-0.6213989,-1.53125,0.625,0.09375
344,-0.79296875,0.0018920898,-0.6345825,-2.3125,-1.15625,-0.4375
345,-0.8022461,0.0060424805,-0.6370239,-2.359375,-2.25,-0.328125
346,-0.79833984,0.0067749023,-0.6604614,-1.3125,-1.78125,0.140625
347,-0.79345703,0.005065918,-0.65948486,-0.859375,-0.484375,0.3125
348,-0.7949219,0.0072631836,-0.6526489,-0.71875,0.265625,0.296875
349,-0.78637695,-0.0068969727,-0.6506958,-1.125,0.5625,0.734375
350,-0.78759766,-0.0012817383,-0.6470337,-1.390625,0.359375,0.109375
351,-0.7949219,0.00091552734,-0.6687622,-0.421875,2.421875,-0.078125
352,-0.81225586,0.0099487305,-0.67510986,3.703125,8.0,0.015625
353,-0.81518555,0.010925293,-0.64923096,7.609375,8.484375,0.296875
354,-0.8046875,0.018737793,-0.6157837,7.9375,7.59375,0.15625
355,-0.7956543,0.01751709,-0.61065674,5.21875,5.140625,0.25
356,-0.80810547,0.026550293,-0.6026001,1.625,2.5625,-0.1875
357,-0.8076172,0.02166748,-0.6135864,-1.390625,0.0,-0.484375
358,-0.81933594,0.039001465,-0.61431885,-2.5625,-2.03125,-0.09375
359,-0.8149414,0.043884277,-0.6133423,-1.5,-1.59375,0.53125
360,-0.8208008,0.02142334,-0.6309204,-2.09375,-2.609375,1.640625
361,-0.8022461,0.0119018555,-0.6338501,-1.671875,-2.8125,1.15625
362,-0.8095703,0.023376465,-0.6506958,-2.109375,-3.140625,0.8125
363,-0.8078613,0.016784668,-0.6626587,-2.546875,-3.171875,0.671875
364,-0.798584,0.012145996,-0.64263916,-1.21875,-1.296875,-0.03125
365,-0.79833984,0.015075684,-0.64556885,-0.484375,-0.484375,-0.453125
366,-0.7944336,0.018493652,-0.6453247,-0.28125,0.546875,0.015625
367,-0.7832031,0.020202637,-0.6326294,0.421875,0.671875,0.0625
368,-0.78393555,0.017028809,-0.63482666,-1.0,-0.703125,-0.515625
369,-0.79541016,0.012390137,-0.6448364,-2.75,-1.234375,0.203125
370,-0.80200195,0.015563965,-0.6621704,-4.28125,-3.015625,0.25
371,-0.8183594,0.028259277,-0.6721802,-1.890625,-1.53125,0.78125
372,-0.7878418,0.0053100586,-0.65997314,-0.796875,0.015625,0.8125
373,-0.7800293,0.011413574,-0.6567993,-1.765625,-0.734375,0.9375
374,-0.7504883,0.0072631836,-0.6375122,-1.5,0.734375,0.671875
375,-0.7836914,0.00091552734,-0.63409424,0.453125,-0.890625,-0.03125
376,-0.77490234,0.001159668,-0.6819458,-0.578125,-3.0625,-0.328125
377,-0.7932129,0.015563965,-0.6826782,-0.390625,-1.984375,0.234375
378,-0.78393555,0.018737793,-0.68927,-0.78125,-0.71875,1.3125
379,-0.7817383,0.007751465,-0.6748657,-0.015625,1.703125,1.0625
380,-0.7817383,0.0016479492,-0.6716919,-0.765625,1.234375,0.921875
381,-0.7717285,0.007751465,-0.66778564,-1.390625,0.078125,0.578125
382,-0.7680664,-0.0017700195,-0.66607666,-2.375,1.578125,0.65625
383,-0.7746582,0.002380371,-0.64801025,-0.25,0.59375,-0.09375
384,-0.78393555,0.0060424805,-0.6724243,0.5,-0.484375,-0.1875
385,-0.76538086,0.010925293,-0.6814575,0.1875,0.265625,-0.078125
386,-0.77246094,0.009216309,-0.6807251,-1.59375,0.328125,0.09375
387,-0.77563477,0.00091552734,-0.6880493,-1.265625,1.625,0.328125
388,-0.7687988,0.007507324,-0.67559814,-0.03125,1.421875,-0.328125
389,-0.7746582,0.007019043,-0.6680298,-1.25,0.234375,-0.484375
390,-0.7800293,0.018249512,-0.67266846,-0.734375,1.0625,0.203125
391,-0.78027344,0.009460449,-0.6651001,-0.09375,2.15625,0.84375
392,-0.77197266,0.0060424805,-0.66119385,0.3125,1.5,1.046875
393,-0.77563477,0.001159668,-0.66973877,0.0625,1.140625,0.640625
394,-0.7783203,0.0018920898,-0.6721802,-0.625,0.046875,1.0
395,-0.7722168,-0.005432129,-0.6694946,-0.75,0.8125,0.671875
396,-0.7729492,-0.0020141602,-0.6682739,-0.96875,-0.203125,-0.03125
397,-0.779541,0.006286621,-0.678772,-0.328125,-0.125,-0.03125
398,-0.7770996,0.0072631836,-0.67974854,0.453125,1.953125,0.015625
399,-0.7734375,0.0119018555,-0.68048096,0.0625,3.09375,0.21875
400,-0.77124023,0.007507324,-0.66290283,-0.59375,3.234375,0.40625
401,-0.7687988,0.008239746,-0.66412354,-0.453125,2.328125,0.453125
402,-0.77319336,0.0016479492,-0.6536255,-1.03125,1.890625,0.0625
403,-0.7817383,0.0036010742,-0.6502075,-2.90625,-0.484375,-0.140625
404,-0.78686523,-0.0049438477,-0.66412354,-2.1875,0.5,0.015625
405,-0.7836914,-0.0020141602,-0.66851807,0.296875,2.484375,-0.421875
406,-0.7858887,-0.0076293945,-0.6746216,-0.953125,1.8125,-0.5
407,-0.7871094,0.0099487305,-0.65460205,-1.3125,0.75,-0.4375
408,-0.7915039,0.0138549805,-0.6589966,-1.515625,0.53125,0.328125
409,-0.78344727,0.0028686523,-0.6609497,-0.921875,-0.046875,0.390625
410,-0.7807617,0.008239746,-0.6626587,-0.984375,-0.578125,0.171875
411,-0.7758789,0.005065918,-0.6589966,-0.875,-0.78125,0.546875
412,-0.7734375,-0.00592041,-0.6643677,-0.703125,-0.640625,0.375
413,-0.7817383,-6.1035156e-05,-0.67852783,-0.53125,-0.390625,0.21875
414,-0.782959,0.0060424805,-0.6826782,-0.828125,0.0,0.578125
415,-0.77783203,0.0028686523,-0.66656494,-0.171875,1.484375,0.625
416,-0.77490234,-0.004211426,-0.6680298,-0.578125,0.6875,0.53125
417,-0.7753906,0.00018310547,-0.66290283,-0.65625,-0.125,0.234375
418,-0.7866211,0.008972168,-0.6609497,-0.75,-1.453125,0.109375
419,-0.76904297,0.014831543,-0.69366455,-0.421875,-0.25,0.234375
420,-0.7609863,-6.1035156e-05,-0.67022705,-1.65625,2.984375,1.125
421,-0.7685547,-0.018859863,-0.6524048,-1.46875,2.03125,0.78125
422,-0.77685547,-0.0095825195,-0.6699829,-0.59375,-0.765625,-0.546875
423,-0.77856445,-0.006652832,-0.68463135,-1.328125,-2.375,-0.5
424,-0.7788086,-0.0020141602,-0.6897583,-2.046875,-1.90625,-0.453125
425,-0.7573242,0.007019043,-0.68951416,-1.265625,-0.84375,0.109375
426,-0.76953125,0.0016479492,-0.66192627,-1.390625,0.28125,0.671875
427,-0.7583008,-0.0029907227,-0.6704712,-0.75,-0.59375,0.890625
428,-0.76464844,-0.0029907227,-0.67755127,-0.46875,-1.328125,1.453125
429,-0.7680664,-0.020568848,-0.6939087,-0.5,-1.203125,1.75
430,-0.75683594,-0.0076293945,-0.7007446,-0.75,-2.125,1.0625
431,-0.7590332,0.002380371,-0.69537354,0.171875,-0.296875,1.234375
432,-0.7636719,-0.02178955,-0.70269775,-0.4375,1.046875,1.421875
433,-0.74609375,-0.021057129,-0.6836548,0.484375,1.546875,-0.046875
434,-0.77197266,-0.0005493164,-0.67852783,1.265625,2.421875,-0.453125
435,-0.76293945,-0.014953613,-0.69610596,-0.921875,2.03125,0.140625
436,-0.7626953,-0.018371582,-0.68927,-1.125,0.265625,-0.734375
437,-0.76538086,-0.011047363,-0.7000122,-1.015625,0.421875,-1.40625
438,-0.765625,0.00579834,-0.6963501,-1.578125,0.46875,-1.125
439,-0.7558594,0.0036010742,-0.6807251,-1.90625,1.140625,-0.484375
440,-0.765625,0.0099487305,-0.6782837,-0.921875,1.875,-0.3125
441,-0.7585449,-0.0064086914,-0.67559814,-1.109375,3.03125,0.75
442,-0.7675781,0.00091552734,-0.67071533,-1.046875,2.9375,0.328125
443,-0.7714844,-0.0076293945,-0.6734009,-1.21875,0.375,0.28125
444,-0.76538086,-0.0068969727,-0.68096924,0.25,0.96875,0.546875
445,-0.7619629,-0.02154541,-0.67852783,-0.40625,0.75,0.296875
446,-0.7734375,-0.004699707,-0.6968384,0.046875,0.671875,0.671875
447,-0.7648926,-0.005432129,-0.68634033,0.328125,2.0,0.53125
448,-0.76708984,-0.012023926,-0.6826782,-0.9375,2.671875,0.3125
449,-0.76342773,-0.0049438477,-0.6655884,-0.96875,2.484375,0.09375
450,-0.77001953,-0.003479004,-0.6633911,-0.5625,1.390625,0.078125
451,-0.77905273,-0.0044555664,-0.6592407,-0.421875,0.59375,0.015625
452,-0.77441406,-0.010559082,-0.67266846,-1.0625,-0.953125,0.453125
453,-0.78100586,-0.013977051,-0.6836548,-0.484375,-0.796875,0.53125
454,-0.77075195,-0.007873535,-0.6851196,-0.34375,-0.796875,0.78125
455,-0.7536621,-0.020812988,-0.68048096,0.1875,0.640625,0.6875
456,-0.76586914,-0.010314941,-0.6934204,-1.21875,-0.859375,0.734375
457,-0.76904297,-0.018127441,-0.68707275,-1.953125,-1.234375,0.53125
458,-0.7595215,-0.014953613,-0.68634033,-0.890625,-1.75,-0.09375
459,-0.765625,-0.015930176,-0.7041626,-1.0,-1.625,0.0625
460,-0.77124023,-0.0056762695,-0.7053833,-0.28125,0.296875,0.390625
461,-0.76000977,0.0028686523,-0.7012329,0.265625,2.046875,0.53125
462,-0.75390625,-0.0020141602,-0.692688,0.4375,2.8125,1.296875
463,-0.7519531,-0.018127441,-0.6741333,-0.875,1.875,0.828125
464,-0.7631836,-0.0134887695,-0.6782837,-0.8125,0.46875,0.484375
465,-0.7578125,-0.014709473,-0.70562744,-0.328125,0.90625,0.265625
466,-0.7685547,-0.003479004,-0.6897583,0.625,3.890625,0.203125
467,-0.7614746,-0.007873535,-0.6795044,1.109375,4.421875,0.46875
468,-0.75878906,-0.007385254,-0.6687622,1.265625,4.0,0.375
469,-0.77563477,-0.016418457,-0.66070557,0.265625,2.609375,0.015625
470,-0.7836914,-0.002746582,-0.67388916,0.046875,0.671875,-0.46875
471,-0.7854004,-0.00592041,-0.69000244,0.390625,0.9375,-0.375
472,-0.7746582,0.010681152,-0.6741333,1.859375,2.90625,0.390625
473,-0.7597656,-0.004699707,-0.65509033,2.109375,4.515625,0.25
474,-0.7734375,-0.0032348633,-0.64923096,0.65625,2.25,0.0625
475,-0.7780762,-0.012023926,-0.6670532,0.28125,-0.03125,0.0625
476,-0.78393555,0.0021362305,-0.66973877,0.0,-0.578125,-0.375
477,-0.77905273,0.011657715,-0.67388916,-0.390625,-0.703125,-0.09375
478,-0.78564453,0.010437012,-0.67681885,0.265625,0.796875,0.0
479,-0.77783203,0.014099121,-0.66778564,0.515625,1.734375,0.28125
480,-0.77905273,0.011169434,-0.6694946,0.015625,1.875,0.453125
481,-0.76953125,0.00579834,-0.65802,-0.875,1.015625,0.234375
482,-0.78393555,0.0079956055,-0.66729736,-1.28125,-0.609375,0.328125
483,-0.77075195,0.001159668,-0.67437744,-1.4375,-0.515625,0.125
484,-0.77001953,0.0016479492,-0.6721802,-1.0,1.046875,0.046875
485,-0.7766113,0.009460449,-0.66119385,-1.703125,-0.25,0.34375
486,-0.77197266,0.00579834,-0.6646118,-1.625,-0.859375,0.265625
487,-0.7614746,-0.0037231445,-0.6814575,-1.453125,-0.890625,0.03125
488,-0.7805176,-0.0012817383,-0.6814575,-1.71875,-0.875,-0.203125
489,-0.77856445,0.00579834,-0.65997314,-0.796875,-0.171875,-0.078125
490,-0.77978516,0.0004272461,-0.6716919,-1.171875,1.359375,-0.28125
491,-0.78393555,-0.004211426,-0.6790161,-0.921875,2.171875,0.203125
492,-0.7697754,0.018005371,-0.69659424,0.8125,3.671875,0.375
493,-0.7705078,0.0004272461,-0.64508057,-0.046875,4.40625,1.25
494,-0.7480469,-0.0071411133,-0.6436157,-0.703125,3.390625,1.28125
495,-0.7709961,-0.017150879,-0.65875244,-1.40625,-1.421875,-0.203125
496,-0.79711914,-0.006652832,-0.6819458,-1.0625,-1.703125,-1.234375
497,-0.78930664,0.008483887,-0.69732666,-0.609375,-0.25,-0.8125
498,-0.7805176,0.012390137,-0.6773071,-0.265625,2.375,0.515625
499,-0.76953125,-0.00079345703,-0.65509033,0.484375,3.703125,1.171875
500,-0.765625,-0.0032348633,-0.66363525,-0.390625,2.4375,0.59375
501,-0.7780762,-0.0095825195,-0.6577759,-0.796875,0.96875,0.078125
502,-0.7890625,0.007019043,-0.6621704,-0.546875,0.984375,0.3125
503,-0.77856445,0.00091552734,-0.6609497,0.109375,2.8125,0.3125
504,-0.7697754,0.0014038086,-0.6489868,0.140625,3.625,0.234375
505,-0.7849121,-0.006652832,-0.6482544,-1.328125,1.3125,0.234375
506,-0.79052734,0.0006713867,-0.65704346,-1.625,-1.6875,0.328125
507,-0.78515625,-0.003967285,-0.6838989,-0.46875,-1.796875,0.171875
508,-0.78271484,0.005554199,-0.6970825,-0.53125,-1.546875,0.140625
509,-0.7758789,0.0099487305,-0.6748657,-0.984375,0.375,0.984375
510,-0.76904297,0.004333496,-0.6643677,0.203125,1.265625,0.75
511,-0.7734375,-0.010070801,-0.6716919,0.0,0.734375,0.734375
512,-0.782959,-0.004699707,-0.6765747,-0.21875,0.40625,0.296875
513,-0.79003906,0.011169434,-0.6980591,-0.078125,1.5625,0.265625
514,-0.77368164,0.009460449,-0.6626587,1.171875,4.796875,1.0625
515,-0.7722168,-0.002746582,-0.64923096,1.109375,3.875,1.390625
516,-0.7734375,-0.006164551,-0.64312744,-0.484375,1.953125,0.8125
517,-0.7956543,-0.0068969727,-0.66192627,-1.203125,-0.171875,0.125
518,-0.7988281,0.0014038086,-0.68170166,-1.90625,-0.34375,-0.140625
519,-0.7944336,0.0053100586,-0.66778564,-0.671875,1.46875,-0.3125
520,-0.7770996,0.0065307617,-0.64849854,-0.234375,1.84375,0.296875
521,-0.7739258,0.002380371,-0.64312744,-0.546875,1.328125,0.46875
522,-0.7800293,-0.0022583008,-0.6487427,-1.046875,0.0,0.34375
523,-0.796875,-0.0068969727,-0.66656494,-0.9375,-0.65625,0.296875
524,-0.7949219,-0.0020141602,-0.66729736,-0.125,0.328125,0.375
525,-0.78222656,0.0119018555,-0.6680298,0.5625,1.171875,1.1875
526,-0.77441406,0.013122559,-0.6370239,-0.5625,1.0625,2.640625
527,-0.77319336,-0.0032348633,-0.65338135,-1.390625,0.546875,4.609375
528,-0.77441406,-0.010314941,-0.66778564,-2.09375,1.25,5.171875
529,-0.7849121,-0.013000488,-0.6663208,-1.140625,2.015625,4.03125
530,-0.7963867,-0.020080566,-0.66607666,-1.5,1.734375,3.140625
531,-0.7988281,-0.024963379,-0.6602173,-0.890625,3.125,2.78125
532,-0.7973633,-0.027648926,-0.659729,0.5,3.0625,1.984375
533,-0.7961426,-0.024963379,-0.6499634,0.4375,2.515625,1.1875
534,-0.78564453,-0.03277588,-0.6477661,2.25,1.859375,0.765625
535,-0.7780762,-0.038146973,-0.65460205,0.515625,-0.25,0.171875
536,-0.78466797,-0.019104004,-0.6592407,-0.34375,-1.0,-0.3125
537,-0.78271484,-0.02520752,-0.6567993,-1.34375,-1.1875,-0.296875
538,-0.7866211,-0.02520752,-0.65802,-2.546875,-0.703125,-0.0625
539,-0.7858887,-0.034240723,-0.6609497,-2.25,1.1875,-0.5
540,-0.79296875,-0.024963379,-0.663147,-0.90625,2.203125,-1.390625
541,-0.79467773,-0.020080566,-0.64727783,-0.140625,2.859375,-1.78125
542,-0.79174805,-0.0256958,-0.6489868,0.359375,1.4375,-2.34375
543,-0.79833984,-0.016418457,-0.6531372,-0.359375,1.1875,-2.296875
544,-0.7988281,-0.016418457,-0.65289307,0.390625,-0.21875,-1.15625
545,-0.7783203,-0.012268066,-0.63946533,-0.4375,0.015625,-1.5625
546,-0.7751465,-0.007385254,-0.63653564,-2.375,-0.84375,-1.96875
547,-0.78271484,0.0045776367,-0.6538696,-2.5,-2.046875,-1.359375
548,-0.79296875,-6.1035156e-05,-0.661438,-2.828125,-1.21875,0.1875
549,-0.7961426,-0.0017700195,-0.66607666,-2.53125,0.390625,1.203125
550,-0.78637695,-0.008850098,-0.66119385,-0.5,1.515625,1.15625
551,-0.78393555,-0.014709473,-0.6482544,0.375,0.65625,1.546875
552,-0.78100586,-0.028625488,-0.65948486,-0.40625,-1.203125,0.921875
553,-0.79003906,-0.026672363,-0.6658325,-0.65625,-2.796875,0.5
554,-0.7910156,-0.008605957,-0.67266846,-1.3125,-4.40625,0.96875
555,-0.77490234,-0.0178833,-0.68414307,-0.484375,-1.375,1.515625
556,-0.76831055,-0.024475098,-0.66973877,0.484375,0.203125,0.484375
557,-0.7614746,-0.016174316,-0.6782837,0.359375,-0.0625,0.40625
558,-0.7626953,-0.023254395,-0.6782837,0.40625,0.46875,-0.671875
559,-0.7751465,-0.013000488,-0.68292236,-1.015625,0.15625,-0.9375
560,-0.77441406,-0.008117676,-0.6831665,-2.859375,0.28125,-0.0625
561,-0.77490234,-0.02154541,-0.6843872,-1.21875,2.03125,0.359375
562,-0.7763672,-0.023742676,-0.6802368,-0.203125,1.703125,0.375
563,-0.7819824,-0.012268066,-0.66973877,-0.125,1.203125,0.140625
564,-0.779541,-0.013000488,-0.6668091,-0.765625,-0.28125,0.078125
565,-0.77197266,-0.013244629,-0.6729126,-0.78125,0.734375,0.328125
566,-0.7692871,-0.020568848,-0.6795044,-0.484375,0.703125,0.609375
567,-0.76953125,-0.0095825195,-0.67559814,-1.453125,0.390625,1.125
568,-0.76342773,-0.027648926,-0.67388916,-0.984375,0.703125,1.59375
569,-0.76831055,-0.03741455,-0.6709595,-1.3125,1.21875,0.703125
570,-0.7775879,-0.020812988,-0.6758423,0.328125,0.796875,-0.890625
571,-0.78271484,-0.01373291,-0.66851807,-0.421875,0.125,-0.015625
572,-0.7753906,-0.018371582,-0.673645,-0.8125,0.578125,0.671875
573,-0.7729492,-0.014465332,-0.69537354,-1.078125,1.3125,0.875
574,-0.7800293,-0.019104004,-0.678772,-1.171875,2.71875,0.65625
575,-0.7578125,-0.03302002,-0.6643677,0.71875,3.625,0.046875
576,-0.77001953,-0.029846191,-0.66412354,0.46875,2.359375,-0.875
577,-0.7866211,-0.01739502,-0.66070557,-1.03125,1.03125,0.015625
578,-0.78149414,-0.008605957,-0.65216064,-0.578125,1.640625,0.140625
579,-0.78466797,-0.013977051,-0.67022705,-0.65625,1.25,0.140625
580,-0.78271484,-0.008605957,-0.67315674,-0.78125,1.53125,0.375
581,-0.78222656,-0.020568848,-0.67388916,-0.375,1.75,0.375
582,-0.779541,-0.015686035,-0.6682739,-0.390625,1.6875,0.5
583,-0.7661133,-0.018615723,-0.6633911,-0.671875,1.5625,0.46875
584,-0.7800293,-0.023010254,-0.66290283,-0.984375,1.5625,0.640625
585,-0.77490234,-0.022521973,-0.65875244,-0.625,0.625,0.328125
586,-0.7866211,-0.018127441,-0.6651001,-0.53125,1.125,0.015625
587,-0.7832031,-0.02178955,-0.6655884,-0.546875,0.859375,0.140625
588,-0.7836914,-0.015930176,-0.6531372,-0.328125,1.09375,0.203125
589,-0.7819824,-0.02130127,-0.67266846,-0.890625,0.953125,0.359375
590,-0.78637695,-0.019104004,-0.66412354,-0.75,1.359375,0.265625
591,-0.7807617,-0.018615723,-0.66192627,0.125,1.453125,0.421875
592,-0.76538086,-0.02960205,-0.6543579,-0.109375,1.890625,0.34375
593,-0.78149414,-0.016418457,-0.6487427,-1.09375,0.734375,0.265625
594,-0.7800293,-0.02545166,-0.6651001,-0.953125,0.203125,0.5625
595,-0.77905273,-0.016906738,-0.6626587,-0.234375,0.203125,0.265625
596,-0.78686523,-0.018127441,-0.6692505,-0.421875,0.421875,0.0
597,-0.7885742,-0.018371582,-0.661438,-0.421875,0.796875,0.015625
598,-0.78930664,-0.012756348,-0.67144775,-0.59375,1.625,0.296875
599,-0.7895508,-0.027404785,-0.66485596,-0.671875,1.5625,0.5625
600,-0.78125,-0.018859863,-0.6565552,-0.71875,1.65625,0.421875
601,-0.7780762,-0.02154541,-0.6499634,-0.875,0.375,0.78125
602,-0.77685547,-0.023742676,-0.6567993,-1.09375,-0.40625,0.546875
603,-0.78125,-0.023254395,-0.6609497,-0.1875,0.640625,-0.03125
604,-0.79248047,-0.018127441,-0.6643677,-0.40625,0.53125,0.125
605,-0.7883301,-0.024719238,-0.66363525,-0.453125,1.296875,0.359375
606,-0.79296875,-0.023986816,-0.6609497,-0.65625,1.421875,0.328125
607,-0.7800293,-0.020324707,-0.6704712,-0.953125,1.1875,0.5625
608,-0.78466797,-0.020324707,-0.6514282,-0.09375,1.453125,0.703125
609,-0.76953125,-0.033996582,-0.66192627,-0.390625,1.25,0.265625
610,-0.7871094,-0.015930176,-0.65802,-1.0625,0.984375,0.265625
611,-0.7844238,-0.024963379,-0.6616821,-1.171875,1.40625,0.796875
612,-0.78466797,-0.031799316,-0.6687622,0.09375,2.546875,0.40625
613,-0.7858887,-0.023742676,-0.6663208,0.15625,1.890625,0.0
614,-0.79345703,-0.019592285,-0.66534424,-0.21875,1.859375,0.21875
615,-0.79541016,-0.018127441,-0.6553345,-0.90625,2.21875,0.828125
616,-0.78466797,-0.022766113,-0.6482544,-0.265625,2.4375,1.03125
617,-0.7897949,-0.022277832,-0.64801025,-0.328125,2.046875,0.71875
618,-0.79248047,-0.022033691,-0.64312744,-0.078125,0.984375,1.109375
619,-0.7897949,-0.028625488,-0.6536255,-0.75,-0.046875,0.375
620,-0.79589844,-0.02545166,-0.64971924,-0.296875,0.046875,0.09375
621,-0.79345703,-0.026672363,-0.64971924,-0.453125,0.609375,0.125
622,-0.7944336,-0.0256958,-0.6626587,-0.78125,0.546875,0.40625
623,-0.7895508,-0.02130127,-0.65460205,-0.828125,0.984375,0.625
624,-0.7890625,-0.02520752,-0.659729,-0.328125,1.3125,0.453125
625,-0.7907715,-0.022277832,-0.6399536,0.4375,1.515625,0.15625
626,-0.79589844,-0.027648926,-0.65093994,0.9375,1.515625,0.046875
627,-0.80078125,-0.016174316,-0.65875244,1.328125,2.90625,-0.1875
628,-0.8027344,-0.011779785,-0.6502075,3.40625,4.21875,1.078125
629,-0.7961426,-0.014465332,-0.6292114,3.140625,2.28125,0.5
630,-0.7902832,-0.022277832,-0.642395,0.765625,0.453125,0.640625
631,-0.79418945,-0.0064086914,-0.6436157,0.359375,-0.484375,0.21875
632,-0.8017578,-0.013977051,-0.647522,0.4375,-0.25,0.578125
633,-0.795166,-0.016174316,-0.64801025,-0.0625,-0.703125,0.828125
634,-0.78393555,-0.013000488,-0.645813,-0.765625,-0.65625,0.328125
635,-0.7980957,-0.013244629,-0.64923096,-0.4375,-1.65625,0.09375
636,-0.7885742,-0.014953613,-0.6565552,-0.5,-2.15625,-0.234375
637,-0.7963867,-0.00592041,-0.6577759,-0.109375,-1.546875,-0.265625
638,-0.78564453,-0.0049438477,-0.6626587,-0.078125,-1.6875,-0.09375
639,-0.7897949,-0.008605957,-0.659729,0.453125,-0.96875,0.15625
640,-0.78149414,-0.007385254,-0.66534424,-0.3125,-1.015625,0.4375
641,-0.7807617,-0.0068969727,-0.6651001,-0.421875,-1.0,0.5
642,-0.77197266,-0.0049438477,-0.66290283,-1.203125,-0.671875,0.921875
643,-0.7758789,-0.009094238,-0.6716919,-2.0625,-0.765625,1.0625
644,-0.7819824,-0.014221191,-0.67755127,-2.265625,0.328125,1.46875
645,-0.7717285,-0.022033691,-0.67193604,-0.9375,1.0625,0.78125
646,-0.7800293,-0.022277832,-0.66070557,-0.171875,0.5625,-0.3125
647,-0.7753906,-0.011291504,-0.678772,0.21875,0.40625,-0.625
648,-0.78930664,-0.013244629,-0.67071533,-0.1875,0.609375,-0.453125
649,-0.78271484,0.0006713867,-0.6721802,-0.21875,0.703125,-0.375
650,-0.7783203,-0.0044555664,-0.6746216,-0.578125,1.265625,0.140625
651,-0.7739258,-0.0044555664,-0.6577759,-1.203125,0.84375,0.484375
652,-0.7702637,-0.012512207,-0.6704712,-0.703125,0.71875,0.78125
653,-0.77246094,-0.014709473,-0.67266846,-1.0,0.84375,0.90625
654,-0.77197266,-0.0095825195,-0.6633911,-0.546875,1.046875,0.1875
655,-0.7805176,-0.013977051,-0.68414307,-0.296875,1.234375,0.0625
656,-0.7766113,-0.010559082,-0.6721802,-0.4375,2.03125,0.203125
657,-0.7709961,-0.015197754,-0.6687622,-0.296875,1.890625,-0.03125
658,-0.7817383,-0.009094238,-0.6663208,-0.375,1.640625,0.109375
659,-0.78515625,-0.011047363,-0.6626587,-0.890625,1.53125,0.421875
660,-0.7687988,-0.011291504,-0.6692505,-0.640625,1.296875,0.5625
661,-0.7734375,-0.006652832,-0.65875244,-0.71875,1.828125,0.703125
662,-0.77368164,-0.016418457,-0.6565552,-1.09375,1.421875,0.1875
663,-0.77783203,-0.0115356445,-0.66290283,-1.703125,-0.328125,0.1875
664,-0.7844238,-0.018615723,-0.6680298,-0.4375,0.1875,0.03125
665,-0.7766113,-0.014709473,-0.6646118,-0.34375,0.40625,-0.15625
666,-0.78759766,-0.0134887695,-0.66363525,-0.984375,0.296875,-0.375
667,-0.7817383,-0.00592041,-0.6668091,-0.8125,1.078125,0.09375
668,-0.77783203,-0.016418457,-0.6616821,-0.25,1.578125,0.515625
669,-0.7819824,-0.0178833,-0.6633911,-0.84375,1.09375,0.65625
670,-0.7775879,-0.020324707,-0.6519165,-0.390625,0.90625,0.5
671,-0.7751465,-0.022521973,-0.6604614,-0.6875,-0.109375,0.296875
672,-0.78686523,-0.008850098,-0.65753174,-0.34375,0.546875,0.15625
673,-0.7836914,-0.011779785,-0.65997314,-0.6875,0.578125,0.34375
674,-0.7770996,-0.012023926,-0.67071533,-0.40625,0.96875,0.390625
675,-0.78027344,-0.011047363,-0.6765747,-0.484375,1.0625,0.34375
676,-0.7890625,-0.019592285,-0.6712036,-0.796875,1.296875,0.4375
677,-0.78100586,-0.011779785,-0.66729736,-0.734375,1.765625,0.375
678,-0.782959,-0.019592285,-0.6616821,-0.609375,1.328125,0.40625
679,-0.7746582,-0.014465332,-0.663147,-0.171875,0.9375,0.0
680,-0.78564453,-0.022766113,-0.6777954,-1.203125,0.578125,0.328125
681,-0.7866211,-0.014221191,-0.66070557,-1.171875,1.046875,0.546875
682,-0.7873535,-0.0134887695,-0.65289307,0.03125,1.53125,-0.078125
683,-0.7766113,-0.015930176,-0.6651001,-0.71875,0.984375,0.109375
684,-0.78271484,-0.013977051,-0.6604614,-0.671875,0.875,0.03125
685,-0.7861328,-0.013000488,-0.66485596,-0.734375,0.953125,0.171875
686,-0.7758789,-0.017150879,-0.6572876,-1.078125,1.375,0.59375
687,-0.7758789,-0.016418457,-0.65631104,-0.859375,1.171875,0.515625
688,-0.7858887,-0.013977051,-0.66192627,-0.65625,0.546875,0.484375
689,-0.7734375,-0.023742676,-0.6687622,-0.40625,0.078125,0.546875
690,-0.7805176,-0.020080566,-0.6704712,-0.375,0.3125,0.125
691,-0.78564453,-0.022277832,-0.67193604,-0.6875,0.453125,0.125
692,-0.78686523,-0.01739502,-0.65753174,-0.4375,1.234375,0.328125
693,-0.7817383,-0.0115356445,-0.66656494,-0.390625,1.1875,0.171875
694,-0.7734375,-0.019592285,-0.6680298,-0.359375,1.171875,0.453125
695,-0.78149414,-0.024719238,-0.6663208,-0.640625,0.84375,0.46875
696,-0.78027344,-0.018615723,-0.66412354,-0.96875,0.78125,0.421875
697,-0.7807617,-0.012512207,-0.65216064,-0.390625,0.671875,0.15625
698,-0.77563477,-0.00982666,-0.65826416,-0.546875,-0.046875,0.046875
699,-0.7866211,-0.018615723,-0.673645,-1.671875,0.34375,0.5625
700,-0.77978516,-0.022277832,-0.6548462,-1.09375,1.109375,0.671875
701,-0.7836914,-0.019592285,-0.6646118,-0.03125,1.015625,0.03125
702,-0.77905273,-0.013244629,-0.6616821,-0.859375,0.5625,0.359375
703,-0.78100586,-0.023254395,-0.6694946,-1.84375,-0.09375,0.578125
704,-0.782959,-0.026428223,-0.6592407,-0.765625,0.9375,0.390625
705,-0.78344727,-0.024475098,-0.65460205,-0.484375,0.78125,0.46875
706,-0.7817383,-0.023986816,-0.659729,-0.65625,0.828125,0.28125
707,-0.7832031,-0.02520752,-0.6577759,-0.96875,0.15625,0.5625
708,-0.7729492,-0.023498535,-0.66900635,-0.4375,0.390625,0.25
709,-0.77734375,-0.020324707,-0.67266846,-0.4375,0.96875,-0.046875
710,-0.7849121,-0.02130127,-0.6716919,-0.828125,0.890625,0.203125
711,-0.77441406,-0.02130127,-0.6526489,-0.296875,1.5625,0.4375
712,-0.78393555,-0.023498535,-0.66119385,-0.828125,0.265625,0.546875
713,-0.7841797,-0.016662598,-0.67022705,-0.78125,0.359375,0.71875
714,-0.77783203,-0.02520752,-0.67022705,-0.875,0.671875,0.953125
715,-0.77612305,-0.027648926,-0.6712036,-0.328125,0.53125,0.578125
716,-0.7780762,-0.020324707,-0.6694946,-0.171875,1.21875,0.21875
717,-0.78686523,-0.019104004,-0.66363525,-1.0625,1.015625,0.09375
718,-0.77685547,-0.026672363,-0.6616821,-1.125,1.515625,0.6875
719,-0.77905273,-0.017150879,-0.6621704,0.3125,1.484375,0.0
720,-0.78222656,-0.023742676,-0.66290283,0.0625,1.078125,0.015625
721,-0.78808594,-0.012268066,-0.6651001,-0.875,0.28125,0.203125
722,-0.7836914,-0.020568848,-0.66973877,-0.75,1.0625,0.5
723,-0.7792969,-0.01739502,-0.6616821,-0.890625,1.015625,0.859375
724,-0.77490234,-0.024230957,-0.6621704,-0.6875,1.375,0.484375
725,-0.7783203,-0.026672363,-0.6616821,-0.65625,1.09375,0.671875
726,-0.7753906,-0.028625488,-0.6668091,-0.515625,0.03125,0.125
727,-0.7800293,-0.022766113,-0.66534424,-0.890625,0.1875,0.21875
728,-0.782959,-0.021057129,-0.6692505,-0.5625,1.40625,0.296875
729,-0.782959,-0.0256958,-0.65948486,-0.1875,1.53125,0.234375
730,-0.78100586,-0.020568848,-0.66412354,-0.8125,1.34375,0.515625
731,-0.78393555,-0.024475098,-0.66070557,-0.65625,1.5,0.734375
732,-0.7741699,-0.028869629,-0.66192627,-0.28125,1.21875,0.328125
733,-0.7832031,-0.022277832,-0.66070557,-0.125,1.34375,0.5
734,-0.7763672,-0.02520752,-0.65997314,-0.234375,1.4375,0.390625
735,-0.7927246,-0.026428223,-0.65875244,-1.125,1.40625,0.40625
736,-0.7885742,-0.028869629,-0.6536255,-0.6875,2.015625,0.703125
737,-0.782959,-0.026916504,-0.6621704,0.25,1.0625,0.25
738,-0.79052734,-0.027404785,-0.65582275,-0.28125,1.515625,0.3125
739,-0.7858887,-0.020568848,-0.6589966,-0.25,1.890625,0.484375
740,-0.7902832,-0.027404785,-0.6555786,-0.34375,2.09375,0.421875
741,-0.782959,-0.030334473,-0.65875244,0.046875,2.046875,0.6875
742,-0.79248047,-0.02545166,-0.6536255,-0.078125,2.765625,0.640625
743,-0.78637695,-0.02545166,-0.6499634,0.421875,2.015625,0.8125
744,-0.7988281,-0.026672363,-0.65167236,-0.125,1.125,0.234375
745,-0.79541016,-0.02178955,-0.6519165,0.09375,0.25,0.015625
746,-0.78686523,-0.019104004,-0.6465454,-0.3125,0.140625,0.609375
747,-0.7883301,-0.028381348,-0.64923096,1.296875,1.9375,0.359375
748,-0.79663086,-0.025939941,-0.65509033,2.5,2.078125,-0.78125
749,-0.7907715,-0.013000488,-0.6560669,1.015625,-0.359375,-0.734375
