sample_no,accel_x,accel_y,accel_z,gyro_x,gyro_y,gyro_z
0,-0.11743164,-0.9661255,0.30511475,-1.265625,-1.03125,-0.125
1,-0.122558594,-0.9561157,0.30218506,-0.75,-0.8125,0.203125
2,-0.12158203,-0.95977783,0.30145264,0.0,0.078125,0.578125
3,-0.115722656,-0.9668579,0.31195068,-2.359375,-0.125,-0.234375
4,-0.10864258,-0.95758057,0.32147217,-0.15625,0.328125,0.453125
5,-0.11743164,-0.95562744,0.30267334,-2.484375,-0.625,0.234375
6,-0.12817383,-0.95098877,0.30438232,-2.28125,-0.3125,-0.265625
7,-0.123046875,-0.954895,0.32855225,-1.359375,0.0,0.015625
8,-0.10986328,-0.95880127,0.31365967,-1.703125,-0.859375,-0.5625
9,-0.1171875,-0.9505005,0.31658936,-1.921875,-0.046875,-0.03125
10,-0.12719727,-0.9561157,0.31658936,-0.984375,-1.078125,0.21875
11,-0.12084961,-0.9541626,0.33050537,-1.71875,-0.453125,-0.65625
12,-0.115234375,-0.9524536,0.32366943,-2.125,0.921875,-0.796875
13,-0.12207031,-0.95440674,0.32806396,-0.75,0.34375,-0.65625
14,-0.12158203,-0.95928955,0.33807373,1.546875,3.3125,-0.984375
15,-0.12182617,-0.95147705,0.31365967,4.125,2.265625,-0.53125
16,-0.11694336,-0.9602661,0.31976318,8.265625,4.796875,0.046875
17,-0.106933594,-0.94537354,0.30560303,7.796875,3.0625,-0.15625
18,-0.110839844,-0.96051025,0.28753662,7.765625,3.625,0.078125
19,-0.12841797,-0.973938,0.28753662,8.984375,1.609375,0.828125
20,-0.118896484,-0.9805298,0.25335693,5.171875,-0.34375,0.71875
21,-0.11230469,-0.95318604,0.2453003,4.21875,-1.53125,0.21875
22,-0.118896484,-0.9578247,0.24310303,6.71875,-2.4375,0.890625
23,-0.11401367,-0.9783325,0.2098999,21.578125,-8.28125,1.328125
24,-0.0871582,-1.0598755,0.1798706,8.140625,11.609375,5.53125
25,-0.032714844,-0.92510986,0.21722412,6.28125,5.234375,11.828125
26,-0.13793945,-0.9475708,0.17425537,7.203125,-4.921875,3.4375
27,-0.083740234,-1.0186157,0.21429443,1.625,2.0625,-0.46875
28,-0.041503906,-0.97369385,0.20184326,-2.84375,-0.875,-1.4375
29,-0.099609375,-1.0088501,0.1864624,0.828125,-2.640625,0.78125
30,-0.06518555,-0.986145,0.18109131,1.546875,-1.171875,2.21875
31,-0.087646484,-0.99346924,0.1671753,2.4375,-1.625,0.234375
32,-0.0715332,-0.98272705,0.1852417,-0.90625,-0.1875,0.84375
33,-0.08911133,-0.960022,0.18353271,-1.046875,-1.078125,-0.671875
34,-0.09741211,-1.0073853,0.17791748,2.15625,-0.265625,1.3125
35,-0.046142578,-1.0025024,0.17279053,2.046875,-0.765625,1.296875
36,-0.076660156,-0.9883423,0.15887451,1.015625,-3.390625,1.0625
37,-0.06518555,-0.9751587,0.18011475,-1.640625,3.125,-1.078125
38,-0.06982422,-0.99468994,0.17010498,-6.03125,5.28125,-2.203125
39,-0.07495117,-0.96295166,0.19793701,-3.84375,0.328125,-2.875
40,-0.091552734,-0.99346924,0.1876831,-1.515625,-4.171875,-0.59375
41,-0.07714844,-0.9963989,0.18939209,-3.234375,-0.0625,-0.828125
42,-0.111816406,-0.97979736,0.19940186,-0.671875,-3.015625,-0.78125
43,-0.10449219,-0.97076416,0.1918335,2.421875,-7.015625,2.90625
44,-0.041748047,-1.0076294,0.2008667,3.609375,-6.6875,5.0625
45,-0.053466797,-0.9956665,0.16693115,5.875,-2.453125,2.59375
46,-0.061767578,-0.9859009,0.16888428,0.40625,0.25,-1.78125
47,-0.07836914,-0.9783325,0.16278076,-2.3125,-1.859375,-1.65625
48,-0.072753906,-0.99053955,0.16986084,1.875,-3.53125,0.828125
49,-0.079833984,-0.9976196,0.15325928,2.015625,-3.671875,0.59375
50,-0.08886719,-0.9841919,0.17132568,-0.609375,-3.09375,-0.21875
51,-0.08520508,-0.98638916,0.17938232,1.078125,-0.140625,1.046875
52,-0.072265625,-0.9776001,0.15301514,1.484375,1.65625,1.234375
53,-0.056396484,-0.9883423,0.13568115,0.53125,1.703125,1.53125
54,-0.044921875,-0.989563,0.16033936,-3.828125,2.171875,0.796875
55,-0.0793457,-0.9898071,0.18182373,-4.671875,1.3125,-0.890625
56,-0.076416016,-0.98223877,0.17645264,-9.515625,2.53125,-3.453125
57,-0.09741211,-0.97052,0.18011475,-6.6875,-1.25,-4.09375
58,-0.103027344,-1.0007935,0.20281982,-5.0625,-0.734375,-1.109375
59,-0.06982422,-0.987854,0.19891357,-1.953125,-2.484375,0.390625
60,-0.099365234,-0.98931885,0.21942139,6.9375,-5.109375,1.21875
61,-0.013427734,-1.0222778,0.18670654,15.25,-7.71875,1.890625
62,-0.06762695,-0.9751587,0.1293335,3.28125,-3.796875,3.921875
63,-0.12231445,-0.9505005,0.15618896,0.984375,-5.28125,2.765625
64,-0.056396484,-1.0112915,0.16864014,-6.015625,-3.046875,-1.0
65,-0.087646484,-0.99835205,0.1720581,-6.375,-1.9375,0.625
66,-0.061035156,-0.9871216,0.1642456,-2.328125,-1.78125,1.9375
67,-0.060791016,-0.99542236,0.18182373,-2.25,-3.34375,1.703125
68,-0.080322266,-0.99053955,0.19329834,-1.4375,-1.03125,1.5
69,-0.0715332,-0.97662354,0.1696167,-0.453125,0.3125,2.21875
70,-0.061523438,-0.98809814,0.17034912,1.421875,-0.359375,1.28125
71,-0.06689453,-0.9883423,0.16644287,3.046875,-1.53125,2.203125
72,-0.053466797,-1.0037231,0.15594482,0.921875,-0.703125,2.234375
73,-0.0715332,-0.9678345,0.17474365,-0.1875,0.015625,0.78125
74,-0.06298828,-0.96417236,0.18597412,-3.109375,-0.875,-0.3125
75,-0.0546875,-1.0003052,0.19769287,2.46875,-0.828125,0.453125
76,-0.025878906,-1.0105591,0.1552124,1.0625,-1.515625,-1.046875
77,-0.08178711,-0.95928955,0.15716553,0.71875,-2.453125,-2.015625
78,-0.068603516,-1.0020142,0.1642456,-4.03125,0.171875,-2.078125
79,-0.049072266,-0.9951782,0.16326904,-3.84375,-1.625,-1.734375
80,-0.0769043,-0.9807739,0.18499756,-0.46875,-0.8125,-1.25
81,-0.06616211,-1.0022583,0.16888428,-2.46875,-0.875,-0.34375
82,-0.076660156,-0.9771118,0.18841553,-3.140625,-0.4375,-0.53125
83,-0.068115234,-0.9944458,0.17327881,-2.8125,-0.296875,0.1875
84,-0.045898438,-0.98321533,0.17718506,-0.875,-1.375,0.046875
85,-0.07519531,-0.9937134,0.18841553,-0.390625,-2.9375,0.09375
86,-0.06640625,-0.9834595,0.1828003,-0.78125,-2.0625,0.09375
87,-0.08642578,-0.98565674,0.17547607,-0.234375,-2.0,-0.09375
88,-0.08300781,-0.98516846,0.19158936,2.015625,-1.328125,0.65625
89,-0.05102539,-0.9998169,0.16253662,-0.515625,-0.921875,-2.046875
90,-0.033447266,-1.0010376,0.16229248,-10.234375,3.65625,-3.140625
91,-0.037109375,-0.97052,0.19476318,-27.515625,1.3125,-10.515625
92,-0.12915039,-0.9072876,0.25457764,-20.96875,-1.578125,-11.984375
93,-0.14233398,-0.98223877,0.30975342,-17.609375,3.28125,-1.390625
94,-0.13964844,-0.99053955,0.31610107,-5.453125,2.359375,3.296875
95,-0.1315918,-0.9885864,0.28240967,3.109375,-2.578125,-1.1875
96,-0.119628906,-0.9143677,0.24139404,10.953125,-5.953125,0.359375
97,-0.06958008,-1.0352173,0.24945068,26.78125,-13.078125,-0.796875
98,-0.057373047,-0.9558716,0.15716553,12.703125,9.671875,7.203125
99,-0.13427734,-0.9522095,0.18304443,12.390625,-0.515625,5.765625
100,-0.1303711,-0.97613525,0.2345581,2.828125,-3.546875,2.125
101,-0.072753906,-1.0112915,0.21868896,0.546875,-4.90625,0.625
102,-0.080566406,-0.9924927,0.2086792,-5.265625,-2.65625,-1.484375
103,-0.09814453,-0.98394775,0.20013428,-6.859375,-3.53125,-2.796875
104,-0.08544922,-0.9907837,0.19134521,-4.578125,-2.890625,-2.453125
105,-0.0871582,-0.9981079,0.20184326,-2.828125,-1.96875,-1.1875
106,-0.1105957,-0.9702759,0.21697998,-3.03125,-2.734375,0.03125
107,-0.12988281,-0.9649048,0.21014404,-0.34375,-1.453125,0.859375
108,-0.103027344,-0.9768677,0.22064209,11.921875,0.6875,3.703125
109,-0.0637207,-1.0420532,0.19134521,18.390625,2.875,7.953125
110,-0.041992188,-0.9656372,0.13275146,10.125,0.21875,3.546875
111,-0.037841797,-0.97320557,0.16204834,-8.71875,-2.0625,-5.65625
112,-0.095703125,-0.94000244,0.17913818,-15.53125,-5.578125,-4.015625
113,-0.17578125,-1.0176392,0.18914795,-5.40625,-0.046875,-0.546875
114,-0.091796875,-1.0178833,0.19158936,0.578125,5.09375,1.125
115,-0.057373047,-1.0044556,0.18743896,3.0,0.625,1.28125
116,-0.06591797,-0.96954346,0.19232178,6.5,0.21875,4.734375
117,-0.07861328,-0.9898071,0.17694092,6.34375,0.609375,6.84375
118,-0.08227539,-0.9602661,0.15618896,-0.75,-0.296875,2.28125
119,-0.087890625,-0.991272,0.17694092,-1.96875,-1.015625,-3.671875
120,-0.047607422,-1.0025024,0.18377686,-3.234375,-2.28125,-1.484375
121,-0.09326172,-0.9714966,0.18133545,-4.140625,-1.921875,1.765625
122,-0.09716797,-0.9837036,0.17791748,-2.890625,-1.828125,0.40625
123,-0.05493164,-0.9939575,0.19476318,-1.21875,-2.109375,0.96875
124,-0.0690918,-0.98883057,0.18670654,-1.96875,-0.953125,-0.03125
125,-0.08227539,-0.98687744,0.16888428,-1.4375,-1.953125,-0.53125
126,-0.07421875,-0.9758911,0.2020874,0.671875,0.359375,0.203125
127,-0.07714844,-1.0149536,0.17303467,1.34375,-2.484375,-1.0625
128,-0.050048828,-0.987854,0.17303467,-1.984375,-0.25,-1.703125
129,-0.068847656,-0.9885864,0.19989014,-9.90625,0.96875,-3.6875
130,-0.06347656,-0.9902954,0.20770264,-24.75,2.09375,-7.859375
131,-0.10864258,-0.9155884,0.27264404,-16.4375,-4.75,-7.953125
132,-0.1743164,-1.0337524,0.28240967,-1.578125,-8.375,-5.890625
133,-0.14648438,-0.9985962,0.25897217,-7.703125,-0.96875,-3.53125
134,-0.14331055,-0.8936157,0.18719482,12.40625,-4.890625,-1.09375
135,-0.08935547,-1.0059204,0.19354248,15.859375,3.203125,2.5
136,-0.061767578,-0.960022,0.18597412,6.375,3.796875,8.1875
137,-0.1184082,-0.9690552,0.20916748,5.0,2.34375,5.984375
138,-0.09716797,-0.9800415,0.2267456,-0.6875,-4.25,4.265625
139,-0.09667969,-1.0010376,0.23162842,-3.671875,-5.015625,-0.453125
140,-0.05517578,-0.97247314,0.21209717,-5.03125,-2.609375,-0.296875
141,-0.09838867,-0.97906494,0.2164917,-4.671875,-1.5625,-0.984375
142,-0.103027344,-0.99346924,0.21551514,-1.109375,-0.9375,0.625
143,-0.087890625,-0.98638916,0.22210693,1.21875,-2.03125,0.234375
144,-0.11450195,-0.97125244,0.2177124,-0.953125,-1.703125,-0.125
145,-0.087890625,-0.95684814,0.21063232,-1.109375,0.515625,0.21875
146,-0.0871582,-0.9849243,0.2230835,0.625,0.546875,1.078125
147,-0.08251953,-1.0073853,0.21258545,-0.71875,-2.609375,0.390625
148,-0.08251953,-0.9793091,0.22259521,-1.390625,-1.40625,0.6875
149,-0.1159668,-0.96881104,0.20697021,-2.125,-0.484375,-0.28125
150,-0.091308594,-0.972229,0.22161865,-1.609375,1.3125,0.1875
151,-0.091796875,-0.98760986,0.21502686,-0.640625,-1.265625,1.453125
152,-0.068847656,-0.9902954,0.21624756,0.1875,-0.6875,1.171875
153,-0.09106445,-0.972229,0.22210693,-1.859375,-1.34375,0.921875
154,-0.079833984,-0.9800415,0.23065186,-1.53125,0.265625,0.890625
155,-0.095458984,-0.9768677,0.23065186,-0.328125,-0.390625,0.703125
156,-0.087402344,-0.9793091,0.22235107,0.671875,-0.046875,0.8125
157,-0.087890625,-0.98443604,0.22210693,-0.8125,-0.4375,1.109375
158,-0.08666992,-0.9734497,0.22894287,-0.671875,0.03125,0.75
159,-0.07836914,-0.96832275,0.22796631,1.078125,1.03125,0.625
160,-0.0847168,-0.9998169,0.22576904,4.25,0.671875,0.984375
161,-0.080322266,-0.9841919,0.20721436,2.0625,-0.984375,-0.359375
162,-0.083984375,-0.9680786,0.20233154,0.40625,-0.390625,-0.296875
163,-0.07910156,-0.9956665,0.22088623,0.328125,0.65625,1.359375
164,-0.075683594,-0.99298096,0.19476318,0.90625,1.625,0.546875
165,-0.068115234,-0.9649048,0.20550537,-3.28125,-0.171875,-1.09375
166,-0.061767578,-0.9963989,0.2374878,-8.75,-2.265625,-1.65625
167,-0.064453125,-0.9829712,0.23162842,-22.625,-0.09375,-5.53125
168,-0.10498047,-0.9500122,0.30316162,-13.828125,-3.609375,-5.84375
169,-0.15307617,-0.9710083,0.3024292,-5.875,-5.796875,-4.296875
170,-0.13354492,-1.0078735,0.27752686,-1.125,2.828125,-4.75
171,-0.11987305,-0.96295166,0.26141357,-0.765625,-0.4375,-6.1875
172,-0.1171875,-0.9216919,0.22796631,18.75,-6.9375,-1.09375
173,-0.06762695,-1.0120239,0.168396,25.265625,3.484375,3.140625
174,-0.08544922,-0.9517212,0.18792725,6.125,5.765625,8.796875
175,-0.15625,-0.9553833,0.23577881,3.53125,-3.03125,1.8125
176,-0.075683594,-1.0042114,0.2255249,1.609375,-0.34375,3.578125
177,-0.08105469,-0.99102783,0.21429443,-2.53125,-4.90625,0.0625
178,-0.095703125,-0.97784424,0.22088623,-4.078125,-3.625,-1.671875
179,-0.118652344,-0.98223877,0.20379639,-4.96875,-0.234375,-0.421875
180,-0.10473633,-0.9837036,0.21282959,-2.109375,0.5625,0.25
181,-0.09277344,-0.9859009,0.21697998,-0.4375,-2.546875,0.8125
182,-0.10449219,-0.9793091,0.22088623,-3.046875,-1.171875,0.125
183,-0.103759766,-0.9627075,0.21331787,1.25,0.59375,0.734375
184,-0.09838867,-0.9768677,0.21258545,6.484375,-0.828125,2.3125
185,-0.06201172,-1.0083618,0.20721436,3.96875,1.171875,2.765625
186,-0.068603516,-0.96759033,0.22015381,-2.71875,-0.40625,-1.453125
187,-0.09375,-0.9866333,0.21624756,-7.046875,-2.59375,-2.65625
188,-0.11425781,-0.9541626,0.21551514,-11.1875,-2.578125,-5.53125
189,-0.14746094,-1.003479,0.2189331,-4.046875,-0.625,-1.375
190,-0.111572266,-0.98272705,0.21942139,-3.203125,4.796875,-0.046875
191,-0.111572266,-0.97052,0.23724365,3.71875,-2.59375,0.25
192,-0.0871582,-0.9885864,0.21282959,5.984375,-0.234375,4.625
193,-0.10205078,-0.96759033,0.21185303,6.96875,1.40625,7.0625
194,-0.068603516,-0.9727173,0.2111206,2.546875,0.421875,2.21875
195,-0.057861328,-0.9849243,0.22747803,-3.078125,-2.46875,0.34375
196,-0.107421875,-0.9902954,0.20037842,-2.46875,-5.203125,-1.8125
197,-0.11694336,-0.97003174,0.21600342,-3.0,-1.296875,-0.578125
198,-0.110839844,-0.9885864,0.24090576,-1.21875,-0.890625,0.609375
199,-0.072265625,-0.9939575,0.20941162,-0.828125,-0.3125,0.859375
200,-0.10083008,-0.9771118,0.22235107,-0.828125,-2.078125,0.09375
201,-0.07348633,-0.9793091,0.21453857,-1.265625,0.3125,0.640625
202,-0.09863281,-0.9866333,0.23553467,0.90625,0.640625,0.1875
203,-0.09667969,-0.98272705,0.20257568,1.796875,-0.671875,0.078125
204,-0.067871094,-0.9812622,0.20697021,-0.40625,0.515625,-1.703125
205,-0.07446289,-0.99102783,0.22650146,-7.453125,0.328125,-4.234375
206,-0.09814453,-0.96295166,0.23529053,-16.96875,-1.0,-6.296875
207,-0.106933594,-0.9673462,0.29022217,-12.765625,-2.34375,-4.359375
208,-0.15893555,-0.9678345,0.28411865,-14.8125,-3.015625,-0.953125
209,-0.1303711,-0.9668579,0.29656982,-8.421875,-2.59375,-4.390625
210,-0.14868164,-0.9710083,0.27215576,1.4375,-0.359375,-3.4375
211,-0.14282227,-0.9282837,0.25042725,3.03125,-1.9375,-1.5
212,-0.12426758,-1.0213013,0.246521,33.515625,-10.09375,1.0
213,-0.03149414,-0.9854126,0.20892334,13.296875,21.59375,11.875
214,-0.1303711,-0.91973877,0.22113037,10.125,-2.453125,7.921875
215,-0.12841797,-0.97735596,0.21746826,4.578125,-3.53125,2.0625
216,-0.043701172,-1.008606,0.2098999,-5.453125,-5.640625,1.921875
217,-0.07861328,-0.975647,0.20770264,-6.21875,-7.234375,-2.953125
218,-0.1340332,-0.99053955,0.22064209,-4.0625,-2.8125,0.203125
219,-0.103759766,-0.9939575,0.2189331,-0.03125,-0.4375,0.65625
220,-0.08251953,-0.98321533,0.21307373,-0.375,-3.1875,0.90625
221,-0.10449219,-0.9685669,0.21331787,1.515625,-0.984375,2.5
222,-0.09643555,-0.9854126,0.21844482,2.421875,0.484375,2.171875
223,-0.078125,-0.9800415,0.1954956,2.75,-1.4375,1.09375
224,-0.06616211,-0.9927368,0.2020874,1.609375,-1.234375,1.171875
225,-0.083984375,-0.98760986,0.20281982,-2.859375,-2.3125,0.171875
226,-0.099853516,-0.95562744,0.20306396,-4.328125,0.46875,-0.109375
227,-0.100097656,-0.99224854,0.21746826,-0.375,-1.328125,0.265625
228,-0.083740234,-1.0049438,0.21624756,-0.75,-1.96875,0.984375
229,-0.09399414,-0.98101807,0.20770264,1.4375,-1.984375,0.8125
230,-0.09863281,-0.97784424,0.19647217,0.359375,0.296875,1.921875
231,-0.0546875,-0.9702759,0.199646,0.84375,1.953125,1.875
232,-0.08276367,-0.9898071,0.20111084,1.71875,-1.984375,-0.34375
233,-0.09082031,-0.99224854,0.20233154,1.46875,-2.15625,1.0
234,-0.10180664,-0.98516846,0.19354248,-1.03125,-0.21875,-0.1875
235,-0.080322266,-0.96466064,0.19476318,-1.5625,1.125,0.53125
236,-0.06933594,-0.99468994,0.20306396,-0.296875,0.34375,0.484375
237,-0.07788086,-1.0003052,0.2020874,0.359375,-1.59375,0.8125
238,-0.087890625,-0.9651489,0.20843506,2.703125,-0.65625,0.78125
239,-0.09448242,-0.97247314,0.22747803,7.203125,-0.0625,1.96875
240,-0.040527344,-0.9885864,0.13421631,0.9375,1.796875,-0.625
241,-0.052734375,-0.9871216,0.17132568,-3.671875,-2.921875,-1.484375
242,-0.110839844,-0.9990845,0.20062256,-6.75,-2.859375,-1.625
243,-0.06689453,-1.0134888,0.20697021,-14.984375,0.5,-4.25
244,-0.07373047,-0.9356079,0.25042725,-20.75,0.625,-9.375
245,-0.11694336,-0.99713135,0.27923584,-8.0625,-1.765625,-7.6875
246,-0.1418457,-1.0105591,0.26263428,-6.640625,2.875,-2.25
247,-0.1381836,-0.9524536,0.24334717,-2.375,-0.234375,-3.078125
248,-0.08911133,-0.9224243,0.23284912,6.78125,-4.96875,-1.34375
249,-0.11035156,-0.9570923,0.21087646,18.28125,-9.59375,4.203125
250,-0.0847168,-1.0076294,0.15252686,14.71875,8.015625,4.21875
251,-0.09423828,-0.9824829,0.17791748,6.53125,0.453125,8.40625
252,-0.12841797,-0.95977783,0.22576904,4.078125,-1.171875,5.859375
253,-0.07421875,-1.00177,0.20501709,3.625,-5.484375,2.828125
254,-0.061279297,-1.0078735,0.19769287,-5.078125,-4.359375,1.0625
255,-0.07397461,-0.95880127,0.20013428,-7.21875,-2.46875,-1.4375
256,-0.106933594,-1.0012817,0.19573975,-5.0625,-0.875,-0.484375
257,-0.068115234,-1.0015259,0.215271,-1.53125,-0.890625,0.015625
258,-0.091796875,-0.98028564,0.18988037,-1.28125,-1.0625,1.0625
259,-0.0871582,-0.96221924,0.21966553,-1.15625,-0.390625,1.328125
260,-0.09887695,-0.9751587,0.21942139,4.140625,-0.828125,1.78125
261,-0.0703125,-1.0276489,0.17156982,9.359375,-1.4375,4.390625
262,-0.025146484,-0.96759033,0.16864014,1.09375,1.359375,3.25
263,-0.076660156,-0.9976196,0.19281006,-3.6875,0.0,-5.390625
264,-0.07739258,-0.99713135,0.20281982,-9.3125,4.234375,-3.34375
265,-0.10180664,-0.9697876,0.24310303,-14.75,4.234375,-7.0625
266,-0.12719727,-1.013977,0.24017334,-16.5625,-5.5,-6.1875
267,-0.1262207,-0.9990845,0.23187256,-6.265625,-0.5,-4.046875
268,-0.12158203,-0.93927,0.18109131,9.65625,-2.953125,-0.5
269,-0.1081543,-0.928772,0.19744873,19.109375,-4.078125,4.25
270,-0.038085938,-1.0022583,0.14300537,11.59375,9.578125,6.046875
271,-0.07104492,-0.9570923,0.20159912,3.609375,-1.921875,7.828125
272,-0.09448242,-0.9788208,0.19891357,4.953125,-7.9375,3.53125
273,-0.07470703,-1.0064087,0.20819092,-4.28125,-9.0625,2.953125
274,-0.05810547,-0.99224854,0.1852417,-6.578125,-4.171875,-0.78125
275,-0.08544922,-0.9883423,0.18792725,-4.671875,-3.9375,-0.140625
276,-0.08691406,-1.0025024,0.19573975,-3.078125,-2.8125,0.359375
277,-0.055664062,-0.9866333,0.20794678,-1.46875,-3.484375,0.28125
278,-0.091796875,-0.9644165,0.20892334,0.46875,-3.578125,0.375
279,-0.1081543,-0.96588135,0.2020874,2.71875,-2.375,0.875
280,-0.075927734,-0.99053955,0.19915771,5.6875,0.0,1.375
281,-0.04272461,-1.008606,0.17840576,-3.421875,-1.734375,-0.125
282,-0.055664062,-0.98223877,0.20013428,-5.578125,-0.578125,-2.84375
283,-0.0715332,-1.0088501,0.21820068,-8.6875,4.78125,-3.640625
284,-0.087402344,-0.9915161,0.25115967,-17.625,8.453125,-5.96875
285,-0.115478516,-0.9859009,0.28485107,-10.71875,0.734375,-4.625
286,-0.118896484,-0.98931885,0.23944092,-3.40625,-3.4375,-3.96875
287,-0.0949707,-0.92755127,0.21136475,2.125,-0.625,-3.546875
288,-0.1027832,-0.93829346,0.18743896,14.140625,-5.875,0.59375
289,-0.07080078,-0.98638916,0.17254639,13.703125,0.875,3.1875
290,-0.064453125,-0.9729614,0.17913818,5.0,1.59375,3.25
291,-0.10473633,-0.96954346,0.19793701,5.375,-1.515625,3.546875
292,-0.111816406,-0.97979736,0.21502686,0.921875,-7.59375,3.375
293,-0.09765625,-1.0100708,0.2140503,-3.21875,-7.4375,-1.0625
294,-0.07788086,-0.9854126,0.19793701,-6.765625,-1.375,-1.390625
295,-0.09741211,-0.9783325,0.20379639,-4.578125,-0.140625,-0.90625
296,-0.08959961,-1.0010376,0.22772217,-2.25,-1.75,-1.078125
297,-0.099609375,-0.9783325,0.21258545,0.90625,-2.640625,0.3125
298,-0.103271484,-0.9859009,0.1918335,-1.265625,-1.46875,-2.390625
299,-0.10131836,-0.9595337,0.1876831,-4.296875,0.46875,-0.8125
300,-0.08935547,-0.97906494,0.22015381,-3.8125,1.390625,-0.234375
301,-0.095947266,-1.0015259,0.22650146,1.828125,-2.3125,-0.28125
302,-0.09350586,-0.9944458,0.2230835,-0.21875,-1.84375,1.234375
303,-0.0847168,-0.95562744,0.21868896,-2.25,-3.84375,-1.265625
304,-0.12426758,-0.9793091,0.20501709,-3.953125,-2.234375,-1.046875
305,-0.12402344,-0.97662354,0.2255249,-0.390625,0.796875,-1.078125
306,-0.12841797,-0.99468994,0.2177124,2.4375,-3.6875,-1.0
307,-0.09448242,-0.9680786,0.21380615,-0.625,-0.578125,1.5
308,-0.107177734,-0.97247314,0.22039795,-0.21875,-1.296875,1.1875
309,-0.10229492,-0.98638916,0.21673584,-0.625,-0.484375,1.984375
310,-0.09057617,-0.9807739,0.22772217,-1.515625,-3.265625,1.0625
311,-0.09326172,-0.98150635,0.22918701,-2.109375,-3.25,-0.828125
312,-0.12988281,-0.98443604,0.23699951,-1.1875,-2.46875,-0.984375
313,-0.119384766,-0.973938,0.22821045,-5.09375,-0.71875,-2.625
314,-0.11425781,-0.9768677,0.21673584,-5.796875,-0.734375,-2.375
315,-0.09326172,-0.98516846,0.24407959,-1.546875,-0.25,0.359375
316,-0.11352539,-0.99176025,0.24407959,-2.828125,-2.453125,-1.53125
317,-0.13598633,-0.9470825,0.2477417,-3.46875,-0.640625,-0.5625
318,-0.107177734,-0.9763794,0.2411499,-0.546875,1.3125,-1.03125
319,-0.0859375,-0.99298096,0.22528076,-2.25,-0.046875,-4.625
320,-0.095703125,-0.9546509,0.23040771,-4.28125,1.6875,-1.609375
321,-0.12597656,-1.0007935,0.27288818,-9.328125,2.390625,-2.5625
322,-0.14477539,-0.97979736,0.29364014,-13.046875,7.140625,-3.65625
323,-0.15161133,-0.97540283,0.3126831,-7.40625,3.046875,-2.859375
324,-0.13867188,-0.96832275,0.31097412,-6.296875,1.390625,-2.078125
325,-0.13696289,-0.9378052,0.26263428,0.578125,1.390625,-1.171875
326,-0.119384766,-0.91363525,0.25115967,6.65625,-1.75,1.46875
327,-0.13671875,-0.940979,0.24285889,17.0,-4.453125,3.40625
328,-0.10595703,-0.98809814,0.20916748,8.828125,5.734375,4.953125
329,-0.099853516,-0.96417236,0.26361084,3.9375,-0.609375,5.515625
330,-0.12133789,-0.975647,0.260437,1.59375,-4.859375,3.484375
331,-0.12524414,-0.98272705,0.25872803,0.328125,-7.515625,1.453125
332,-0.09790039,-0.9788208,0.2584839,-1.5625,-1.640625,-0.265625
333,-0.118896484,-0.9846802,0.23822021,-2.96875,0.46875,-1.078125
334,-0.119628906,-0.97857666,0.24163818,0.078125,-0.171875,1.625
335,-0.11621094,-0.9817505,0.2489624,0.140625,-3.015625,0.71875
336,-0.11035156,-0.96417236,0.24578857,0.1875,-2.140625,1.046875
337,-0.11645508,-0.9505005,0.2399292,0.375,-1.921875,0.25
338,-0.114990234,-0.97052,0.23577881,8.984375,-2.625,2.21875
339,-0.06689453,-1.0059204,0.2033081,2.296875,1.5,3.34375
340,-0.061279297,-0.9956665,0.23114014,-3.46875,5.203125,-2.40625
341,-0.1105957,-0.9939575,0.22332764,-5.71875,2.609375,-0.78125
342,-0.11254883,-0.97125244,0.26531982,-1.8125,7.15625,-0.6875
343,-0.115722656,-1.0022583,0.25653076,-5.5,-0.15625,-1.21875
344,-0.13696289,-0.9492798,0.24407959,-5.375,-7.46875,-3.546875
345,-0.114746094,-0.95758057,0.1864624,10.484375,-5.0625,-1.46875
346,-0.115234375,-0.97662354,0.16253662,9.15625,2.640625,2.96875
347,-0.087646484,-0.97540283,0.19696045,4.234375,1.859375,3.875
348,-0.10595703,-0.95269775,0.23284912,-2.296875,-1.140625,3.390625
349,-0.12036133,-0.98101807,0.23309326,-3.5,-5.09375,2.171875
350,-0.095458984,-0.9805298,0.25823975,-4.203125,-6.609375,0.234375
351,-0.07055664,-1.0003052,0.23480225,-1.59375,-0.453125,-1.4375
352,-0.1027832,-0.9854126,0.2062378,-3.4375,1.765625,-0.96875
353,-0.10961914,-0.95977783,0.22528076,0.203125,-1.109375,-0.1875
354,-0.10986328,-0.9824829,0.23944092,0.484375,-2.65625,-0.015625
355,-0.11450195,-0.96343994,0.22137451,-1.46875,-1.046875,0.3125
356,-0.11254883,-0.96221924,0.22381592,3.3125,-1.671875,0.375
357,-0.0949707,-0.9973755,0.21331787,2.25,-1.40625,2.1875
358,-0.047851562,-0.98443604,0.21160889,-2.296875,2.765625,0.421875
359,-0.049316406,-1.0117798,0.2387085,-1.71875,7.671875,-4.171875
360,-0.14892578,-0.972229,0.24603271,-0.078125,6.09375,-0.109375
361,-0.10424805,-0.9624634,0.27947998,2.1875,9.921875,-1.25
362,-0.12817383,-0.98394775,0.22796631,-8.71875,-3.859375,-2.4375
363,-0.111328125,-0.93829346,0.20574951,-7.53125,-9.3125,-3.90625
364,-0.0769043,-0.9612427,0.2008667,1.328125,-8.5625,-2.390625
365,-0.13793945,-1.019104,0.17327881,12.53125,-2.921875,2.546875
366,-0.09838867,-0.96295166,0.199646,2.734375,0.65625,2.234375
367,-0.11767578,-0.9619751,0.20965576,-0.84375,-1.453125,1.90625
368,-0.12988281,-0.96881104,0.22991943,-5.453125,-5.578125,3.125
369,-0.10864258,-0.9812622,0.27191162,-5.609375,-6.921875,0.890625
370,-0.06762695,-0.9998169,0.24139404,-4.96875,-0.21875,-2.359375
371,-0.099853516,-0.98760986,0.21209717,-7.71875,2.734375,-1.390625
372,-0.11425781,-0.9529419,0.24310303,-0.578125,-1.4375,-0.234375
373,-0.123046875,-0.98565674,0.2584839,2.046875,-2.734375,0.984375
374,-0.12182617,-0.96759033,0.24822998,3.21875,-0.078125,0.328125
375,-0.11743164,-0.9763794,0.230896,3.265625,2.53125,3.375
376,-0.080322266,-0.98760986,0.2230835,3.8125,2.453125,2.515625
377,-0.075927734,-0.9795532,0.21014404,4.796875,-0.9375,0.125
378,-0.07495117,-0.98394775,0.23382568,1.421875,-2.40625,0.875
379,-0.10839844,-0.9714966,0.21429443,-2.59375,-2.15625,0.328125
380,-0.1328125,-0.96759033,0.20428467,-0.78125,0.390625,-0.390625
381,-0.08227539,-0.9944458,0.22113037,1.09375,1.296875,1.375
382,-0.076416016,-1.0005493,0.21014404,2.953125,-0.6875,1.71875
383,-0.09082031,-0.96539307,0.21087646,0.5625,-2.0,1.390625
384,-0.115234375,-0.96539307,0.20672607,-3.25,-1.25,0.0625
385,-0.095214844,-0.987854,0.20697021,-2.765625,0.0625,-0.265625
386,-0.080078125,-0.9902954,0.2164917,-4.5,-1.625,-0.453125
387,-0.100097656,-0.9746704,0.22943115,-2.0625,-2.8125,0.0
388,-0.107666016,-0.98931885,0.22772217,-2.65625,-1.15625,0.0625
389,-0.08935547,-0.9661255,0.2164917,-4.0,-0.09375,-0.6875
390,-0.103515625,-0.96954346,0.24505615,-3.0,-1.0,-0.875
391,-0.084472656,-1.0029907,0.23797607,-0.59375,-0.546875,-0.203125
392,-0.1081543,-0.9780884,0.23309326,0.359375,-0.328125,-0.046875
393,-0.109375,-0.9871216,0.23162842,2.125,-1.1875,0.734375
394,-0.09301758,-0.9690552,0.22796631,0.09375,0.859375,0.21875
395,-0.08496094,-0.97662354,0.22650146,-3.09375,1.140625,-2.78125
396,-0.095703125,-0.9883423,0.23675537,-1.4375,-2.5,-2.046875
397,-0.09741211,-0.99053955,0.26068115,-9.171875,-1.125,-3.859375
398,-0.12719727,-0.96466064,0.27850342,-18.453125,1.59375,-8.28125
399,-0.125,-0.9602661,0.3324585,-13.15625,0.40625,-7.296875
400,-0.13110352,-0.97125244,0.276062,-6.75,-3.875,-3.6875
401,-0.15527344,-0.9404907,0.2399292,3.40625,-3.84375,-1.984375
402,-0.18115234,-0.9522095,0.24798584,17.4375,-2.6875,1.28125
403,-0.08886719,-0.96051025,0.20697021,11.640625,8.859375,4.53125
404,-0.08251953,-0.972229,0.23406982,3.78125,0.25,5.703125
405,-0.1430664,-0.9631958,0.26190186,1.921875,-0.703125,4.875
406,-0.107666016,-0.9780884,0.25042725,0.78125,-4.25,2.875
407,-0.10888672,-0.9776001,0.26531982,-3.0625,-5.640625,-1.46875
408,-0.096191406,-0.9805298,0.24603271,-2.609375,-1.359375,0.21875
409,-0.10131836,-0.97662354,0.24627686,-0.609375,-0.734375,0.953125
410,-0.1274414,-0.98931885,0.2514038,-0.578125,-2.546875,0.484375
411,-0.10668945,-0.9776001,0.24481201,0.28125,-1.59375,0.359375
412,-0.1184082,-0.96343994,0.2489624,-0.109375,-1.203125,-0.25
413,-0.11694336,-0.9627075,0.24456787,1.34375,0.53125,1.0625
414,-0.087890625,-0.9819946,0.22991943,-0.09375,1.875,2.0625
415,-0.071777344,-0.9859009,0.23797607,-3.078125,-0.109375,-0.828125
416,-0.10668945,-0.97125244,0.26312256,-3.328125,-2.875,-2.140625
417,-0.12890625,-0.9956665,0.27923584,-7.71875,-2.984375,-2.34375
418,-0.123535156,-0.96466064,0.32000732,-14.875,-1.625,-7.40625
419,-0.1394043,-0.94781494,0.2753296,-11.125,-8.734375,-6.125
420,-0.11791992,-0.97735596,0.23944092,1.734375,-4.359375,-1.90625
421,-0.1352539,-0.91290283,0.23895264,0.734375,-3.921875,-0.75
422,-0.17016602,-0.97540283,0.24969482,13.984375,-3.546875,1.171875
423,-0.087402344,-0.9915161,0.21063232,8.5,10.03125,5.25
424,-0.107177734,-0.95391846,0.24188232,0.40625,1.90625,5.78125
425,-0.13989258,-0.9517212,0.27215576,1.59375,1.59375,4.1875
426,-0.1381836,-1.003479,0.2723999,1.15625,-2.453125,0.859375
427,-0.104003906,-0.97076416,0.2518921,-2.75,-3.8125,-1.15625
428,-0.1105957,-0.96661377,0.23236084,-1.21875,-0.578125,0.453125
429,-0.119628906,-0.9932251,0.24847412,0.96875,-0.09375,1.234375
430,-0.1003418,-0.9924927,0.24383545,1.5,-1.703125,1.25
431,-0.11621094,-0.9668579,0.25115967,0.515625,-0.75,0.8125
432,-0.12451172,-0.9590454,0.24945068,1.625,-0.125,0.734375
433,-0.122558594,-0.97052,0.23626709,2.890625,1.9375,-0.46875
434,-0.1081543,-0.9817505,0.24066162,3.8125,2.34375,3.40625
435,-0.06762695,-0.9939575,0.21844482,0.234375,0.265625,-0.6875
436,-0.091796875,-0.9734497,0.24188232,-0.984375,0.0625,-2.5
437,-0.12890625,-0.9866333,0.2501831,-5.96875,-0.25,-2.34375
438,-0.13305664,-0.9883423,0.2819214,-13.109375,0.921875,-5.5
439,-0.1315918,-0.9595337,0.2850952,-10.96875,-4.6875,-5.5
440,-0.12597656,-0.9859009,0.25360107,-5.0625,-3.484375,-2.625
441,-0.14135742,-0.9404907,0.24627686,-2.4375,-0.140625,-1.40625
442,-0.16210938,-0.9421997,0.21038818,11.484375,-6.0,-0.203125
443,-0.095214844,-0.99176025,0.20648193,10.0,1.484375,2.890625
444,-0.099853516,-0.9585571,0.22576904,5.4375,0.71875,4.625
445,-0.13916016,-0.96417236,0.23358154,3.328125,3.078125,4.6875
446,-0.13842773,-0.97442627,0.2616577,1.453125,-2.75,4.6875
447,-0.12963867,-0.989563,0.2597046,-0.78125,-7.375,2.578125
448,-0.100097656,-0.9656372,0.24676514,-4.234375,-2.015625,-0.84375
449,-0.11694336,-0.97442627,0.23651123,-4.40625,-0.921875,0.375
450,-0.111083984,-0.9890747,0.2489624,-0.96875,-1.78125,0.6875
451,-0.107177734,-0.986145,0.23626709,-1.703125,-1.734375,-0.4375
452,-0.12109375,-0.9529419,0.24603271,-0.703125,-0.90625,-0.109375
453,-0.13427734,-0.9663696,0.24871826,-1.09375,0.484375,-0.53125
454,-0.11035156,-0.9807739,0.23651123,0.234375,-0.046875,-0.328125
455,-0.1081543,-0.987854,0.23406982,0.75,-1.28125,-0.078125
456,-0.10473633,-0.96759033,0.24481201,-0.359375,-1.8125,-0.203125
457,-0.115722656,-0.9685669,0.23504639,-0.078125,-1.40625,-0.5
458,-0.11352539,-0.96466064,0.22796631,-0.90625,-0.21875,0.578125
459,-0.11035156,-0.98150635,0.23309326,-0.703125,-0.953125,0.3125
460,-0.11328125,-0.98760986,0.23797607,-0.984375,-0.84375,1.5
461,-0.12133789,-0.9680786,0.24847412,0.140625,-0.984375,0.71875
462,-0.114990234,-0.9656372,0.23529053,-0.59375,-0.671875,0.984375
463,-0.09692383,-0.98150635,0.23236084,-1.6875,-0.203125,0.03125
464,-0.103515625,-0.9741821,0.24359131,-1.046875,0.5625,1.40625
465,-0.09814453,-0.98516846,0.24798584,1.28125,-0.3125,1.03125
466,-0.11645508,-0.9649048,0.24725342,2.125,-1.5,0.765625
467,-0.10839844,-0.9692993,0.22064209,3.09375,-0.046875,1.640625
468,-0.099853516,-0.9697876,0.22088623,1.015625,2.25,1.9375
469,-0.09301758,-0.986145,0.2218628,0.265625,0.21875,1.21875
470,-0.084472656,-0.98443604,0.23553467,0.84375,-1.015625,1.875
471,-0.09863281,-0.97540283,0.21795654,-0.6875,-0.984375,0.234375
472,-0.11279297,-0.9624634,0.23284912,3.03125,0.1875,0.53125
473,-0.09375,-0.9817505,0.2243042,2.15625,2.21875,2.375
474,-0.060302734,-0.9944458,0.19866943,2.40625,1.3125,0.859375
475,-0.078125,-0.9800415,0.22039795,-1.625,-0.828125,-3.53125
476,-0.0949707,-0.98223877,0.22503662,-6.75,1.3125,-3.734375
477,-0.14624023,-0.989563,0.25360107,-16.90625,-3.921875,-7.890625
478,-0.12890625,-0.9717407,0.3007202,-20.875,-7.40625,-9.4375
479,-0.10961914,-0.9529419,0.29388428,-17.59375,-4.859375,-4.8125
480,-0.14550781,-0.95562744,0.27264404,0.3125,-1.046875,-1.96875
481,-0.15405273,-0.92315674,0.24456787,11.28125,-3.90625,0.375
482,-0.14086914,-0.9937134,0.22576904,19.9375,2.34375,2.109375
483,-0.09838867,-0.9446411,0.246521,15.296875,8.75,7.40625
484,-0.1315918,-0.9627075,0.23651123,6.015625,2.8125,6.203125
485,-0.1184082,-0.9846802,0.23406982,5.59375,0.859375,4.234375
486,-0.10522461,-0.98516846,0.21722412,-1.390625,-4.765625,0.546875
487,-0.079589844,-0.97735596,0.23553467,-4.375,-5.453125,-0.1875
488,-0.12158203,-0.9763794,0.2230835,-4.953125,-4.859375,-1.484375
489,-0.12988281,-0.98223877,0.23602295,-2.40625,-1.5625,-0.171875
490,-0.107666016,-0.98394775,0.23724365,-1.140625,-1.796875,0.6875
491,-0.12402344,-0.9890747,0.2411499,0.28125,-1.3125,-0.296875
492,-0.12475586,-0.94659424,0.2345581,2.640625,1.421875,0.796875
493,-0.10180664,-0.9849243,0.22869873,6.078125,2.171875,3.40625
494,-0.059570312,-0.9783325,0.21234131,1.65625,5.765625,2.765625
495,-0.114746094,-0.98760986,0.21502686,-4.984375,-2.328125,-4.1875
496,-0.103515625,-0.991272,0.24481201,-5.4375,-1.890625,-4.09375
497,-0.11352539,-0.9788208,0.26507568,-13.90625,-5.03125,-6.34375
498,-0.16040039,-0.9585571,0.2772827,-23.421875,-7.875,-7.15625
499,-0.15307617,-0.94537354,0.27996826,-5.5625,-1.3125,-3.296875
500,-0.123046875,-0.9944458,0.25164795,3.1875,0.515625,-0.484375
501,-0.13061523,-0.9192505,0.24456787,5.234375,-5.9375,1.0
502,-0.11791992,-0.9602661,0.20452881,14.875,-0.25,2.375
503,-0.09033203,-0.9829712,0.21820068,7.453125,6.609375,5.796875
504,-0.1394043,-0.9512329,0.24554443,6.390625,-0.9375,5.265625
505,-0.13061523,-0.99005127,0.25506592,1.78125,-1.0625,5.953125
506,-0.11621094,-0.9951782,0.2579956,-2.078125,-4.6875,1.609375
507,-0.107421875,-0.9607544,0.230896,-3.75,-3.375,-0.546875
508,-0.1015625,-0.97076416,0.23577881,-4.09375,-1.125,0.359375
509,-0.10424805,-0.98809814,0.24969482,1.484375,-2.125,2.109375
510,-0.09472656,-0.9866333,0.23553467,-1.4375,-2.484375,1.578125
511,-0.125,-0.9656372,0.25091553,-0.296875,-2.34375,0.765625
512,-0.12475586,-0.9522095,0.24041748,3.84375,0.5625,3.109375
513,-0.05834961,-0.99713135,0.21917725,4.6875,5.875,2.109375
514,-0.07739258,-0.9924927,0.21502686,-0.5,-0.4375,-3.390625
515,-0.09863281,-0.9927368,0.24163818,-2.609375,-3.359375,-2.75
516,-0.12792969,-0.9890747,0.24871826,-12.21875,-2.0,-4.375
517,-0.15307617,-0.97052,0.2843628,-16.109375,-0.46875,-6.90625
518,-0.11791992,-0.9429321,0.2741089,-13.609375,-5.03125,-3.71875
519,-0.11206055,-0.99468994,0.25823975,-0.421875,-1.015625,-1.375
520,-0.14208984,-0.9439087,0.24407959,0.3125,-1.046875,-0.84375
521,-0.13574219,-0.96295166,0.24188232,17.390625,-3.8125,2.375
522,-0.09082031,-0.9512329,0.21795654,7.46875,4.71875,4.421875
523,-0.11376953,-0.9697876,0.22283936,6.015625,2.71875,4.9375
524,-0.11230469,-0.96539307,0.24822998,0.515625,1.078125,4.703125
525,-0.12133789,-0.98101807,0.26922607,-0.25,-6.6875,4.203125
526,-0.09326172,-0.9841919,0.24798584,-3.921875,-4.609375,-0.203125
527,-0.09838867,-0.97320557,0.23944092,-4.4375,-2.09375,-0.78125
528,-0.107910156,-0.97906494,0.24212646,-0.1875,-0.78125,0.765625
529,-0.09790039,-0.98687744,0.23773193,-0.3125,-2.015625,0.796875
530,-0.10864258,-0.9746704,0.24188232,0.390625,-2.8125,0.59375
531,-0.11254883,-0.9741821,0.2387085,2.1875,-0.078125,1.328125
532,-0.08935547,-0.96710205,0.22747803,0.015625,1.0625,1.25
533,-0.09716797,-0.9807739,0.23626709,0.203125,0.09375,0.515625
534,-0.08569336,-0.99346924,0.2423706,1.46875,-0.96875,0.578125
535,-0.11010742,-0.972229,0.23114014,-1.234375,-0.953125,-0.46875
536,-0.10864258,-0.9697876,0.22210693,0.015625,-0.59375,0.21875
537,-0.08984375,-0.9907837,0.22869873,0.28125,0.40625,1.78125
538,-0.09033203,-0.9854126,0.22576904,2.359375,-0.125,2.34375
539,-0.0949707,-0.9819946,0.21917725,0.671875,-0.28125,1.53125
540,-0.099121094,-0.96173096,0.22210693,-1.453125,0.515625,0.234375
541,-0.0793457,-0.9824829,0.22381592,-1.296875,0.390625,0.78125
542,-0.08105469,-0.98101807,0.22454834,-2.203125,0.09375,-0.390625
543,-0.100097656,-0.97369385,0.23236084,-1.203125,-1.046875,-0.65625
544,-0.08300781,-0.9788208,0.22845459,0.125,-1.125,0.109375
545,-0.10644531,-0.98321533,0.22918701,0.390625,-1.125,0.4375
546,-0.09790039,-0.9685669,0.21673584,-0.0625,0.34375,0.59375
547,-0.08251953,-0.9793091,0.22161865,-0.3125,0.078125,0.453125
548,-0.09301758,-0.9873657,0.22601318,-0.46875,-0.71875,0.671875
549,-0.10180664,-0.975647,0.22991943,0.609375,-0.671875,0.078125
550,-0.083740234,-0.98687744,0.22235107,-1.03125,0.03125,0.265625
551,-0.09814453,-0.9663696,0.23260498,1.265625,0.75,1.53125
552,-0.078125,-0.9939575,0.22406006,0.734375,1.515625,1.53125
553,-0.061523438,-0.9871216,0.21502686,-1.578125,-0.234375,-1.71875
554,-0.07836914,-0.96710205,0.21820068,-4.453125,-2.609375,-2.640625
555,-0.09448242,-1.0039673,0.24554443,-11.859375,-3.640625,-5.078125
556,-0.11645508,-0.960022,0.276062,-14.34375,-1.0,-8.921875
557,-0.11816406,-0.9795532,0.28997803,-5.953125,-1.140625,-4.65625
558,-0.14453125,-0.9702759,0.27215576,-4.796875,-5.296875,-3.21875
559,-0.12158203,-0.96343994,0.2506714,4.46875,-2.5,-1.59375
560,-0.12426758,-0.9404907,0.22747803,5.921875,-4.640625,0.6875
561,-0.118896484,-0.9871216,0.19598389,12.171875,2.046875,2.625
562,-0.07739258,-0.9944458,0.23675537,4.9375,4.96875,3.265625
563,-0.12915039,-0.94732666,0.24334717,-0.71875,-1.171875,4.171875
564,-0.11791992,-0.956604,0.24700928,1.5,-0.890625,3.921875
565,-0.10571289,-0.99957275,0.25823975,-0.875,-3.78125,-0.078125
566,-0.09399414,-0.9649048,0.2506714,-1.65625,-2.34375,0.828125
567,-0.11401367,-0.9644165,0.23187256,-1.015625,-2.328125,-0.25
568,-0.12182617,-0.98883057,0.23236084,-1.703125,-1.953125,-1.359375
569,-0.09643555,-0.9837036,0.23504639,0.515625,-0.84375,-0.015625
570,-0.11254883,-0.9763794,0.246521,-0.09375,-2.390625,-0.875
571,-0.1303711,-0.9656372,0.2345581,-0.34375,-0.203125,-0.203125
572,-0.11279297,-0.9663696,0.2411499,-1.109375,1.390625,-0.703125
573,-0.104003906,-0.9768677,0.23944092,-1.109375,0.921875,-0.984375
574,-0.10131836,-0.9849243,0.23382568,-2.578125,-0.3125,-2.796875
575,-0.11401367,-0.986145,0.246521,-6.59375,-2.234375,-3.09375
576,-0.122802734,-0.9834595,0.28363037,-10.09375,-1.09375,-3.890625
577,-0.13085938,-0.9763794,0.3036499,-9.734375,0.96875,-6.09375
578,-0.14697266,-0.9751587,0.2579956,-7.109375,-2.0,-3.609375
579,-0.123535156,-0.9541626,0.25531006,-1.28125,-1.484375,-2.625
580,-0.14672852,-0.93048096,0.22772217,6.65625,-3.484375,-0.078125
581,-0.15209961,-0.95269775,0.24041748,12.328125,-0.828125,2.296875
582,-0.11987305,-0.96832275,0.21136475,10.234375,3.921875,3.90625
583,-0.10864258,-0.944397,0.23260498,1.859375,2.6875,6.421875
584,-0.13745117,-0.99005127,0.2597046,4.21875,0.546875,4.671875
585,-0.114746094,-0.9961548,0.25286865,0.796875,-3.59375,2.96875
586,-0.1015625,-0.9763794,0.2477417,-2.3125,-3.28125,-1.328125
587,-0.115478516,-0.9678345,0.22576904,-3.765625,-0.734375,-1.0
588,-0.13012695,-0.96759033,0.22576904,-3.65625,-0.828125,-0.890625
589,-0.10668945,-0.98931885,0.24359131,0.40625,-2.796875,1.9375
590,-0.11206055,-0.9644165,0.2506714,-2.34375,-2.40625,1.171875
591,-0.14282227,-0.95440674,0.24432373,-0.859375,-2.875,-0.71875
592,-0.1184082,-0.9639282,0.24676514,0.375,1.328125,1.359375
593,-0.10644531,-0.9841919,0.23699951,-2.015625,0.359375,-0.28125
594,-0.08886719,-0.973938,0.25164795,-2.296875,-2.453125,-1.5
595,-0.12719727,-0.986145,0.24432373,-3.640625,-2.296875,-0.578125
596,-0.12695312,-0.98272705,0.26898193,-4.53125,0.953125,-3.328125
597,-0.12817383,-0.9776001,0.30291748,-8.046875,3.671875,-4.59375
598,-0.13574219,-0.991272,0.26922607,-3.6875,-2.40625,-3.546875
599,-0.1315918,-0.9439087,0.22723389,0.53125,-1.5,-1.125
600,-0.15429688,-0.928772,0.21673584,9.296875,-2.109375,0.671875
601,-0.11035156,-0.95635986,0.20135498,8.9375,1.84375,3.5625
602,-0.115722656,-0.97979736,0.22113037,6.28125,2.390625,6.21875
603,-0.11401367,-0.9805298,0.23529053,-0.671875,0.109375,4.5
604,-0.12207031,-0.9734497,0.2489624,2.5,-2.515625,3.71875
605,-0.10888672,-0.99224854,0.23602295,-2.25,-5.75,1.9375
606,-0.11328125,-0.9776001,0.23944092,-4.609375,-3.515625,-1.28125
607,-0.12011719,-0.9714966,0.24700928,-5.171875,-0.34375,0.578125
608,-0.10620117,-0.98931885,0.24627686,-2.078125,-0.875,0.4375
609,-0.10473633,-0.9788208,0.2423706,-0.1875,-2.734375,0.859375
610,-0.10913086,-0.9680786,0.2453003,0.203125,-1.25,0.625
611,-0.1105957,-0.9661255,0.24017334,0.78125,-0.28125,0.203125
612,-0.10913086,-0.9780884,0.22528076,1.390625,-1.265625,0.375
613,-0.08496094,-0.9949341,0.24578857,0.46875,-2.375,1.0
614,-0.11328125,-0.97442627,0.24725342,0.53125,-1.8125,0.625
615,-0.123535156,-0.97369385,0.23065186,-1.828125,0.125,0.515625
616,-0.099121094,-0.96661377,0.23895264,0.28125,1.6875,0.109375
617,-0.095703125,-0.9807739,0.22943115,-0.765625,-0.859375,0.984375
618,-0.103515625,-0.9883423,0.22918701,-0.703125,-1.03125,1.234375
619,-0.10522461,-0.96832275,0.24383545,-1.109375,0.03125,0.609375
620,-0.10888672,-0.9668579,0.23065186,-1.03125,0.328125,0.859375
621,-0.08569336,-0.97857666,0.22747803,-2.453125,-0.1875,-0.125
622,-0.10131836,-0.98272705,0.25115967,-1.34375,-1.1875,-0.109375
623,-0.092285156,-0.98443604,0.23626709,0.21875,-1.34375,0.59375
624,-0.109375,-0.9678345,0.23822021,-1.0,-0.546875,0.546875
625,-0.095214844,-0.9636841,0.23968506,-0.0625,-0.46875,-0.109375
626,-0.095947266,-0.9873657,0.24481201,-0.109375,-0.15625,0.5625
627,-0.09863281,-0.97369385,0.23260498,0.140625,-1.390625,0.96875
628,-0.10864258,-0.98101807,0.24334717,1.5625,-0.59375,0.46875
629,-0.09692383,-0.9690552,0.2296753,-0.296875,-0.078125,-0.03125
630,-0.09375,-0.97735596,0.24432373,1.953125,0.5625,0.953125
631,-0.0859375,-0.98638916,0.2098999,-1.328125,-2.453125,0.6875
632,-0.07885742,-0.9807739,0.2321167,-1.96875,-2.09375,-1.625
633,-0.091796875,-0.98687744,0.24627686,-4.515625,-0.0625,-2.4375
634,-0.09887695,-0.97491455,0.26019287,-7.296875,-1.34375,-3.84375
635,-0.109375,-0.9866333,0.27874756,-2.015625,1.109375,-4.625
636,-0.14013672,-0.9656372,0.26556396,-0.84375,2.578125,-2.875
637,-0.13867188,-0.98150635,0.2567749,6.65625,-1.921875,-2.125
638,-0.11669922,-0.9573364,0.1876831,7.234375,0.546875,1.015625
639,-0.08569336,-0.9517212,0.17816162,12.328125,-0.703125,2.9375
640,-0.08154297,-0.9834595,0.17889404,10.375,3.9375,7.28125
641,-0.10522461,-0.97369385,0.20184326,-2.140625,-0.3125,4.65625
642,-0.10205078,-0.9920044,0.23382568,-3.59375,-2.546875,2.171875
643,-0.09472656,-0.9771118,0.22894287,-3.59375,-5.3125,2.0
644,-0.09863281,-0.975647,0.22772217,-1.84375,-4.90625,-0.890625
645,-0.091552734,-0.9819946,0.20843506,-2.296875,-1.953125,0.140625
646,-0.09765625,-0.9829712,0.2074585,-1.96875,-1.390625,0.34375
647,-0.075927734,-0.98028564,0.22894287,-1.09375,-2.109375,0.46875
648,-0.103027344,-0.9807739,0.2255249,-0.96875,-2.84375,-0.40625
649,-0.10888672,-0.96954346,0.22039795,-2.140625,-0.15625,-0.875
650,-0.09448242,-0.97247314,0.22113037,-1.390625,0.421875,-0.015625
651,-0.08984375,-0.98809814,0.21820068,-2.5,-0.125,-1.203125
652,-0.09667969,-0.9805298,0.2218628,-1.90625,-1.1875,0.140625
653,-0.09448242,-0.98883057,0.23187256,-0.5,0.203125,0.40625
654,-0.09838867,-0.96466064,0.2218628,-1.515625,0.75,-0.5
655,-0.08178711,-0.9690552,0.22528076,-2.078125,0.96875,-0.234375
656,-0.07885742,-0.9920044,0.22259521,0.046875,-0.203125,1.15625
657,-0.088378906,-0.9902954,0.22210693,-0.625,-1.78125,0.40625
658,-0.09692383,-0.97052,0.2321167,-0.34375,-0.640625,0.671875
659,-0.08666992,-0.9768677,0.22747803,-1.34375,-0.21875,-0.421875
660,-0.087646484,-0.9800415,0.22576904,-0.40625,-0.234375,0.34375
661,-0.0769043,-0.986145,0.21966553,-0.390625,-0.59375,1.09375
662,-0.09790039,-0.99005127,0.22601318,1.28125,-0.65625,1.078125
663,-0.09814453,-0.96710205,0.22479248,0.484375,0.28125,1.671875
664,-0.08276367,-0.9714966,0.22381592,-1.515625,0.515625,-0.375
665,-0.08569336,-0.9714966,0.23846436,-0.640625,-1.03125,0.9375
666,-0.08569336,-0.98883057,0.2267456,1.21875,-0.78125,1.390625
667,-0.083740234,-0.9854126,0.2255249,-0.34375,-2.640625,0.5625
668,-0.09326172,-0.97491455,0.22747803,0.75,-0.171875,0.1875
669,-0.08227539,-0.98516846,0.22161865,-0.9375,0.078125,1.609375
670,-0.06982422,-0.98223877,0.22161865,-1.09375,0.125,-0.96875
671,-0.076660156,-0.975647,0.21966553,-2.28125,-2.25,-1.296875
672,-0.083984375,-0.9902954,0.2374878,-5.765625,-2.28125,-2.640625
673,-0.096191406,-0.9841919,0.25164795,-7.796875,-2.4375,-5.390625
674,-0.10058594,-0.9805298,0.26287842,-10.9375,0.625,-7.265625
675,-0.12158203,-0.97052,0.2892456,-8.609375,-2.734375,-6.546875
676,-0.115234375,-0.97076416,0.277771,-4.484375,-2.140625,-4.5625
677,-0.12426758,-0.9639282,0.2633667,-0.015625,-0.25,-3.296875
678,-0.11352539,-0.94195557,0.2633667,1.9375,-0.75,0.15625
679,-0.14379883,-0.95806885,0.26678467,-1.46875,0.046875,-0.234375
680,-0.1418457,-0.96661377,0.25506592,6.234375,-3.046875,-0.390625
681,-0.10498047,-0.96343994,0.20916748,10.375,-7.0625,2.15625
682,-0.103271484,-0.96417236,0.18621826,12.0,0.421875,3.453125
683,-0.10498047,-0.9602661,0.21624756,1.46875,-0.765625,5.109375
684,-0.13476562,-0.9793091,0.23480225,-0.015625,-0.78125,4.6875
685,-0.115722656,-0.9783325,0.24188232,-1.171875,-6.25,4.296875
686,-0.08862305,-0.99835205,0.23822021,-0.953125,-4.03125,1.09375
687,-0.09692383,-0.9898071,0.23187256,-1.796875,0.453125,0.203125
688,-0.11010742,-0.97906494,0.21844482,0.125,0.921875,0.546875
689,-0.09375,-0.9751587,0.22235107,-1.59375,0.96875,0.828125
690,-0.09350586,-0.97198486,0.23406982,-0.484375,-0.90625,-0.140625
691,-0.10913086,-0.96954346,0.23187256,-2.515625,-1.09375,-0.390625
692,-0.10620117,-0.98638916,0.22283936,0.390625,-0.484375,-0.359375
693,-0.08984375,-0.98028564,0.22454834,-0.015625,-0.546875,-0.28125
694,-0.08959961,-0.97442627,0.2189331,0.671875,-0.890625,0.765625
695,-0.09838867,-0.97076416,0.22747803,-2.390625,-2.1875,1.1875
696,-0.10424805,-0.97662354,0.23651123,-3.15625,-1.203125,-1.328125
697,-0.114746094,-0.9985962,0.23309326,-3.640625,-0.984375,-1.0
698,-0.091552734,-0.9780884,0.23626709,-1.546875,-0.375,0.03125
699,-0.09692383,-0.9734497,0.230896,0.171875,0.390625,0.03125
700,-0.10424805,-0.9612427,0.23553467,0.25,-0.484375,0.4375
701,-0.111572266,-0.9829712,0.2453003,0.8125,-1.0,0.03125
702,-0.10546875,-0.9780884,0.22113037,2.046875,-1.015625,1.1875
703,-0.09863281,-0.9780884,0.22723389,0.28125,0.59375,1.625
704,-0.08178711,-0.96832275,0.22796631,-0.6875,0.4375,0.515625
705,-0.087402344,-0.97979736,0.23358154,-1.28125,-0.5625,0.03125
706,-0.10668945,-0.9829712,0.23919678,-1.0,-0.6875,-0.671875
707,-0.10668945,-0.9746704,0.22821045,-0.921875,0.3125,-0.5
708,-0.09423828,-0.9771118,0.22235107,-0.609375,0.53125,0.0
709,-0.106933594,-0.98443604,0.24163818,-1.3125,-0.765625,-0.09375
710,-0.095703125,-0.9800415,0.22210693,0.34375,-1.046875,0.84375
711,-0.103271484,-0.9741821,0.23187256,-0.484375,0.015625,-0.453125
712,-0.11987305,-0.96588135,0.23553467,-2.265625,-0.21875,0.46875
713,-0.068115234,-0.9819946,0.23553467,-0.390625,0.15625,-1.6875
714,-0.09277344,-0.98687744,0.23040771,-2.234375,-1.75,-1.625
715,-0.11254883,-0.9981079,0.25872803,-2.25,-0.59375,-1.203125
716,-0.11743164,-0.9859009,0.27386475,-4.953125,4.890625,-4.046875
717,-0.12890625,-0.98150635,0.27337646,-5.1875,2.828125,-4.421875
718,-0.111816406,-0.97076416,0.2230835,10.515625,-1.734375,-0.015625
719,-0.08276367,-0.9404907,0.1798706,5.078125,1.234375,0.453125
720,-0.13330078,-0.9614868,0.21356201,7.125,-3.453125,1.8125
721,-0.09057617,-0.97198486,0.20574951,0.453125,0.40625,4.25
722,-0.10571289,-0.98516846,0.22747803,-0.640625,1.546875,3.640625
723,-0.10083008,-0.9846802,0.21575928,-1.21875,-1.65625,1.609375
724,-0.08154297,-0.96832275,0.23284912,-0.96875,-3.28125,1.3125
725,-0.10522461,-0.9829712,0.2296753,-0.625,-3.78125,-0.34375
726,-0.091308594,-0.9780884,0.21844482,-4.390625,-1.484375,-1.15625
727,-0.095947266,-0.9871216,0.23651123,-3.140625,-2.21875,-0.296875
728,-0.092041016,-0.9885864,0.23284912,-0.828125,-2.828125,-0.125
729,-0.103759766,-0.97906494,0.22894287,-1.265625,-2.390625,-0.625
730,-0.107666016,-0.9661255,0.23284912,-1.25,-2.203125,-0.34375
731,-0.10229492,-0.9817505,0.22845459,-1.84375,-0.34375,-0.296875
732,-0.10595703,-0.9846802,0.22601318,-1.1875,-2.796875,-1.34375
733,-0.09448242,-0.98394775,0.23724365,-1.03125,-1.03125,0.625
734,-0.114746094,-0.9768677,0.24017334,-1.0625,-1.59375,-0.015625
735,-0.111083984,-0.97125244,0.23406982,-1.859375,-0.140625,-0.1875
736,-0.09887695,-0.97784424,0.23358154,-2.421875,0.828125,-0.109375
737,-0.1015625,-0.9795532,0.23919678,-2.328125,-0.25,-0.4375
738,-0.103759766,-0.9734497,0.23968506,-2.0625,-1.203125,-0.5
739,-0.10986328,-0.9714966,0.24871826,-0.625,-0.4375,-0.1875
740,-0.10424805,-0.9805298,0.23919678,-2.140625,-0.921875,0.015625
741,-0.09790039,-0.97198486,0.2399292,-3.09375,0.28125,-0.015625
742,-0.10888672,-0.96881104,0.24847412,-1.40625,-0.328125,-0.34375
743,-0.099121094,-0.98443604,0.24041748,-1.484375,-0.421875,0.171875
744,-0.103515625,-0.9651489,0.2531128,-0.9375,-0.34375,-0.046875
745,-0.111816406,-0.97369385,0.2453003,-0.109375,-0.671875,0.625
746,-0.10131836,-0.9741821,0.24310303,-1.015625,-0.1875,0.71875
747,-0.10498047,-0.9717407,0.2579956,-0.46875,-0.375,0.375
748,-0.1081543,-0.9685669,0.25360107,-0.28125,-0.28125,0.703125
749,-0.10449219,-0.9758911,0.25457764,0.46875,-0.53125,0.5
750,-0.115722656,-0.97198486,0.24627686,1.078125,-0.65625,0.9375
