sample_no,accel_x,accel_y,accel_z,gyro_x,gyro_y,gyro_z
0,0.26367188,-0.35186768,-0.8381958,-0.765625,0.34375,-0.359375
1,0.26513672,-0.3460083,-0.8274536,-0.71875,0.25,-0.234375
2,0.26831055,-0.34991455,-0.82598877,-0.53125,0.65625,-0.390625
3,0.2607422,-0.3430786,-0.8311157,0.015625,0.859375,-0.390625
4,0.2614746,-0.35064697,-0.8296509,-0.34375,0.515625,-0.3125
5,0.26123047,-0.3526001,-0.84039307,-0.84375,0.609375,-0.234375
6,0.2607422,-0.34820557,-0.8320923,-1.125,0.421875,-0.40625
7,0.27294922,-0.35455322,-0.8442993,-1.109375,0.03125,-0.359375
8,0.2590332,-0.3550415,-0.8267212,-0.96875,-0.265625,-0.21875
9,0.26831055,-0.348938,-0.83721924,-1.140625,-0.75,0.0625
10,0.26391602,-0.35479736,-0.82037354,-0.84375,-0.421875,-0.078125
11,0.26464844,-0.34405518,-0.831604,-0.25,-0.375,-0.078125
12,0.27075195,-0.3550415,-0.831604,-0.609375,-0.109375,-0.09375
13,0.26464844,-0.348938,-0.8230591,0.125,0.265625,-0.15625
14,0.27563477,-0.34381104,-0.84576416,-0.359375,0.109375,-0.203125
15,0.27148438,-0.3501587,-0.8296509,-1.125,-0.234375,-0.34375
16,0.27392578,-0.34527588,-0.8272095,-0.90625,0.015625,-0.34375
17,0.27124023,-0.3447876,-0.8257446,-0.421875,0.21875,-0.1875
18,0.26879883,-0.34161377,-0.82403564,-0.546875,0.15625,-0.234375
19,0.26464844,-0.3477173,-0.8323364,0.0,0.171875,-0.125
20,0.27026367,-0.34698486,-0.8357544,-0.453125,0.515625,-0.296875
21,0.26538086,-0.348938,-0.82818604,-0.328125,0.328125,-0.328125
22,0.26953125,-0.34576416,-0.8362427,-0.484375,0.4375,-0.1875
23,0.26513672,-0.34259033,-0.8286743,-0.25,0.140625,-0.328125
24,0.2697754,-0.3430786,-0.83477783,-0.296875,0.03125,-0.09375
25,0.2685547,-0.3418579,-0.8328247,-0.5,0.515625,-0.234375
26,0.2685547,-0.34454346,-0.83062744,-0.171875,0.171875,-0.171875
27,0.2709961,-0.3435669,-0.82769775,0.0,-0.078125,-0.125
28,0.2734375,-0.3369751,-0.8296509,-0.703125,0.5,-0.453125
29,0.2644043,-0.33843994,-0.83599854,-0.625,0.4375,-0.359375
30,0.27270508,-0.34552002,-0.8394165,-0.875,0.578125,-0.390625
31,0.26489258,-0.348938,-0.82354736,-0.84375,0.828125,-0.484375
32,0.2644043,-0.3447876,-0.8308716,-0.4375,0.703125,-0.421875
33,0.26171875,-0.3418579,-0.8374634,-0.421875,0.71875,-0.4375
34,0.265625,-0.34796143,-0.8323364,-0.0625,0.6875,-0.21875
35,0.27197266,-0.34259033,-0.8374634,0.203125,0.671875,-0.375
36,0.25634766,-0.348938,-0.8389282,-0.921875,0.609375,-0.484375
37,0.26000977,-0.34527588,-0.831604,-1.171875,0.609375,-0.640625
38,0.25683594,-0.33770752,-0.8220825,-0.46875,0.734375,-0.4375
39,0.26049805,-0.34869385,-0.8377075,-0.5,1.09375,-0.40625
40,0.25830078,-0.34747314,-0.8369751,-0.5,0.34375,-0.515625
41,0.26220703,-0.34161377,-0.8311157,-0.140625,0.484375,-0.25
42,0.25561523,-0.34820557,-0.83258057,-0.421875,-0.1875,-0.03125
43,0.2644043,-0.34210205,-0.835022,-0.953125,-0.265625,-0.078125
44,0.26586914,-0.3406372,-0.8311157,-0.65625,-0.25,-0.125
45,0.2626953,-0.3496704,-0.82403564,-0.328125,-0.15625,-0.34375
46,0.26708984,-0.34674072,-0.8442993,-0.640625,0.0,-0.171875
47,0.25683594,-0.34088135,-0.829895,-0.484375,0.40625,-0.28125
48,0.26245117,-0.34429932,-0.833313,-0.25,0.1875,-0.140625
49,0.26635742,-0.3423462,-0.8345337,-0.75,0.296875,-0.28125
50,0.2619629,-0.34210205,-0.8335571,-0.796875,0.296875,-0.296875
51,0.26611328,-0.34503174,-0.8291626,-0.703125,0.515625,-0.296875
52,0.26342773,-0.3477173,-0.83551025,-0.890625,0.40625,-0.328125
53,0.26635742,-0.34674072,-0.8303833,0.03125,0.171875,-0.3125
54,0.26342773,-0.34014893,-0.8428345,-0.4375,0.5625,-0.25
55,0.2680664,-0.3460083,-0.835022,-0.171875,0.515625,-0.4375
56,0.25756836,-0.34161377,-0.8242798,0.203125,1.0,-0.453125
57,0.25732422,-0.33868408,-0.84332275,-0.203125,1.109375,-0.453125
58,0.26049805,-0.34283447,-0.8377075,0.109375,0.453125,-0.25
59,0.25756836,-0.33868408,-0.8430786,-0.1875,0.59375,-0.265625
60,0.25976562,-0.34039307,-0.83477783,-0.9375,0.328125,-0.484375
61,0.26098633,-0.32940674,-0.8296509,-0.265625,0.625,-0.390625
62,0.26171875,-0.33184814,-0.84332275,-0.4375,1.421875,-0.484375
63,0.2644043,-0.3399048,-0.8352661,-0.625,1.078125,-0.4375
64,0.2590332,-0.3369751,-0.83380127,0.65625,0.890625,-0.34375
65,0.2590332,-0.3394165,-0.8562622,-0.71875,0.21875,-0.203125
66,0.2475586,-0.33428955,-0.8250122,-0.5625,-0.046875,-0.171875
67,0.2553711,-0.32843018,-0.84576416,-0.953125,-0.203125,-0.3125
68,0.2590332,-0.33477783,-0.8303833,-1.46875,-0.078125,-0.40625
69,0.25610352,-0.34405518,-0.84454346,-1.734375,-0.234375,-0.453125
70,0.25585938,-0.33966064,-0.8357544,-1.171875,-0.40625,-0.140625
71,0.26098633,-0.3369751,-0.83599854,-1.0625,-0.421875,-0.171875
72,0.25341797,-0.33843994,-0.81866455,-0.59375,-0.109375,-0.234375
73,0.2619629,-0.33721924,-0.8369751,-0.765625,0.0625,-0.078125
74,0.25952148,-0.3406372,-0.83428955,-0.6875,0.28125,-0.4375
75,0.25952148,-0.3394165,-0.8377075,0.28125,0.78125,-0.203125
76,0.2548828,-0.33721924,-0.8335571,-0.53125,0.5,-0.171875
77,0.26049805,-0.34210205,-0.8394165,-0.5625,0.328125,-0.34375
78,0.2553711,-0.33624268,-0.84454346,-0.375,0.0625,-0.28125
79,0.25976562,-0.33721924,-0.8399048,-0.671875,-0.078125,-0.34375
80,0.2541504,-0.3430786,-0.83258057,-0.359375,0.65625,-0.171875
81,0.26342773,-0.3352661,-0.8374634,-0.1875,0.03125,-0.25
82,0.25830078,-0.33770752,-0.8389282,-0.59375,0.265625,-0.3125
83,0.25976562,-0.331604,-0.8311157,-0.609375,0.375,-0.25
84,0.25952148,-0.3357544,-0.8394165,-0.453125,0.421875,-0.25
85,0.2631836,-0.33551025,-0.8423462,-0.796875,0.171875,-0.3125
86,0.26220703,-0.33624268,-0.8364868,-0.609375,0.15625,-0.34375
87,0.25830078,-0.33477783,-0.8352661,-0.65625,-0.046875,-0.390625
88,0.26245117,-0.33770752,-0.8362427,-0.78125,0.28125,-0.28125
89,0.25756836,-0.3394165,-0.82232666,-0.515625,0.140625,-0.203125
90,0.26171875,-0.33673096,-0.8508911,-0.71875,0.109375,-0.296875
91,0.25805664,-0.333313,-0.8374634,-1.03125,0.265625,-0.390625
92,0.2524414,-0.33673096,-0.8311157,-0.65625,0.359375,-0.265625
93,0.2614746,-0.3320923,-0.8394165,-0.75,0.03125,-0.234375
94,0.25830078,-0.33135986,-0.83917236,-0.4375,0.078125,-0.1875
95,0.25976562,-0.3399048,-0.833313,-0.6875,0.5,-0.21875
96,0.25976562,-0.3345337,-0.8394165,-0.671875,0.109375,-0.25
97,0.25708008,-0.33966064,-0.83599854,-0.59375,0.46875,-0.25
98,0.2607422,-0.33502197,-0.84381104,-0.484375,0.21875,-0.21875
99,0.25708008,-0.33892822,-0.8399048,-0.484375,0.078125,-0.25
100,0.25585938,-0.33648682,-0.833313,-0.34375,0.25,-0.0625
101,0.2529297,-0.34161377,-0.8323364,-0.953125,0.03125,-0.265625
102,0.26123047,-0.32965088,-0.83135986,-0.921875,0.015625,-0.171875
103,0.2578125,-0.3328247,-0.82769775,-0.5,-0.015625,-0.328125
104,0.25634766,-0.3357544,-0.8377075,-0.65625,0.3125,-0.21875
105,0.25561523,-0.33843994,-0.8377075,-0.328125,0.484375,-0.21875
106,0.2614746,-0.34039307,-0.8394165,-0.921875,0.015625,-0.25
107,0.25976562,-0.33551025,-0.83599854,-1.03125,0.21875,-0.25
108,0.2548828,-0.3357544,-0.8323364,-0.9375,0.09375,-0.265625
109,0.2607422,-0.33380127,-0.8381958,-0.84375,0.359375,-0.265625
110,0.26342773,-0.3399048,-0.83380127,-0.53125,0.21875,-0.15625
111,0.26489258,-0.33233643,-0.83721924,-0.390625,0.359375,-0.03125
112,0.2668457,-0.3345337,-0.8411255,-0.796875,0.125,-0.125
113,0.25830078,-0.3303833,-0.8369751,-0.625,0.171875,-0.234375
114,0.25927734,-0.33917236,-0.8381958,-0.6875,0.390625,-0.265625
115,0.25390625,-0.3381958,-0.83551025,-0.921875,0.359375,-0.28125
116,0.25708008,-0.3369751,-0.8345337,-0.203125,0.34375,-0.3125
117,0.26123047,-0.3340454,-0.84210205,-0.640625,0.0625,-0.1875
118,0.25439453,-0.3394165,-0.83673096,-0.78125,0.25,-0.296875
119,0.2619629,-0.33624268,-0.83380127,-0.484375,0.359375,-0.359375
120,0.26342773,-0.33428955,-0.84039307,-0.9375,0.375,-0.359375
121,0.25317383,-0.33868408,-0.8335571,-0.609375,0.40625,-0.328125
122,0.25805664,-0.3381958,-0.83795166,-0.453125,0.15625,-0.140625
123,0.25634766,-0.33428955,-0.8447876,-0.875,-0.015625,-0.28125
124,0.25976562,-0.34014893,-0.83673096,-0.78125,-0.375,-0.09375
125,0.26416016,-0.33428955,-0.8411255,-0.65625,0.203125,-0.125
126,0.26416016,-0.33746338,-0.8320923,-0.75,0.09375,-0.375
127,0.25610352,-0.3381958,-0.83721924,-0.6875,0.390625,-0.203125
128,0.26391602,-0.33111572,-0.84088135,-0.6875,0.625,-0.21875
129,0.25585938,-0.3328247,-0.83551025,-0.890625,0.4375,-0.265625
130,0.2602539,-0.33795166,-0.8364868,-0.5625,0.125,-0.296875
131,0.2565918,-0.34332275,-0.84381104,-0.5625,0.40625,-0.28125
132,0.25512695,-0.34039307,-0.83428955,-0.625,0.421875,-0.328125
133,0.2553711,-0.33843994,-0.83135986,-0.421875,0.328125,-0.265625
134,0.25585938,-0.33892822,-0.83721924,-0.765625,0.265625,-0.328125
135,0.25585938,-0.33746338,-0.84503174,-1.75,0.1875,-0.5
136,0.25952148,-0.3435669,-0.8362427,-1.734375,-0.46875,0.0
137,0.26342773,-0.3406372,-0.8496704,-2.921875,-0.46875,-0.453125
138,0.2553711,-0.34014893,-0.83843994,-1.953125,-1.5,-0.21875
139,0.26293945,-0.33868408,-0.82110596,-1.40625,-1.5625,0.109375
140,0.26416016,-0.34210205,-0.82037354,-1.625,-0.359375,-0.21875
141,0.26879883,-0.3508911,-0.8250122,-0.640625,-0.46875,-0.09375
142,0.26489258,-0.34747314,-0.8428345,-0.4375,0.15625,-0.140625
143,0.2602539,-0.34039307,-0.831604,-0.421875,0.359375,-0.34375
144,0.27197266,-0.3423462,-0.8362427,-0.21875,0.5,-0.234375
145,0.26635742,-0.34088135,-0.83428955,-0.75,0.515625,-0.25
146,0.26391602,-0.34429932,-0.83135986,-0.4375,0.421875,-0.21875
147,0.2602539,-0.34039307,-0.83306885,-0.421875,0.375,-0.296875
148,0.26660156,-0.34503174,-0.835022,-0.40625,0.578125,-0.296875
149,0.265625,-0.3447876,-0.8286743,0.203125,0.21875,-0.1875
150,0.26342773,-0.34405518,-0.8418579,-0.546875,0.078125,-0.09375
151,0.2614746,-0.34283447,-0.83966064,-1.09375,-0.109375,-0.28125
152,0.26049805,-0.33966064,-0.8286743,-0.953125,0.328125,-0.359375
153,0.26489258,-0.34698486,-0.82940674,-0.78125,0.390625,-0.46875
154,0.26464844,-0.348938,-0.83428955,-0.046875,0.4375,-0.296875
155,0.2644043,-0.3381958,-0.84039307,-0.171875,0.453125,-0.296875
156,0.26660156,-0.3406372,-0.8381958,-0.78125,0.40625,-0.359375
157,0.2607422,-0.3394165,-0.8389282,-0.953125,0.203125,-0.40625
158,0.26220703,-0.34796143,-0.8257446,-0.625,0.203125,-0.40625
159,0.2685547,-0.34503174,-0.83062744,-0.296875,0.328125,-0.28125
160,0.26586914,-0.3394165,-0.84039307,0.0625,0.109375,-0.109375
161,0.26782227,-0.3423462,-0.8423462,-0.53125,0.109375,-0.046875
162,0.25878906,-0.34576416,-0.8308716,-0.53125,0.078125,0.015625
163,0.26049805,-0.3411255,-0.82403564,-0.625,-0.140625,-0.1875
164,0.2631836,-0.34552002,-0.8274536,-1.015625,-0.046875,-0.3125
165,0.26391602,-0.34014893,-0.8208618,-0.203125,0.203125,-0.109375
166,0.27124023,-0.3352661,-0.83917236,-0.484375,0.390625,-0.109375
167,0.2734375,-0.34210205,-0.8479614,-0.90625,0.46875,-0.375
168,0.26660156,-0.34649658,-0.83013916,-1.25,0.3125,-0.28125
169,0.265625,-0.34429932,-0.8394165,-1.4375,0.34375,-0.546875
170,0.25805664,-0.3399048,-0.8274536,-0.6875,0.8125,-0.5
171,0.265625,-0.33966064,-0.8335571,-0.734375,0.71875,-0.40625
172,0.27075195,-0.3484497,-0.8394165,-0.90625,0.828125,-0.359375
173,0.26049805,-0.34332275,-0.82818604,-0.640625,1.109375,-0.328125
174,0.26391602,-0.34869385,-0.84088135,-0.5625,0.765625,-0.40625
175,0.25561523,-0.3447876,-0.82891846,0.1875,0.375,-0.1875
176,0.25927734,-0.3369751,-0.8418579,-0.625,0.234375,-0.203125
177,0.26367188,-0.33966064,-0.8357544,-1.03125,-0.25,-0.0625
178,0.26464844,-0.3369751,-0.83184814,-0.390625,-0.046875,0.0
179,0.26123047,-0.34136963,-0.829895,-0.6875,0.03125,-0.1875
180,0.2607422,-0.3460083,-0.82598877,-0.765625,-0.265625,-0.25
181,0.2614746,-0.3381958,-0.82769775,-0.484375,-0.390625,-0.21875
182,0.2626953,-0.34259033,-0.8394165,-0.796875,-0.03125,-0.3125
183,0.26611328,-0.33966064,-0.82818604,-0.40625,-0.21875,-0.234375
184,0.2602539,-0.34210205,-0.835022,-0.53125,0.09375,-0.21875
185,0.26391602,-0.3411255,-0.83477783,-0.609375,0.625,-0.53125
186,0.25708008,-0.34014893,-0.8352661,-0.765625,0.28125,-0.296875
187,0.26708984,-0.3394165,-0.835022,-0.234375,0.375,-0.0625
188,0.2644043,-0.3394165,-0.8381958,-0.65625,0.359375,-0.375
189,0.2644043,-0.34381104,-0.8296509,-0.453125,0.25,-0.390625
190,0.2631836,-0.33795166,-0.8335571,-0.15625,0.46875,-0.296875
191,0.26049805,-0.3399048,-0.8401489,-0.84375,0.3125,-0.3125
192,0.2602539,-0.33868408,-0.8374634,-0.34375,-0.03125,-0.21875
193,0.25561523,-0.33428955,-0.835022,-0.046875,0.34375,-0.171875
194,0.26538086,-0.33843994,-0.8374634,-0.890625,-0.09375,-0.203125
195,0.26220703,-0.34039307,-0.83013916,-0.5,0.28125,-0.359375
196,0.26416016,-0.3352661,-0.8335571,-0.515625,0.53125,-0.515625
197,0.26220703,-0.3406372,-0.8345337,-0.484375,0.484375,-0.375
198,0.26391602,-0.34259033,-0.8357544,-0.234375,0.25,-0.203125
199,0.2536621,-0.3340454,-0.8369751,-0.5625,0.296875,-0.296875
200,0.2614746,-0.33428955,-0.83135986,-0.71875,0.078125,-0.140625
201,0.25830078,-0.33673096,-0.835022,-0.109375,0.46875,-0.34375
202,0.2631836,-0.3394165,-0.8357544,-0.6875,0.140625,-0.203125
203,0.26416016,-0.3357544,-0.84088135,-0.890625,-0.046875,-0.21875
204,0.26220703,-0.3399048,-0.829895,-0.546875,0.40625,-0.265625
205,0.26391602,-0.34136963,-0.83966064,-0.53125,0.359375,-0.21875
206,0.25732422,-0.33721924,-0.8352661,-0.4375,0.515625,-0.203125
207,0.26464844,-0.3320923,-0.8406372,-0.234375,0.46875,-0.296875
208,0.2619629,-0.34014893,-0.8423462,-0.953125,0.171875,-0.28125
209,0.26049805,-0.33966064,-0.83135986,-0.53125,0.1875,-0.140625
210,0.26489258,-0.34088135,-0.83843994,-0.6875,0.078125,-0.171875
211,0.2644043,-0.33843994,-0.83477783,-0.875,0.421875,-0.359375
212,0.26171875,-0.33428955,-0.83306885,-0.34375,0.328125,-0.25
213,0.2607422,-0.3352661,-0.8352661,-0.5625,0.203125,-0.203125
214,0.2668457,-0.333313,-0.8394165,-0.65625,0.171875,-0.1875
215,0.26000977,-0.33746338,-0.8323364,-0.3125,0.34375,-0.421875
216,0.2644043,-0.34088135,-0.8406372,-0.59375,0.1875,-0.25
217,0.26293945,-0.34161377,-0.82769775,-0.765625,0.171875,-0.34375
218,0.26049805,-0.3381958,-0.83258057,-0.71875,0.21875,-0.140625
219,0.26245117,-0.3340454,-0.83551025,-0.71875,0.109375,-0.25
220,0.25927734,-0.33917236,-0.8286743,-0.71875,0.328125,-0.21875
221,0.26416016,-0.33551025,-0.8442993,-0.15625,-0.46875,-0.21875
222,0.2590332,-0.33917236,-0.83917236,0.015625,0.171875,-0.140625
223,0.26367188,-0.33380127,-0.83551025,-0.5,0.109375,-0.171875
224,0.26489258,-0.33770752,-0.8440552,-0.859375,-0.28125,-0.171875
225,0.25830078,-0.33721924,-0.8381958,-0.75,0.03125,-0.140625
226,0.2565918,-0.3352661,-0.83795166,-0.859375,0.453125,-0.171875
227,0.26586914,-0.33795166,-0.83673096,-0.953125,0.375,-0.390625
228,0.26000977,-0.33502197,-0.83258057,-0.515625,0.1875,-0.390625
229,0.26708984,-0.34259033,-0.8386841,-0.8125,0.328125,-0.328125
230,0.2626953,-0.33966064,-0.83258057,-0.4375,0.25,-0.375
231,0.26342773,-0.33721924,-0.8374634,-0.953125,0.15625,-0.375
232,0.25634766,-0.32818604,-0.83184814,-0.703125,0.203125,-0.234375
233,0.25927734,-0.3279419,-0.8381958,-0.703125,0.1875,-0.3125
234,0.2614746,-0.33648682,-0.83184814,-1.0,0.578125,-0.390625
235,0.26635742,-0.33624268,-0.84332275,-1.3125,-0.359375,-0.28125
236,0.26708984,-0.33868408,-0.8377075,-1.421875,0.03125,-0.296875
237,0.2631836,-0.34259033,-0.82598877,-0.671875,0.078125,-0.171875
238,0.2631836,-0.33380127,-0.83428955,-1.0625,0.234375,-0.40625
239,0.25756836,-0.33770752,-0.8291626,-0.671875,0.171875,-0.1875
240,0.2614746,-0.34039307,-0.82476807,-1.0,0.03125,-0.265625
241,0.26245117,-0.34088135,-0.85406494,-1.796875,-0.109375,-0.5
242,0.26611328,-0.34259033,-0.831604,-1.5,0.234375,-0.265625
243,0.26586914,-0.3399048,-0.83184814,-0.21875,0.625,-0.171875
244,0.26879883,-0.34454346,-0.84039307,-1.328125,-0.03125,-0.34375
245,0.26367188,-0.3406372,-0.82037354,-0.75,-0.125,-0.21875
246,0.26367188,-0.3435669,-0.8308716,-0.421875,0.34375,-0.296875
247,0.26513672,-0.3430786,-0.83843994,-0.59375,0.765625,-0.578125
248,0.26733398,-0.33795166,-0.8328247,0.484375,0.390625,-0.25
249,0.25952148,-0.33770752,-0.8303833,-0.40625,0.46875,-0.1875
250,0.25927734,-0.34210205,-0.83380127,-0.5625,0.171875,-0.21875
251,0.26391602,-0.34088135,-0.8369751,-0.8125,0.296875,-0.234375
252,0.26342773,-0.3394165,-0.8345337,-0.625,0.21875,-0.328125
253,0.2631836,-0.33843994,-0.829895,-0.234375,0.140625,-0.1875
254,0.26123047,-0.3381958,-0.83721924,-0.1875,0.359375,-0.421875
255,0.25830078,-0.34039307,-0.8389282,-0.484375,0.34375,-0.296875
256,0.2553711,-0.3435669,-0.83477783,-0.375,0.28125,-0.15625
257,0.26000977,-0.3399048,-0.8377075,-0.1875,0.15625,-0.15625
258,0.25927734,-0.3430786,-0.8340454,-0.90625,0.25,-0.328125
259,0.25854492,-0.3435669,-0.83599854,-0.40625,0.234375,-0.328125
260,0.26391602,-0.33966064,-0.8394165,-0.5,0.140625,-0.34375
261,0.26098633,-0.33721924,-0.83477783,-0.71875,0.34375,-0.328125
262,0.26953125,-0.33673096,-0.8352661,-0.484375,0.0625,-0.21875
263,0.26489258,-0.33477783,-0.84088135,-0.78125,0.421875,-0.40625
264,0.2590332,-0.33673096,-0.8267212,-0.59375,-0.171875,-0.109375
265,0.2607422,-0.3423462,-0.8340454,-0.5625,0.328125,-0.28125
266,0.26733398,-0.33843994,-0.84210205,-0.9375,0.28125,-0.4375
267,0.26513672,-0.34332275,-0.8369751,-0.96875,0.671875,-0.4375
268,0.25756836,-0.34014893,-0.8201294,-0.5,0.125,-0.21875
269,0.26611328,-0.34039307,-0.8479614,-1.90625,0.078125,-0.53125
270,0.2631836,-0.34649658,-0.8311157,-1.765625,0.3125,-0.46875
271,0.25585938,-0.34552002,-0.8352661,-0.625,0.109375,-0.25
272,0.26342773,-0.3345337,-0.83135986,-0.46875,-0.15625,-0.109375
273,0.265625,-0.34674072,-0.8369751,-0.515625,0.125,-0.25
274,0.25512695,-0.34332275,-0.82525635,-0.15625,0.53125,-0.421875
275,0.2619629,-0.34454346,-0.8345337,0.15625,0.3125,-0.109375
276,0.2680664,-0.34210205,-0.83795166,-0.5,0.125,-0.3125
277,0.26171875,-0.34259033,-0.8381958,-0.75,0.109375,-0.203125
278,0.25854492,-0.33770752,-0.82818604,-0.40625,0.375,-0.21875
279,0.2709961,-0.33917236,-0.84210205,-0.953125,-0.015625,-0.328125
280,0.26782227,-0.34014893,-0.8323364,-0.5,0.546875,-0.296875
281,0.26098633,-0.34210205,-0.8399048,-0.71875,0.25,-0.265625
282,0.25732422,-0.34405518,-0.8311157,-0.671875,0.09375,-0.375
283,0.26611328,-0.3418579,-0.83843994,-0.359375,0.34375,-0.1875
284,0.2607422,-0.33892822,-0.8389282,-0.734375,0.1875,-0.375
285,0.26757812,-0.33843994,-0.83477783,-0.296875,0.375,-0.25
286,0.26391602,-0.3418579,-0.8389282,-0.453125,0.3125,-0.15625
287,0.25927734,-0.33843994,-0.84039307,-0.5,0.0625,-0.328125
288,0.25732422,-0.34503174,-0.829895,-0.671875,0.65625,-0.1875
289,0.26293945,-0.34210205,-0.8357544,-0.875,0.40625,-0.34375
290,0.26367188,-0.33477783,-0.83306885,-0.703125,0.109375,-0.25
291,0.26293945,-0.34332275,-0.8279419,-0.328125,0.53125,-0.28125
292,0.2626953,-0.33624268,-0.8362427,-1.171875,0.234375,-0.40625
293,0.2578125,-0.3406372,-0.8237915,-0.46875,0.3125,-0.4375
294,0.2553711,-0.33966064,-0.829895,-0.234375,0.109375,-0.09375
295,0.26367188,-0.34014893,-0.8377075,-1.1875,0.078125,-0.34375
296,0.25463867,-0.33233643,-0.83306885,-0.84375,0.546875,-0.453125
297,0.25585938,-0.3435669,-0.829895,-0.46875,0.296875,-0.21875
298,0.25830078,-0.3369751,-0.82769775,-0.75,0.1875,-0.3125
299,0.2607422,-0.33795166,-0.8377075,-0.171875,0.40625,-0.359375
300,0.2602539,-0.3381958,-0.8389282,-0.484375,0.421875,-0.171875
301,0.25756836,-0.33892822,-0.8362427,-0.546875,-0.109375,-0.296875
302,0.26293945,-0.3411255,-0.83477783,-0.390625,0.0625,-0.265625
303,0.2607422,-0.34527588,-0.83721924,-0.6875,0.421875,-0.421875
304,0.25878906,-0.33843994,-0.8284302,-0.828125,0.1875,-0.4375
305,0.2626953,-0.33599854,-0.835022,-0.59375,0.015625,-0.21875
306,0.26123047,-0.33868408,-0.8406372,-0.78125,0.28125,-0.4375
307,0.26391602,-0.34649658,-0.82940674,-0.609375,0.1875,-0.140625
308,0.26391602,-0.34088135,-0.8399048,-0.5,0.359375,-0.234375
309,0.25439453,-0.3411255,-0.8394165,-0.875,0.0,-0.3125
310,0.26391602,-0.33746338,-0.83477783,-0.46875,0.1875,-0.265625
311,0.26220703,-0.33306885,-0.8369751,-0.484375,0.25,-0.3125
312,0.2607422,-0.3411255,-0.83428955,-0.71875,0.109375,-0.234375
313,0.26391602,-0.33721924,-0.82891846,-0.296875,0.375,-0.171875
314,0.26538086,-0.33135986,-0.84332275,-0.78125,0.453125,-0.46875
315,0.25830078,-0.3435669,-0.8320923,-0.796875,0.125,-0.265625
316,0.2602539,-0.33795166,-0.83380127,-0.4375,-0.03125,-0.125
317,0.2631836,-0.34088135,-0.8389282,-0.71875,-0.015625,-0.21875
318,0.2602539,-0.34088135,-0.8340454,-0.4375,0.15625,-0.21875
319,0.25878906,-0.33721924,-0.835022,-0.234375,0.0625,-0.28125
320,0.25732422,-0.3399048,-0.8345337,-0.671875,0.0,-0.1875
321,0.26220703,-0.33673096,-0.83673096,-0.484375,-0.046875,-0.171875
322,0.2631836,-0.3345337,-0.8442993,-1.03125,-0.140625,-0.28125
323,0.2607422,-0.3399048,-0.835022,-0.9375,0.359375,-0.3125
324,0.25976562,-0.34088135,-0.8272095,-0.375,0.328125,-0.203125
325,0.26171875,-0.3435669,-0.83721924,-0.734375,0.3125,-0.25
326,0.26464844,-0.34381104,-0.83599854,-0.28125,0.28125,-0.28125
327,0.26416016,-0.32965088,-0.83721924,0.28125,0.375,0.0
328,0.2644043,-0.3340454,-0.8362427,-0.1875,0.46875,-0.234375
329,0.25732422,-0.33355713,-0.8262329,-0.234375,0.625,-0.3125
330,0.26245117,-0.3399048,-0.83843994,0.171875,0.40625,-0.25
331,0.2692871,-0.34136963,-0.85723877,-0.953125,0.53125,-0.28125
332,0.2614746,-0.33551025,-0.8381958,-0.6875,0.09375,-0.171875
333,0.26171875,-0.34136963,-0.8357544,-0.765625,0.078125,-0.21875
334,0.2565918,-0.33355713,-0.8328247,-0.78125,0.390625,-0.34375
335,0.25976562,-0.3291626,-0.83380127,-0.28125,-0.015625,-0.109375
336,0.2644043,-0.33746338,-0.8386841,-0.4375,0.03125,-0.28125
337,0.2626953,-0.33648682,-0.835022,-0.59375,0.125,-0.234375
338,0.25805664,-0.33184814,-0.84259033,-0.75,0.03125,-0.1875
339,0.26489258,-0.33966064,-0.8386841,-1.125,0.015625,-0.296875
340,0.25878906,-0.33917236,-0.83477783,-0.4375,0.09375,-0.125
341,0.2578125,-0.33746338,-0.8460083,-0.828125,-0.015625,-0.46875
342,0.2614746,-0.33648682,-0.84210205,-1.046875,0.21875,-0.421875
343,0.2607422,-0.33746338,-0.83477783,-0.71875,0.078125,-0.265625
344,0.26538086,-0.3345337,-0.83135986,-0.859375,-0.203125,-0.171875
345,0.2668457,-0.33966064,-0.83428955,-0.875,0.109375,-0.34375
346,0.2685547,-0.3352661,-0.8406372,-0.875,0.25,-0.328125
347,0.26123047,-0.3406372,-0.8357544,-0.796875,0.046875,-0.265625
348,0.26831055,-0.33624268,-0.8364868,-0.625,-0.03125,-0.234375
349,0.2619629,-0.3381958,-0.83599854,-0.84375,0.34375,-0.265625
350,0.2644043,-0.33892822,-0.8291626,-0.546875,0.546875,-0.359375
351,0.26513672,-0.33892822,-0.8418579,-0.328125,0.4375,-0.296875
352,0.26171875,-0.333313,-0.83966064,-0.375,0.25,-0.34375
353,0.26171875,-0.333313,-0.83795166,-0.265625,0.390625,-0.234375
354,0.26367188,-0.3381958,-0.8411255,-0.40625,-0.203125,-0.109375
355,0.26293945,-0.33721924,-0.83428955,-0.546875,-0.25,-0.109375
356,0.26416016,-0.33843994,-0.84088135,-0.53125,-0.53125,-0.0625
357,0.26586914,-0.33599854,-0.8328247,-0.953125,-0.015625,-0.296875
358,0.2685547,-0.3357544,-0.82940674,-0.96875,0.40625,-0.34375
359,0.26367188,-0.33502197,-0.8369751,-0.859375,0.5625,-0.546875
360,0.25976562,-0.3411255,-0.8286743,-0.828125,-0.078125,-0.34375
361,0.2697754,-0.34869385,-0.84088135,-2.046875,0.359375,-0.5
362,0.26757812,-0.3399048,-0.84161377,-1.546875,0.484375,-0.375
363,0.25854492,-0.34429932,-0.8167114,0.09375,0.265625,-0.0625
364,0.25756836,-0.33306885,-0.83258057,-0.890625,-0.421875,-0.15625
365,0.25927734,-0.3394165,-0.83306885,-1.578125,0.171875,-0.34375
366,0.2578125,-0.34088135,-0.8230591,-0.4375,0.703125,-0.359375
367,0.26171875,-0.33966064,-0.83428955,-0.84375,-0.203125,-0.28125
368,0.26831055,-0.33966064,-0.83721924,-0.703125,-0.109375,-0.1875
369,0.2644043,-0.33795166,-0.82476807,0.703125,0.1875,0.109375
370,0.26733398,-0.33502197,-0.84332275,-0.109375,0.53125,-0.21875
371,0.25317383,-0.33502197,-0.82232666,0.234375,0.34375,-0.15625
372,0.26367188,-0.33843994,-0.8491821,-0.90625,0.328125,-0.1875
373,0.26416016,-0.3406372,-0.8352661,-0.984375,0.390625,-0.5
374,0.26416016,-0.3328247,-0.8274536,-0.46875,0.296875,-0.28125
375,0.26049805,-0.33746338,-0.8364868,-1.15625,0.546875,-0.34375
376,0.25512695,-0.3418579,-0.82891846,-0.734375,0.09375,-0.296875
377,0.26220703,-0.3352661,-0.83380127,-0.171875,0.125,-0.0625
378,0.2626953,-0.33795166,-0.8430786,-0.734375,-0.0625,-0.203125
379,0.25878906,-0.34283447,-0.83917236,-0.5625,-0.34375,-0.078125
380,0.26171875,-0.33868408,-0.8389282,-0.671875,0.125,-0.078125
381,0.26245117,-0.3418579,-0.8320923,-0.875,-0.046875,-0.25
382,0.26245117,-0.33648682,-0.82769775,-0.640625,0.21875,-0.34375
383,0.26489258,-0.33721924,-0.835022,-0.28125,0.328125,-0.3125
384,0.2626953,-0.3394165,-0.83551025,-0.65625,0.359375,-0.265625
385,0.26489258,-0.34039307,-0.83062744,-0.53125,0.46875,-0.28125
386,0.26904297,-0.3340454,-0.84332275,-1.484375,0.5625,-0.4375
387,0.2644043,-0.3369751,-0.8284302,-1.671875,0.234375,-0.53125
388,0.26464844,-0.34136963,-0.83843994,-1.25,0.21875,-0.265625
389,0.25683594,-0.33892822,-0.8286743,-1.25,-0.015625,-0.234375
390,0.2565918,-0.33721924,-0.82525635,-0.96875,0.078125,-0.21875
391,0.26733398,-0.34210205,-0.8389282,-0.578125,0.53125,-0.421875
392,0.265625,-0.3411255,-0.8286743,-0.09375,0.453125,-0.1875
393,0.25927734,-0.3399048,-0.8323364,-0.28125,0.328125,-0.3125
394,0.26171875,-0.3418579,-0.8442993,-0.734375,0.046875,-0.140625
395,0.2668457,-0.3411255,-0.8411255,-0.703125,0.078125,-0.125
396,0.26049805,-0.34088135,-0.8279419,-0.25,0.265625,-0.1875
397,0.26416016,-0.3399048,-0.835022,-0.75,0.3125,-0.25
398,0.26757812,-0.33917236,-0.8335571,-0.53125,0.75,-0.375
399,0.25732422,-0.33502197,-0.829895,0.0,0.953125,-0.40625
400,0.26757812,-0.34454346,-0.8518677,-0.84375,0.640625,-0.625
401,0.26123047,-0.33502197,-0.831604,-0.640625,0.40625,-0.390625
402,0.25732422,-0.33843994,-0.8452759,-0.265625,0.703125,-0.359375
403,0.25952148,-0.3345337,-0.8484497,-0.46875,-0.296875,-0.046875
404,0.2565918,-0.33673096,-0.83795166,-0.671875,-0.328125,0.015625
405,0.2619629,-0.34332275,-0.8369751,-1.078125,-0.234375,-0.140625
406,0.2626953,-0.3381958,-0.8267212,-0.53125,-0.109375,-0.21875
407,0.26123047,-0.34332275,-0.835022,-0.984375,-0.171875,-0.328125
408,0.26293945,-0.33551025,-0.8362427,-0.484375,-0.640625,-0.03125
409,0.26660156,-0.3369751,-0.8447876,-0.328125,0.15625,0.0
410,0.26367188,-0.33355713,-0.8225708,-0.421875,-0.1875,-0.171875
411,0.26660156,-0.33795166,-0.8308716,-0.34375,0.671875,-0.234375
412,0.26635742,-0.3381958,-0.8484497,-0.859375,1.21875,-0.59375
413,0.2680664,-0.34014893,-0.8345337,-0.65625,0.515625,-0.3125
414,0.2590332,-0.33355713,-0.8335571,-0.03125,0.8125,-0.234375
415,0.26220703,-0.34039307,-0.8447876,-0.796875,0.234375,-0.359375
416,0.25830078,-0.3394165,-0.83135986,-0.46875,0.53125,-0.28125
417,0.2626953,-0.33306885,-0.84332275,-0.59375,0.15625,-0.234375
418,0.26293945,-0.3411255,-0.8320923,-0.6875,0.078125,-0.25
419,0.26342773,-0.33721924,-0.8406372,-0.578125,-0.1875,-0.171875
420,0.2607422,-0.33721924,-0.8345337,-0.9375,0.625,-0.296875
421,0.26171875,-0.3430786,-0.8340454,-0.859375,0.203125,-0.4375
422,0.26098633,-0.33502197,-0.8340454,-0.890625,0.0,-0.359375
423,0.25952148,-0.34039307,-0.8357544,-0.75,0.15625,-0.390625
424,0.2644043,-0.33795166,-0.82476807,-0.453125,-0.171875,-0.125
425,0.25854492,-0.33721924,-0.83966064,-0.578125,-0.03125,-0.234375
426,0.26245117,-0.33843994,-0.8362427,-0.859375,0.078125,-0.296875
427,0.2626953,-0.33355713,-0.8345337,-0.875,0.375,-0.375
428,0.26220703,-0.33770752,-0.833313,-1.0,0.140625,-0.375
429,0.2553711,-0.3369751,-0.8237915,-0.375,0.109375,-0.28125
430,0.27026367,-0.34429932,-0.8411255,-0.78125,0.03125,-0.171875
431,0.25708008,-0.34259033,-0.83428955,-0.796875,0.609375,-0.4375
432,0.25805664,-0.33502197,-0.8352661,-0.28125,0.265625,-0.3125
433,0.25561523,-0.33892822,-0.835022,-0.734375,-0.015625,-0.109375
434,0.26367188,-0.33721924,-0.8320923,-0.828125,-0.125,-0.15625
435,0.26464844,-0.34014893,-0.83428955,-0.734375,0.09375,-0.0625
436,0.26245117,-0.33746338,-0.83599854,-0.734375,-0.03125,-0.21875
437,0.26293945,-0.34039307,-0.8296509,-0.421875,0.0625,-0.203125
438,0.25976562,-0.33843994,-0.83477783,-0.671875,0.265625,-0.375
439,0.26220703,-0.33770752,-0.83184814,-0.4375,-0.1875,-0.046875
440,0.2590332,-0.33648682,-0.8308716,-0.4375,0.09375,-0.21875
441,0.2590332,-0.3320923,-0.8411255,-0.5625,0.296875,-0.3125
442,0.25683594,-0.3394165,-0.8286743,-0.71875,0.234375,-0.359375
443,0.2626953,-0.331604,-0.84210205,-1.3125,0.296875,-0.390625
444,0.26049805,-0.3447876,-0.84503174,-1.84375,0.359375,-0.390625
445,0.25439453,-0.33868408,-0.82159424,-0.40625,0.015625,-0.25
446,0.2631836,-0.34210205,-0.8362427,-0.734375,-0.078125,-0.125
447,0.26538086,-0.33795166,-0.82525635,-0.96875,-0.09375,-0.234375
448,0.26904297,-0.3352661,-0.83428955,-0.140625,0.9375,-0.28125
449,0.2626953,-0.3435669,-0.83673096,0.265625,0.984375,-0.21875
450,0.26660156,-0.34283447,-0.8428345,-0.140625,0.84375,-0.34375
451,0.25976562,-0.33551025,-0.8430786,-0.59375,0.9375,-0.40625
452,0.25878906,-0.34039307,-0.8352661,-0.96875,0.03125,-0.265625
453,0.2602539,-0.33258057,-0.835022,-0.625,0.375,-0.328125
454,0.25756836,-0.3369751,-0.8423462,-0.921875,0.375,-0.375
455,0.2590332,-0.3411255,-0.8413696,-0.90625,0.109375,-0.375
456,0.26586914,-0.3430786,-0.84381104,-0.703125,0.171875,-0.25
457,0.2553711,-0.33355713,-0.83966064,-0.8125,0.0,-0.21875
458,0.26220703,-0.3406372,-0.82769775,-0.8125,-0.171875,-0.375
459,0.26293945,-0.3357544,-0.82940674,-0.203125,0.171875,-0.140625
460,0.2578125,-0.33062744,-0.84259033,-0.59375,-0.15625,-0.328125
461,0.2626953,-0.33868408,-0.8296509,-0.59375,-0.03125,-0.21875
462,0.2607422,-0.33673096,-0.83673096,-0.3125,0.453125,-0.15625
463,0.26782227,-0.33551025,-0.84088135,-0.90625,0.328125,-0.1875
464,0.25830078,-0.33892822,-0.83599854,-0.65625,0.1875,-0.328125
465,0.26367188,-0.33648682,-0.8320923,-0.46875,0.390625,-0.25
466,0.26538086,-0.33770752,-0.84088135,-0.46875,0.328125,-0.25
467,0.25830078,-0.33721924,-0.8399048,-1.015625,0.265625,-0.25
468,0.2548828,-0.3435669,-0.8335571,-0.640625,0.359375,-0.265625
469,0.26098633,-0.33795166,-0.8328247,-0.515625,0.21875,-0.21875
470,0.2590332,-0.33624268,-0.8284302,-0.34375,0.0625,-0.1875
471,0.25708008,-0.34381104,-0.84454346,-1.140625,0.28125,-0.40625
472,0.25927734,-0.3435669,-0.8335571,-0.6875,0.09375,-0.390625
473,0.25854492,-0.33966064,-0.83917236,-0.6875,0.40625,-0.5
474,0.25927734,-0.3369751,-0.83966064,-0.75,0.828125,-0.484375
475,0.25268555,-0.33746338,-0.8308716,-0.375,0.34375,-0.25
476,0.25976562,-0.34454346,-0.8440552,-0.875,-0.015625,-0.265625
477,0.2565918,-0.33551025,-0.8320923,-0.75,0.34375,-0.296875
478,0.26293945,-0.33258057,-0.83380127,-0.5625,0.328125,-0.34375
479,0.2607422,-0.33380127,-0.8357544,-0.625,0.421875,-0.390625
480,0.2565918,-0.34405518,-0.84088135,-1.109375,0.25,-0.1875
481,0.2553711,-0.34088135,-0.8399048,-1.078125,0.3125,-0.15625
482,0.2553711,-0.3411255,-0.8345337,-1.453125,-0.078125,-0.359375
483,0.2553711,-0.35211182,-0.8401489,-1.71875,-0.796875,-0.25
484,0.26635742,-0.34576416,-0.8418579,-1.78125,0.0625,-0.421875
485,0.25976562,-0.34991455,-0.82696533,-1.0625,0.078125,-0.4375
486,0.25756836,-0.34014893,-0.817688,-0.546875,0.53125,-0.453125
487,0.25976562,-0.34454346,-0.82891846,-1.515625,-0.203125,-0.34375
488,0.25830078,-0.33966064,-0.8184204,-0.640625,0.359375,-0.390625
489,0.26220703,-0.34259033,-0.8369751,0.1875,0.21875,-0.078125
490,0.26367188,-0.3460083,-0.8440552,-0.171875,0.28125,-0.1875
491,0.25708008,-0.34869385,-0.8335571,-0.515625,0.21875,-0.125
492,0.26489258,-0.3435669,-0.8364868,-0.765625,0.03125,-0.234375
493,0.26171875,-0.34381104,-0.8284302,-0.578125,0.03125,-0.328125
494,0.25830078,-0.34283447,-0.83599854,-0.4375,0.265625,-0.3125
495,0.26660156,-0.34576416,-0.8435669,-0.6875,0.046875,-0.1875
496,0.2619629,-0.34454346,-0.83062744,-0.421875,0.3125,-0.15625
497,0.26489258,-0.34210205,-0.8389282,-0.34375,0.125,-0.125
498,0.26367188,-0.3477173,-0.84039307,-0.9375,0.1875,-0.3125
499,0.2578125,-0.34088135,-0.82696533,-0.21875,0.421875,-0.28125
500,0.25805664,-0.3381958,-0.84088135,-0.671875,0.453125,-0.390625
501,0.26049805,-0.33770752,-0.83428955,-0.53125,0.390625,-0.359375
502,0.25610352,-0.34259033,-0.83428955,-0.265625,0.203125,-0.296875
503,0.26000977,-0.34259033,-0.8377075,-0.5,0.234375,-0.28125
504,0.26391602,-0.33746338,-0.8340454,-0.984375,0.3125,-0.328125
505,0.25927734,-0.34649658,-0.8286743,-0.390625,0.453125,-0.296875
506,0.2590332,-0.3399048,-0.8406372,-0.484375,0.15625,-0.25
507,0.2548828,-0.33917236,-0.8374634,-0.609375,0.453125,-0.25
508,0.26171875,-0.3394165,-0.8364868,-0.484375,0.3125,-0.125
509,0.2565918,-0.34381104,-0.8399048,-0.640625,-0.03125,-0.109375
510,0.27124023,-0.34039307,-0.82696533,-0.28125,-0.203125,-0.09375
511,0.25463867,-0.3399048,-0.8430786,-0.640625,0.046875,-0.203125
512,0.26538086,-0.33087158,-0.8413696,-0.921875,-0.234375,-0.25
513,0.2565918,-0.33648682,-0.82598877,-1.25,0.21875,-0.296875
514,0.25317383,-0.3399048,-0.82598877,-0.84375,-0.03125,-0.390625
515,0.26000977,-0.33892822,-0.83184814,-0.890625,0.5,-0.234375
516,0.25268555,-0.3460083,-0.8323364,-0.46875,0.484375,-0.34375
517,0.26220703,-0.3435669,-0.8352661,-0.734375,0.1875,-0.28125
518,0.2614746,-0.33966064,-0.83062744,-1.265625,0.140625,-0.25
519,0.25927734,-0.34454346,-0.83673096,-1.796875,0.21875,-0.421875
520,0.25927734,-0.34039307,-0.8286743,-1.640625,0.140625,-0.25
521,0.25561523,-0.34576416,-0.8242798,-0.25,0.28125,-0.28125
522,0.2602539,-0.3399048,-0.83795166,-0.640625,0.328125,-0.234375
523,0.26367188,-0.34942627,-0.8362427,-0.28125,0.328125,-0.234375
524,0.26391602,-0.3460083,-0.8386841,-0.03125,0.421875,-0.1875
525,0.26220703,-0.3460083,-0.8369751,-0.515625,0.1875,-0.046875
526,0.26049805,-0.34429932,-0.8389282,-0.5625,-0.015625,-0.21875
527,0.25683594,-0.33648682,-0.83673096,-0.59375,0.453125,-0.21875
528,0.25585938,-0.34014893,-0.84039307,-0.703125,0.46875,-0.234375
529,0.2614746,-0.35211182,-0.8364868,-0.359375,-0.046875,-0.140625
530,0.25317383,-0.34649658,-0.8362427,-0.09375,0.0625,-0.1875
531,0.2607422,-0.34552002,-0.8362427,-0.46875,0.109375,-0.296875
532,0.26171875,-0.34039307,-0.83843994,-0.796875,0.15625,-0.453125
533,0.25976562,-0.3394165,-0.83380127,-0.984375,0.046875,-0.390625
534,0.26464844,-0.34674072,-0.83380127,-0.671875,0.328125,-0.25
535,0.25976562,-0.34698486,-0.83551025,-0.171875,0.5,-0.25
536,0.25927734,-0.3435669,-0.84161377,-0.234375,0.390625,-0.28125
537,0.26611328,-0.3435669,-0.84747314,-0.125,0.265625,-0.015625
538,0.25854492,-0.3381958,-0.8381958,-0.75,0.078125,-0.28125
539,0.25756836,-0.3411255,-0.83306885,-1.03125,0.046875,-0.328125
540,0.26220703,-0.34210205,-0.8308716,-0.703125,-0.125,-0.171875
541,0.2607422,-0.34429932,-0.83795166,-0.953125,0.234375,-0.140625
542,0.2680664,-0.34454346,-0.83551025,-1.203125,-0.421875,-0.203125
543,0.26538086,-0.34283447,-0.8447876,-1.796875,-0.109375,-0.484375
544,0.26220703,-0.3477173,-0.84039307,-1.75,-0.203125,-0.421875
545,0.25512695,-0.34747314,-0.8208618,-1.375,-0.609375,-0.234375
546,0.2614746,-0.3394165,-0.8267212,-1.3125,-0.484375,-0.15625
547,0.25952148,-0.34332275,-0.8345337,-1.28125,0.234375,-0.453125
548,0.25805664,-0.3460083,-0.8267212,-0.3125,0.296875,-0.359375
549,0.2644043,-0.3484497,-0.8411255,-0.40625,0.5,-0.3125
550,0.26538086,-0.34381104,-0.8233032,0.546875,0.65625,-0.09375
551,0.2626953,-0.34283447,-0.83917236,0.515625,0.546875,-0.09375
552,0.2631836,-0.3435669,-0.83062744,-0.34375,0.21875,-0.296875
553,0.26000977,-0.347229,-0.8357544,-0.6875,0.046875,-0.203125
554,0.26513672,-0.3435669,-0.83258057,-0.703125,-0.21875,-0.234375
555,0.26635742,-0.34381104,-0.83258057,-0.890625,-0.203125,-0.09375
556,0.26538086,-0.34405518,-0.83135986,-0.71875,0.203125,-0.1875
557,0.26831055,-0.34429932,-0.8308716,-0.59375,0.15625,-0.125
558,0.26708984,-0.3418579,-0.835022,-0.609375,0.390625,-0.34375
559,0.2680664,-0.3496704,-0.8340454,-0.640625,0.46875,-0.265625
560,0.26733398,-0.34552002,-0.83795166,-0.546875,0.109375,-0.15625
561,0.2631836,-0.34332275,-0.8242798,-0.578125,0.40625,-0.359375
562,0.26464844,-0.34405518,-0.83380127,-0.53125,0.625,-0.40625
563,0.25634766,-0.34259033,-0.8413696,-0.59375,0.453125,-0.390625
564,0.25683594,-0.34698486,-0.8308716,-0.65625,0.265625,-0.28125
565,0.2685547,-0.3418579,-0.829895,-0.515625,0.40625,-0.078125
566,0.26538086,-0.34039307,-0.8394165,-0.625,0.46875,-0.359375
567,0.2644043,-0.3477173,-0.8340454,-0.9375,0.546875,-0.546875
568,0.26586914,-0.34161377,-0.8284302,-0.453125,0.34375,-0.125
569,0.26708984,-0.3418579,-0.831604,-0.671875,-0.078125,-0.328125
570,0.26000977,-0.33843994,-0.8386841,-0.59375,0.15625,-0.25
571,0.25634766,-0.33917236,-0.8291626,-0.546875,-0.0625,-0.140625
572,0.26586914,-0.3411255,-0.83258057,-0.890625,-0.078125,-0.1875
573,0.26489258,-0.33868408,-0.8369751,-0.546875,-0.25,0.0
574,0.2644043,-0.34161377,-0.8374634,-0.734375,-0.015625,-0.21875
575,0.26245117,-0.3406372,-0.83135986,-1.375,0.078125,-0.375
576,0.26708984,-0.34210205,-0.82354736,-1.03125,0.0625,-0.234375
577,0.26635742,-0.3430786,-0.83306885,-0.890625,0.640625,-0.375
578,0.26245117,-0.3496704,-0.8357544,-0.453125,0.453125,-0.375
579,0.26049805,-0.34259033,-0.8320923,-0.359375,0.171875,-0.21875
580,0.26708984,-0.34088135,-0.8250122,0.078125,0.078125,-0.21875
581,0.2631836,-0.3460083,-0.83135986,-0.53125,0.265625,-0.25
582,0.26293945,-0.34869385,-0.8206177,-0.046875,0.328125,-0.046875
583,0.25952148,-0.33233643,-0.8357544,-0.40625,0.140625,-0.1875
584,0.2614746,-0.34527588,-0.8369751,-1.125,0.28125,-0.328125
585,0.26098633,-0.33917236,-0.8311157,-0.640625,0.484375,-0.28125
586,0.26416016,-0.34332275,-0.8328247,-0.4375,0.453125,-0.203125
587,0.26123047,-0.34136963,-0.8255005,-0.59375,0.578125,-0.328125
588,0.26464844,-0.34405518,-0.83306885,-0.4375,0.453125,-0.359375
589,0.26489258,-0.34552002,-0.83966064,-0.953125,0.453125,-0.359375
590,0.25976562,-0.3418579,-0.8284302,-0.671875,0.484375,-0.40625
591,0.25610352,-0.34039307,-0.83673096,-0.5625,0.21875,-0.203125
592,0.2619629,-0.33770752,-0.83551025,-0.515625,0.09375,-0.34375
593,0.2626953,-0.33966064,-0.8284302,-0.484375,0.375,-0.34375
594,0.26489258,-0.33892822,-0.8399048,-0.421875,0.15625,-0.203125
595,0.26293945,-0.3418579,-0.83843994,-0.625,0.203125,-0.296875
596,0.26123047,-0.33770752,-0.831604,-0.703125,0.265625,-0.296875
597,0.2668457,-0.34259033,-0.8377075,-0.875,-0.046875,-0.25
598,0.26513672,-0.34405518,-0.8291626,-1.0,0.421875,-0.34375
599,0.26245117,-0.33917236,-0.8362427,-0.484375,0.234375,-0.34375
600,0.26367188,-0.34405518,-0.8364868,-0.875,0.265625,-0.28125
601,0.2565918,-0.34552002,-0.8374634,-0.71875,0.390625,-0.375
602,0.25878906,-0.3430786,-0.83673096,-0.515625,0.21875,-0.15625
603,0.26220703,-0.33966064,-0.8381958,-0.703125,0.453125,-0.3125
604,0.25195312,-0.3435669,-0.82525635,-0.578125,0.0625,-0.140625
605,0.26733398,-0.33746338,-0.8328247,-0.921875,0.21875,-0.25
606,0.25708008,-0.3369751,-0.83062744,-0.75,0.15625,-0.265625
607,0.2607422,-0.3501587,-0.8362427,-1.171875,0.234375,-0.421875
608,0.26342773,-0.34649658,-0.83013916,-0.515625,0.28125,-0.265625
609,0.2614746,-0.3406372,-0.8323364,-0.640625,0.296875,-0.203125
610,0.25756836,-0.34576416,-0.83428955,-0.609375,0.09375,-0.25
611,0.25976562,-0.34210205,-0.8308716,-0.390625,0.1875,-0.203125
612,0.25878906,-0.34088135,-0.83258057,-0.671875,0.0625,-0.234375
613,0.2644043,-0.34405518,-0.8345337,-0.765625,0.234375,-0.3125
614,0.26000977,-0.3460083,-0.83428955,-0.828125,0.375,-0.3125
615,0.2631836,-0.34210205,-0.8374634,-0.5,-0.03125,-0.28125
616,0.25976562,-0.34136963,-0.8274536,-0.546875,0.015625,-0.140625
617,0.25976562,-0.33770752,-0.8362427,-0.546875,-0.0625,0.03125
618,0.26904297,-0.3435669,-0.8374634,-0.734375,-0.03125,-0.3125
619,0.2607422,-0.3406372,-0.8345337,-0.328125,0.28125,-0.265625
620,0.26367188,-0.34283447,-0.83599854,-0.796875,0.015625,-0.203125
621,0.26000977,-0.34136963,-0.83062744,-0.578125,0.4375,-0.296875
622,0.2602539,-0.34014893,-0.8362427,-0.765625,0.40625,-0.21875
623,0.26123047,-0.3345337,-0.8286743,-0.671875,0.328125,-0.375
624,0.25732422,-0.34283447,-0.8362427,-0.484375,0.265625,-0.25
625,0.25463867,-0.33624268,-0.82818604,-1.40625,-0.046875,-0.25
626,0.27368164,-0.34869385,-0.8526001,-2.078125,-0.25,-0.390625
627,0.26293945,-0.34527588,-0.8274536,-0.953125,0.015625,-0.40625
628,0.27270508,-0.34527588,-0.8328247,-0.828125,-0.109375,-0.3125
629,0.26171875,-0.33892822,-0.8201294,-0.453125,0.3125,-0.28125
630,0.26049805,-0.34674072,-0.83428955,-0.546875,0.171875,-0.234375
631,0.2614746,-0.3477173,-0.83551025,-0.125,0.609375,-0.234375
632,0.26489258,-0.34747314,-0.8286743,-0.1875,0.046875,-0.21875
633,0.26416016,-0.34259033,-0.8352661,-0.3125,0.25,-0.3125
634,0.26123047,-0.34820557,-0.8394165,-0.796875,0.515625,-0.328125
635,0.2631836,-0.33917236,-0.8213501,-0.359375,0.546875,-0.453125
636,0.26098633,-0.3394165,-0.8411255,-0.34375,0.578125,-0.328125
637,0.26293945,-0.3435669,-0.8340454,-0.890625,0.71875,-0.46875
638,0.26171875,-0.34503174,-0.83428955,-0.515625,0.421875,-0.453125
639,0.25952148,-0.33892822,-0.8399048,-0.6875,0.34375,-0.203125
640,0.26464844,-0.3411255,-0.83306885,-0.875,-0.28125,-0.25
641,0.25683594,-0.3435669,-0.8418579,-1.6875,-0.375,-0.421875
642,0.2692871,-0.34942627,-0.833313,-1.5,-0.25,-0.328125
643,0.25878906,-0.34405518,-0.8291626,-0.53125,0.171875,-0.234375
644,0.2619629,-0.3435669,-0.83306885,-0.734375,-0.09375,-0.234375
645,0.26513672,-0.3435669,-0.8272095,-0.5625,0.375,-0.296875
646,0.2607422,-0.3430786,-0.8279419,0.296875,0.40625,-0.09375
647,0.2697754,-0.34625244,-0.8440552,-0.390625,0.25,-0.1875
648,0.26733398,-0.3381958,-0.829895,-0.078125,0.90625,-0.359375
649,0.26367188,-0.34429932,-0.84332275,-0.4375,-0.015625,-0.25
650,0.26123047,-0.33770752,-0.8352661,-0.65625,0.359375,-0.203125
651,0.25927734,-0.3411255,-0.8374634,-0.46875,-0.046875,-0.140625
652,0.26611328,-0.34381104,-0.8362427,-0.9375,0.0625,-0.328125
653,0.25805664,-0.35040283,-0.8377075,-0.515625,0.234375,-0.203125
654,0.2565918,-0.34429932,-0.83258057,-0.890625,0.140625,-0.421875
655,0.26245117,-0.3411255,-0.8245239,-0.4375,-0.265625,-0.125
656,0.26123047,-0.3381958,-0.8296509,-0.375,0.0625,-0.171875
657,0.2590332,-0.33551025,-0.8345337,-0.53125,0.015625,-0.15625
658,0.26611328,-0.34552002,-0.8335571,-0.1875,0.25,-0.28125
659,0.2631836,-0.33258057,-0.84259033,-0.484375,0.125,-0.140625
660,0.26391602,-0.34136963,-0.84039307,-0.859375,0.515625,-0.296875
661,0.26000977,-0.33843994,-0.83428955,-0.921875,0.421875,-0.375
662,0.26098633,-0.34625244,-0.8311157,-0.828125,0.421875,-0.25
663,0.2626953,-0.34088135,-0.8328247,-0.59375,0.453125,-0.421875
664,0.25927734,-0.3423462,-0.8406372,-0.90625,0.609375,-0.421875
665,0.25927734,-0.34649658,-0.83306885,-0.46875,0.15625,-0.3125
666,0.2614746,-0.3411255,-0.8311157,-0.6875,0.1875,-0.375
667,0.26293945,-0.34332275,-0.8340454,-0.84375,-0.15625,-0.1875
668,0.2626953,-0.34503174,-0.8352661,-0.546875,0.15625,-0.21875
669,0.25878906,-0.3423462,-0.8340454,-0.40625,0.484375,-0.234375
670,0.26049805,-0.34405518,-0.8362427,-0.96875,0.25,-0.203125
671,0.2607422,-0.34088135,-0.82940674,-0.453125,0.15625,-0.09375
672,0.26171875,-0.35040283,-0.8364868,-0.5625,0.375,-0.453125
673,0.26586914,-0.34503174,-0.8369751,-0.265625,0.421875,-0.328125
674,0.2644043,-0.3352661,-0.8362427,-0.078125,0.265625,-0.140625
675,0.25683594,-0.33721924,-0.84210205,-0.5,0.5,-0.3125
676,0.2626953,-0.34014893,-0.8369751,-0.671875,0.34375,-0.25
677,0.2565918,-0.3399048,-0.831604,-0.703125,0.375,-0.265625
678,0.25561523,-0.34332275,-0.8308716,-0.609375,0.109375,-0.265625
679,0.25854492,-0.34649658,-0.8303833,-0.453125,0.078125,-0.109375
680,0.26123047,-0.3411255,-0.84039307,-0.859375,0.140625,-0.3125
681,0.25805664,-0.34429932,-0.83380127,-0.53125,0.078125,-0.125
682,0.26538086,-0.3435669,-0.8345337,-0.625,0.15625,-0.1875
683,0.25878906,-0.34014893,-0.83917236,-1.046875,0.046875,-0.25
684,0.26171875,-0.33917236,-0.83013916,-0.546875,0.28125,-0.46875
685,0.26879883,-0.33355713,-0.8357544,-0.5,0.3125,-0.328125
686,0.25830078,-0.33721924,-0.8345337,-0.578125,0.015625,-0.234375
687,0.2619629,-0.34332275,-0.835022,-0.46875,0.125,-0.15625
688,0.25952148,-0.3357544,-0.8406372,-0.6875,0.328125,-0.296875
689,0.25878906,-0.3435669,-0.8345337,-0.734375,0.171875,-0.1875
690,0.25756836,-0.3381958,-0.8413696,-0.796875,0.21875,-0.25
691,0.2602539,-0.34259033,-0.8320923,-0.75,0.015625,-0.34375
692,0.2668457,-0.33892822,-0.82818604,-0.59375,0.21875,-0.1875
693,0.25952148,-0.34210205,-0.8335571,-0.5,0.28125,-0.234375
694,0.2668457,-0.33746338,-0.83013916,-0.703125,0.1875,-0.21875
695,0.25708008,-0.33868408,-0.8345337,-0.5,0.3125,-0.265625
696,0.26367188,-0.3328247,-0.83966064,-0.453125,0.40625,-0.3125
697,0.25610352,-0.3418579,-0.8308716,-0.203125,0.3125,-0.25
698,0.26367188,-0.3423462,-0.8357544,-0.390625,0.40625,-0.359375
699,0.2602539,-0.34014893,-0.83673096,-1.15625,0.203125,-0.390625
700,0.25634766,-0.34283447,-0.829895,-0.34375,0.234375,-0.359375
701,0.2602539,-0.3406372,-0.8394165,-0.84375,0.515625,-0.4375
702,0.25854492,-0.34405518,-0.8311157,-0.859375,0.265625,-0.203125
703,0.26220703,-0.33721924,-0.8286743,-0.25,0.546875,-0.359375
704,0.26391602,-0.34527588,-0.8401489,-0.703125,0.53125,-0.171875
705,0.2619629,-0.34014893,-0.83721924,-0.28125,0.53125,-0.1875
706,0.25683594,-0.34088135,-0.83917236,-0.125,0.359375,-0.1875
707,0.26489258,-0.3345337,-0.8335571,-0.578125,0.109375,-0.234375
708,0.25341797,-0.33502197,-0.82769775,-0.59375,-0.09375,-0.203125
709,0.25805664,-0.33599854,-0.84039307,-0.578125,-0.125,-0.171875
710,0.25927734,-0.33599854,-0.8352661,-0.921875,0.03125,-0.25
711,0.26049805,-0.3345337,-0.8377075,-0.796875,-0.203125,-0.28125
712,0.2705078,-0.3430786,-0.84088135,-1.59375,-0.15625,-0.296875
713,0.25854492,-0.34405518,-0.83062744,-1.28125,-0.21875,-0.25
714,0.2578125,-0.33917236,-0.8296509,-0.90625,0.28125,-0.359375
715,0.25976562,-0.3369751,-0.83062744,-0.953125,-0.234375,-0.1875
716,0.25610352,-0.34283447,-0.82818604,-0.484375,0.703125,-0.21875
717,0.2619629,-0.34259033,-0.8340454,-1.59375,0.09375,-0.453125
718,0.25830078,-0.34136963,-0.82696533,-0.515625,0.03125,-0.21875
719,0.26513672,-0.34625244,-0.8364868,-1.078125,0.1875,-0.375
720,0.2607422,-0.34869385,-0.83258057,-0.78125,0.59375,-0.34375
721,0.26171875,-0.3447876,-0.83062744,-0.078125,-0.078125,-0.09375
722,0.26733398,-0.3406372,-0.8245239,-0.453125,-0.265625,-0.3125
723,0.27075195,-0.34332275,-0.8311157,-0.4375,0.203125,-0.140625
724,0.27172852,-0.33551025,-0.83966064,-0.703125,0.28125,-0.28125
725,0.26733398,-0.34869385,-0.8357544,-0.5,0.4375,-0.25
726,0.26635742,-0.34332275,-0.84552,-0.71875,-0.171875,-0.125
727,0.26098633,-0.34039307,-0.82769775,-1.25,0.4375,-0.46875
728,0.26708984,-0.3411255,-0.83551025,-0.421875,0.09375,-0.203125
729,0.26171875,-0.33843994,-0.829895,-0.984375,-0.171875,-0.21875
730,0.2607422,-0.34698486,-0.8286743,-0.09375,-0.203125,0.015625
731,0.26953125,-0.34576416,-0.8389282,-1.25,-0.328125,-0.21875
732,0.2644043,-0.34136963,-0.82696533,-0.9375,0.1875,-0.296875
733,0.27172852,-0.34429932,-0.8389282,-0.625,-0.09375,-0.0625
734,0.26367188,-0.3381958,-0.8242798,-1.109375,-0.34375,-0.140625
735,0.26245117,-0.34136963,-0.82232666,-0.46875,-0.15625,-0.234375
736,0.26733398,-0.3406372,-0.83135986,-0.4375,-0.171875,-0.203125
737,0.26660156,-0.34161377,-0.8311157,-0.453125,-0.09375,-0.109375
738,0.26831055,-0.34820557,-0.835022,-0.296875,0.640625,-0.265625
739,0.26904297,-0.34649658,-0.84161377,-0.40625,0.75,-0.5
740,0.26391602,-0.34503174,-0.82818604,-0.796875,1.09375,-0.5625
741,0.26904297,-0.34552002,-0.83843994,-0.171875,0.59375,-0.171875
742,0.2602539,-0.34136963,-0.83428955,-1.234375,0.265625,-0.34375
743,0.2607422,-0.34429932,-0.83551025,-1.0,0.328125,-0.296875
744,0.26171875,-0.35162354,-0.83551025,-0.640625,0.296875,-0.390625
745,0.26220703,-0.3435669,-0.82769775,-0.8125,0.8125,-0.546875
746,0.25976562,-0.34259033,-0.8364868,-0.84375,-0.140625,-0.140625
747,0.26220703,-0.34625244,-0.831604,-0.765625,0.046875,-0.265625
748,0.25634766,-0.3447876,-0.8255005,-0.421875,0.15625,-0.15625
749,0.2668457,-0.34820557,-0.8411255,-0.75,-0.546875,-0.0625
750,0.2619629,-0.34674072,-0.8201294,-0.390625,-0.015625,-0.09375
751,0.2614746,-0.34039307,-0.8291626,0.265625,0.109375,-0.015625
752,0.27148438,-0.34283447,-0.8418579,-0.375,-0.03125,-0.03125
753,0.26489258,-0.3447876,-0.8311157,-0.4375,0.015625,-0.078125
754,0.26782227,-0.3447876,-0.84039307,-0.609375,0.28125,-0.34375
755,0.26245117,-0.34381104,-0.8308716,-0.71875,0.515625,-0.390625
756,0.26733398,-0.3411255,-0.8335571,-0.328125,0.390625,-0.328125
757,0.2709961,-0.34161377,-0.8291626,-0.5625,0.203125,-0.203125
758,0.26293945,-0.34405518,-0.83428955,-0.171875,0.59375,-0.1875
759,0.2644043,-0.34527588,-0.8411255,-0.640625,0.328125,-0.171875
