sample_no,accel_x,accel_y,accel_z,gyro_x,gyro_y,gyro_z
0,0.03955078,-0.2715454,-0.8845825,1.953125,0.765625,0.46875
1,0.03881836,-0.26617432,-0.88653564,3.171875,1.75,0.34375
2,0.033691406,-0.2617798,-0.89727783,3.375,1.546875,0.3125
3,0.033203125,-0.25372314,-0.8953247,3.046875,1.703125,0.359375
4,0.028564453,-0.24957275,-0.88531494,4.34375,1.203125,0.40625
5,0.01977539,-0.25079346,-0.8948364,4.5,-0.9375,0.703125
6,0.022949219,-0.2390747,-0.89678955,1.875,-2.453125,0.890625
7,0.032958984,-0.2432251,-0.9170532,-0.125,-2.71875,1.015625
8,0.04345703,-0.24298096,-0.89849854,-1.203125,-2.15625,1.109375
9,0.038085938,-0.24786377,-0.91900635,-1.59375,-0.84375,1.03125
10,0.040283203,-0.25421143,-0.8933716,-1.671875,-0.96875,0.875
11,0.041748047,-0.24737549,-0.9077759,-0.734375,-0.421875,0.65625
12,0.03857422,-0.2510376,-0.88409424,0.15625,0.140625,0.609375
13,0.04272461,-0.2498169,-0.892395,0.796875,0.140625,0.6875
14,0.04272461,-0.255188,-0.89141846,0.5625,-0.171875,0.703125
15,0.040283203,-0.25177002,-0.89849854,0.671875,-0.296875,0.71875
16,0.04345703,-0.25152588,-0.8977661,1.265625,-0.5,0.59375
17,0.04345703,-0.24859619,-0.89630127,0.71875,-0.328125,0.65625
18,0.041503906,-0.25250244,-0.8989868,0.296875,0.140625,0.734375
19,0.03466797,-0.24737549,-0.9055786,0.0625,0.171875,0.625
20,0.03955078,-0.25006104,-0.8833618,-0.109375,0.328125,0.625
21,0.04272461,-0.24957275,-0.897522,-0.171875,-0.140625,0.609375
22,0.037353516,-0.24859619,-0.91119385,-0.125,-0.578125,0.765625
23,0.05029297,-0.2539673,-0.89630127,0.125,-0.4375,0.828125
24,0.044921875,-0.25787354,-0.89312744,-0.734375,0.25,0.828125
25,0.036132812,-0.2576294,-0.9002075,0.015625,0.21875,0.640625
26,0.04638672,-0.2588501,-0.8987427,0.34375,0.390625,0.71875
27,0.041992188,-0.2539673,-0.8982544,0.09375,-0.109375,0.796875
28,0.040771484,-0.2498169,-0.8897095,0.15625,-0.1875,0.8125
29,0.047607422,-0.2522583,-0.8953247,0.328125,0.140625,0.578125
30,0.04638672,-0.25860596,-0.88726807,0.15625,-0.015625,0.703125
31,0.04272461,-0.25616455,-0.89556885,0.09375,-0.03125,0.578125
32,0.043945312,-0.2522583,-0.88604736,0.453125,-0.140625,0.734375
33,0.04345703,-0.25738525,-0.9053345,0.546875,-0.15625,0.6875
34,0.041015625,-0.253479,-0.8948364,0.546875,-0.140625,0.625
35,0.039794922,-0.2546997,-0.88775635,0.484375,-0.046875,0.609375
36,0.043945312,-0.25836182,-0.8965454,0.359375,-0.171875,0.671875
37,0.04345703,-0.25177002,-0.8987427,0.234375,-0.265625,0.609375
38,0.041259766,-0.25909424,-0.89068604,0.484375,-0.4375,0.734375
39,0.048828125,-0.25006104,-0.8809204,1.421875,-1.046875,0.609375
40,0.046142578,-0.25250244,-0.89141846,1.421875,-0.75,0.78125
41,0.052734375,-0.24884033,-0.91119385,0.46875,0.015625,0.609375
42,0.048095703,-0.253479,-0.8897095,-0.328125,0.25,0.625
43,0.048339844,-0.25689697,-0.8970337,0.078125,0.15625,0.734375
44,0.04321289,-0.2600708,-0.89971924,-0.59375,0.5625,0.609375
45,0.045410156,-0.2522583,-0.89263916,-0.21875,0.125,0.671875
46,0.040771484,-0.25372314,-0.8945923,0.265625,-0.015625,0.671875
47,0.043945312,-0.25152588,-0.8945923,0.421875,0.0,0.71875
48,0.049072266,-0.25665283,-0.8987427,0.59375,-0.390625,0.78125
49,0.045166016,-0.25689697,-0.9011841,0.484375,0.015625,0.6875
50,0.040039062,-0.25494385,-0.8994751,0.890625,-0.3125,0.71875
51,0.048583984,-0.24639893,-0.89263916,0.734375,-0.375,0.65625
52,0.046142578,-0.25201416,-0.8936157,0.640625,-0.578125,0.671875
53,0.04248047,-0.2522583,-0.89727783,0.359375,-0.6875,0.71875
54,0.049804688,-0.25738525,-0.8945923,0.53125,-0.078125,0.625
55,0.046142578,-0.2559204,-0.9026489,0.484375,0.53125,0.609375
56,0.043701172,-0.25299072,-0.894104,0.265625,0.53125,0.71875
57,0.044433594,-0.25054932,-0.90093994,0.140625,0.171875,0.671875
58,0.03857422,-0.25299072,-0.8989868,0.28125,0.25,0.671875
59,0.053466797,-0.2510376,-0.8921509,0.8125,0.046875,0.703125
60,0.045166016,-0.25030518,-0.8999634,0.453125,0.203125,0.625
61,0.041503906,-0.25543213,-0.90045166,-0.078125,0.3125,0.640625
62,0.046142578,-0.2576294,-0.89923096,0.03125,-0.046875,0.625
63,0.040283203,-0.25689697,-0.90704346,0.59375,0.0,0.65625
64,0.043701172,-0.253479,-0.89630127,0.203125,-0.265625,0.625
65,0.04345703,-0.25177002,-0.892395,0.328125,-0.421875,0.765625
66,0.038330078,-0.25006104,-0.89508057,0.21875,-0.3125,0.78125
67,0.04345703,-0.2559204,-0.8994751,0.015625,-0.109375,0.671875
68,0.05078125,-0.25494385,-0.89556885,0.296875,-0.296875,0.65625
69,0.03955078,-0.2576294,-0.89630127,0.40625,0.0625,0.734375
70,0.04321289,-0.25811768,-0.89434814,0.671875,-0.234375,0.6875
71,0.047851562,-0.24761963,-0.89727783,0.53125,-0.171875,0.796875
72,0.04711914,-0.25152588,-0.8945923,0.421875,-0.09375,0.671875
73,0.047607422,-0.24859619,-0.8933716,0.28125,0.0,0.671875
74,0.05053711,-0.255188,-0.8977661,0.234375,0.015625,0.765625
75,0.04345703,-0.25445557,-0.9026489,0.25,-0.15625,0.734375
76,0.049072266,-0.2546997,-0.8994751,-0.046875,-0.125,0.625
77,0.043945312,-0.25543213,-0.89923096,-0.09375,0.109375,0.703125
78,0.047607422,-0.25323486,-0.8887329,0.515625,0.109375,0.65625
79,0.048828125,-0.2571411,-0.8928833,0.546875,0.390625,0.640625
80,0.04736328,-0.25665283,-0.9072876,-0.46875,0.71875,0.53125
81,0.037109375,-0.25811768,-0.8994751,-0.78125,0.65625,0.671875
82,0.044677734,-0.26324463,-0.8897095,0.3125,0.6875,0.578125
83,0.04272461,-0.25372314,-0.8960571,-0.328125,1.4375,0.46875
84,0.044433594,-0.26275635,-0.8989868,-0.34375,1.65625,0.453125
85,0.037109375,-0.2571411,-0.8899536,-0.09375,3.125,0.25
86,0.033447266,-0.25811768,-0.89923096,-0.078125,2.0,0.375
87,0.029052734,-0.26080322,-0.90411377,0.234375,0.515625,0.546875
88,0.030761719,-0.2654419,-0.895813,0.0,0.296875,0.546875
89,0.02758789,-0.2630005,-0.89556885,0.5,0.359375,0.515625
90,0.027832031,-0.26153564,-0.90093994,0.21875,0.109375,0.53125
91,0.028808594,-0.26202393,-0.8933716,0.1875,-0.1875,0.625
92,0.028564453,-0.25860596,-0.8960571,0.25,-0.1875,0.53125
93,0.025390625,-0.25616455,-0.89971924,0.421875,-0.4375,0.609375
94,0.031982422,-0.2588501,-0.8821411,0.875,-0.484375,0.65625
95,0.032958984,-0.25982666,-0.894104,1.484375,-0.65625,0.84375
96,0.029296875,-0.25494385,-0.8928833,2.515625,-1.03125,0.828125
97,0.028808594,-0.25543213,-0.8982544,3.109375,-2.125,0.875
98,0.035888672,-0.253479,-0.90997314,1.640625,-1.0625,0.78125
99,0.037841797,-0.24957275,-0.9158325,0.28125,-1.296875,0.78125
100,0.03466797,-0.25860596,-0.9024048,-0.609375,-0.6875,0.90625
101,0.03930664,-0.25543213,-0.90582275,-0.671875,-0.265625,0.671875
102,0.038085938,-0.2539673,-0.89019775,-0.59375,-0.5625,0.734375
103,0.041015625,-0.25665283,-0.8887329,0.125,-0.421875,0.6875
104,0.04296875,-0.25567627,-0.8911743,0.4375,0.0625,0.875
105,0.039794922,-0.25128174,-0.8987427,0.875,-0.046875,0.578125
106,0.043945312,-0.25128174,-0.90509033,0.453125,-0.15625,0.671875
107,0.036376953,-0.25274658,-0.90338135,0.4375,-0.1875,0.765625
108,0.03955078,-0.25079346,-0.8921509,0.46875,-0.125,0.765625
109,0.04248047,-0.25201416,-0.9053345,0.015625,0.1875,0.6875
110,0.044189453,-0.25665283,-0.8989868,0.15625,-0.296875,0.65625
111,0.039794922,-0.25006104,-0.8965454,0.203125,-0.265625,0.734375
112,0.04321289,-0.25665283,-0.8945923,0.46875,-0.140625,0.71875
113,0.041503906,-0.25689697,-0.89630127,0.5,-0.09375,0.765625
114,0.036132812,-0.25860596,-0.9085083,0.28125,-0.09375,0.6875
115,0.03955078,-0.25274658,-0.8867798,0.671875,-0.546875,0.6875
116,0.035888672,-0.25079346,-0.89434814,0.8125,-0.984375,0.8125
117,0.046142578,-0.25030518,-0.90753174,0.5625,-0.59375,0.765625
118,0.041748047,-0.25372314,-0.8953247,-0.125,0.203125,0.65625
119,0.041748047,-0.2498169,-0.8945923,0.25,-0.015625,0.609375
120,0.04272461,-0.25494385,-0.8999634,0.1875,0.4375,0.671875
121,0.041503906,-0.255188,-0.9026489,0.0625,0.28125,0.640625
122,0.042236328,-0.25201416,-0.8867798,0.03125,0.09375,0.578125
123,0.044921875,-0.24737549,-0.89923096,0.15625,0.015625,0.640625
124,0.045410156,-0.25811768,-0.8870239,0.71875,-0.296875,0.703125
125,0.03955078,-0.25079346,-0.90460205,0.21875,-0.203125,0.6875
126,0.04638672,-0.25494385,-0.8960571,0.265625,0.046875,0.75
127,0.03540039,-0.25274658,-0.9014282,0.109375,-0.171875,0.59375
128,0.03857422,-0.25372314,-0.90093994,-0.0625,0.171875,0.703125
129,0.041992188,-0.25128174,-0.8953247,-0.046875,-0.125,0.59375
130,0.041503906,-0.25689697,-0.8936157,-0.3125,0.0625,0.796875
131,0.033203125,-0.25152588,-0.90093994,-0.21875,-0.203125,0.75
132,0.038085938,-0.25421143,-0.8909302,0.046875,-0.125,0.84375
133,0.03540039,-0.2588501,-0.894104,0.046875,-0.046875,0.703125
134,0.043945312,-0.2612915,-0.8921509,0.515625,-0.34375,0.59375
135,0.046875,-0.2625122,-0.88604736,0.546875,-0.5,0.796875
136,0.036865234,-0.2576294,-0.89923096,-0.15625,-0.421875,0.703125
137,0.039794922,-0.26641846,-0.8838501,-0.234375,-1.03125,0.75
138,0.040527344,-0.26031494,-0.880188,1.28125,-3.640625,1.046875
139,0.045166016,-0.25933838,-0.8892212,0.921875,-7.28125,1.53125
140,0.063964844,-0.25836182,-0.88726807,1.15625,-6.5625,1.390625
141,0.07299805,-0.2576294,-0.9133911,0.859375,-4.84375,1.28125
142,0.07495117,-0.25665283,-0.90338135,0.046875,-2.125,0.96875
143,0.076171875,-0.26055908,-0.89727783,0.21875,-0.8125,0.71875
144,0.071777344,-0.25152588,-0.8826294,0.03125,-0.796875,0.875
145,0.07373047,-0.2617798,-0.8880005,0.1875,-1.46875,0.84375
146,0.07714844,-0.255188,-0.8965454,-0.296875,-2.09375,1.03125
147,0.08886719,-0.2564087,-0.9092407,-0.4375,-0.4375,0.828125
148,0.084472656,-0.25689697,-0.8945923,-0.359375,0.59375,0.609375
149,0.08081055,-0.26348877,-0.89190674,-0.125,0.21875,0.640625
150,0.08203125,-0.26080322,-0.89385986,0.28125,0.34375,0.578125
151,0.08105469,-0.253479,-0.88775635,0.53125,0.171875,0.890625
152,0.08227539,-0.2564087,-0.8916626,0.859375,0.015625,0.53125
153,0.08618164,-0.25982666,-0.8982544,0.859375,0.078125,0.546875
154,0.07910156,-0.24761963,-0.88897705,0.5,-0.546875,0.859375
155,0.08862305,-0.255188,-0.897522,-0.5625,-0.34375,0.71875
156,0.08325195,-0.26104736,-0.8845825,-0.8125,-0.703125,0.9375
157,0.080078125,-0.26202393,-0.8821411,0.265625,-0.8125,0.703125
158,0.08496094,-0.26397705,-0.89727783,0.25,0.21875,0.625
159,0.08178711,-0.2630005,-0.88726807,0.546875,0.484375,0.796875
160,0.08618164,-0.2625122,-0.90582275,0.421875,0.65625,0.625
161,0.08496094,-0.26153564,-0.8882446,0.3125,0.515625,0.65625
162,0.08666992,-0.26470947,-0.88604736,0.515625,-0.046875,0.78125
163,0.07836914,-0.26153564,-0.8948364,0.25,-0.125,0.703125
164,0.079589844,-0.26568604,-0.89312744,0.1875,-0.140625,0.5625
165,0.08154297,-0.255188,-0.8882446,0.375,-0.359375,0.796875
166,0.08691406,-0.26568604,-0.8953247,-0.015625,-0.625,0.8125
167,0.08105469,-0.26470947,-0.8960571,0.234375,-0.078125,0.640625
168,0.08227539,-0.26641846,-0.8994751,-0.015625,0.609375,0.546875
169,0.080566406,-0.26568604,-0.88531494,0.1875,0.578125,0.546875
170,0.08178711,-0.26080322,-0.8928833,0.125,0.34375,0.625
171,0.08276367,-0.26641846,-0.8936157,0.34375,0.375,0.65625
172,0.080078125,-0.26715088,-0.87823486,0.859375,0.09375,0.765625
173,0.08178711,-0.2600708,-0.8892212,0.703125,-0.421875,0.8125
174,0.08642578,-0.26983643,-0.90289307,0.0625,-0.1875,0.703125
175,0.08251953,-0.27008057,-0.88775635,-0.34375,-0.265625,0.59375
176,0.079589844,-0.2617798,-0.8904419,0.25,-0.5625,0.78125
177,0.076416016,-0.26153564,-0.88775635,-0.5625,-0.46875,0.8125
178,0.08300781,-0.26348877,-0.88946533,-1.296875,-2.03125,1.046875
179,0.087402344,-0.26837158,-0.8909302,-1.0,-2.3125,1.125
180,0.08618164,-0.27398682,-0.9019165,-0.34375,-1.953125,1.109375
181,0.10107422,-0.27886963,-0.90093994,0.109375,-0.75,0.921875
182,0.0925293,-0.27178955,-0.8933716,0.203125,-0.25,0.75
183,0.09423828,-0.26983643,-0.88360596,0.578125,-0.25,0.671875
184,0.09399414,-0.27178955,-0.88897705,0.4375,-0.328125,0.71875
185,0.09301758,-0.26715088,-0.89923096,0.046875,-0.78125,0.8125
186,0.095214844,-0.27545166,-0.89849854,-0.53125,-0.96875,0.78125
187,0.09716797,-0.269104,-0.88897705,-0.59375,-0.40625,0.78125
188,0.09033203,-0.2756958,-0.8833618,-0.25,-1.046875,0.84375
189,0.09423828,-0.2715454,-0.8880005,-0.3125,-1.328125,0.921875
190,0.10205078,-0.27520752,-0.87994385,-0.21875,-0.671875,0.84375
191,0.09375,-0.27911377,-0.89312744,-0.1875,-0.25,0.765625
192,0.10424805,-0.27716064,-0.88482666,0.328125,-0.25,0.75
193,0.09741211,-0.27764893,-0.8933716,-0.125,-0.03125,0.84375
194,0.09765625,-0.27301025,-0.88848877,0.53125,0.234375,0.515625
195,0.09667969,-0.2756958,-0.8809204,0.921875,0.40625,0.671875
196,0.09814453,-0.27105713,-0.8833618,0.40625,-0.46875,0.8125
197,0.100097656,-0.27471924,-0.88238525,0.5,-1.453125,0.796875
198,0.103759766,-0.27716064,-0.89263916,0.21875,-1.59375,1.0
199,0.10839844,-0.27642822,-0.8845825,0.390625,-2.34375,1.125
200,0.10913086,-0.27716064,-0.88653564,-0.34375,-2.28125,1.140625
201,0.118652344,-0.28179932,-0.8880005,0.046875,-0.34375,0.71875
202,0.11279297,-0.2786255,-0.8753052,0.515625,0.171875,0.78125
203,0.107177734,-0.27764893,-0.89141846,0.390625,-0.453125,0.6875
204,0.111816406,-0.2774048,-0.88604736,0.265625,-0.6875,0.875
205,0.10839844,-0.2786255,-0.8887329,0.0,-1.28125,0.9375
206,0.11401367,-0.27349854,-0.8909302,-0.625,-1.796875,0.9375
207,0.114746094,-0.2793579,-0.8882446,-1.640625,-1.78125,1.015625
208,0.122802734,-0.2822876,-0.8779907,-1.109375,-0.28125,0.6875
209,0.12036133,-0.28326416,-0.8792114,-0.21875,-0.1875,0.71875
210,0.118896484,-0.2810669,-0.88726807,0.234375,-0.09375,0.640625
211,0.115722656,-0.2937622,-0.87823486,0.328125,-0.375,0.65625
212,0.115478516,-0.2852173,-0.88116455,-0.203125,-0.375,0.765625
213,0.1159668,-0.2852173,-0.8779907,0.234375,-0.40625,0.71875
214,0.11645508,-0.28253174,-0.89263916,0.390625,0.171875,0.625
215,0.12207031,-0.28814697,-0.8804321,0.015625,-0.015625,0.484375
216,0.115722656,-0.28326416,-0.87628174,0.015625,-0.46875,0.65625
217,0.119628906,-0.28326416,-0.880188,0.171875,-0.34375,0.65625
218,0.12231445,-0.28619385,-0.88165283,0.640625,-0.4375,0.75
219,0.11694336,-0.27911377,-0.88409424,0.5,-0.671875,0.828125
220,0.11401367,-0.28668213,-0.8765259,0.59375,-0.921875,0.75
221,0.118896484,-0.28424072,-0.8792114,0.609375,-1.03125,0.734375
222,0.12231445,-0.27911377,-0.8804321,0.171875,-0.953125,0.828125
223,0.12646484,-0.2859497,-0.8792114,0.109375,-0.59375,0.78125
224,0.12451172,-0.28326416,-0.88946533,0.0625,-0.1875,0.765625
225,0.123535156,-0.28985596,-0.87579346,-0.0625,-0.71875,0.640625
226,0.123046875,-0.286438,-0.88482666,-0.09375,-0.859375,0.71875
227,0.12597656,-0.2835083,-0.88360596,-0.203125,-0.671875,0.75
228,0.13012695,-0.2822876,-0.8731079,0.0625,-0.875,0.625
229,0.12817383,-0.29083252,-0.8689575,-0.140625,-0.59375,0.71875
230,0.12866211,-0.29327393,-0.881897,-0.5,-0.65625,0.828125
231,0.13134766,-0.29107666,-0.87750244,-0.453125,-1.078125,0.90625
232,0.140625,-0.28741455,-0.8677368,0.484375,-0.796875,0.875
233,0.13476562,-0.2901001,-0.878479,0.859375,0.53125,0.75
234,0.14038086,-0.29595947,-0.8831177,1.640625,0.90625,0.734375
235,0.13378906,-0.28082275,-0.88238525,1.671875,1.296875,0.65625
236,0.12841797,-0.286438,-0.87628174,1.09375,2.109375,0.40625
237,0.12109375,-0.2859497,-0.8804321,0.53125,3.53125,0.265625
238,0.12109375,-0.28082275,-0.8779907,0.578125,3.828125,-0.03125
239,0.118652344,-0.28424072,-0.881897,0.453125,6.5625,-0.453125
240,0.10473633,-0.28277588,-0.8909302,0.796875,6.125,-0.40625
241,0.104003906,-0.2901001,-0.89019775,1.578125,3.515625,0.09375
242,0.08691406,-0.286438,-0.88287354,1.65625,5.328125,-0.171875
243,0.07739258,-0.27764893,-0.88604736,1.515625,4.171875,0.078125
244,0.078125,-0.2781372,-0.8845825,1.640625,2.84375,0.15625
245,0.07714844,-0.2781372,-0.8870239,1.125,3.4375,0.046875
246,0.068115234,-0.2756958,-0.88775635,1.03125,3.140625,0.078125
247,0.07104492,-0.27642822,-0.89385986,0.65625,3.25,0.0625
248,0.060791016,-0.27545166,-0.897522,0.1875,2.515625,0.15625
249,0.057373047,-0.28155518,-0.88604736,0.46875,2.5,0.171875
250,0.055664062,-0.2744751,-0.88726807,1.03125,2.125,0.34375
251,0.052490234,-0.2805786,-0.89068604,1.625,1.609375,0.421875
252,0.052001953,-0.2727661,-0.88848877,2.265625,1.0,0.640625
253,0.052734375,-0.26885986,-0.8843384,2.84375,-0.171875,0.625
254,0.046142578,-0.2637329,-0.8843384,3.203125,-0.984375,0.640625
255,0.05029297,-0.26593018,-0.8989868,1.859375,-0.90625,0.671875
256,0.056396484,-0.26104736,-0.89971924,0.90625,-0.890625,0.90625
257,0.050048828,-0.2642212,-0.9036255,-0.03125,-1.046875,0.8125
258,0.055419922,-0.2654419,-0.897522,-0.21875,-1.203125,0.921875
259,0.056640625,-0.26715088,-0.8916626,0.03125,-1.609375,0.9375
260,0.05834961,-0.2617798,-0.8821411,0.296875,-1.171875,0.875
261,0.05883789,-0.25811768,-0.8987427,0.484375,-0.625,0.8125
262,0.063964844,-0.2678833,-0.894104,0.875,-0.578125,0.671875
263,0.060546875,-0.2617798,-0.89190674,0.359375,0.09375,0.703125
264,0.05810547,-0.27008057,-0.8928833,-0.140625,-0.0625,0.6875
265,0.061035156,-0.26715088,-0.8999634,-0.59375,-0.109375,0.78125
266,0.060302734,-0.26861572,-0.8723755,0.21875,-0.3125,0.546875
267,0.060058594,-0.26885986,-0.8826294,0.25,0.0,0.734375
268,0.063964844,-0.2666626,-0.89068604,0.265625,-0.140625,0.765625
269,0.059326172,-0.27008057,-0.9011841,0.234375,-0.078125,0.546875
270,0.06323242,-0.269104,-0.8945923,0.203125,-0.078125,0.71875
271,0.063964844,-0.26983643,-0.8838501,0.28125,-0.234375,0.71875
272,0.064697266,-0.26983643,-0.89141846,0.21875,-0.390625,0.703125
273,0.06323242,-0.26763916,-0.8899536,0.5625,-0.1875,0.75
274,0.064453125,-0.2695923,-0.8870239,0.640625,-0.328125,0.625
275,0.05859375,-0.26470947,-0.89508057,0.53125,-0.359375,0.75
276,0.06542969,-0.26568604,-0.89385986,0.21875,-0.40625,0.765625
277,0.06323242,-0.27008057,-0.88653564,0.328125,-0.203125,0.828125
278,0.06689453,-0.26715088,-0.881897,0.71875,-0.40625,0.75
279,0.06616211,-0.2637329,-0.89971924,0.15625,-0.546875,0.75
280,0.06274414,-0.2678833,-0.89508057,0.234375,-0.078125,0.671875
281,0.07006836,-0.2649536,-0.88604736,-0.234375,-0.046875,0.6875
282,0.0625,-0.2666626,-0.8845825,0.453125,-0.15625,0.78125
283,0.068847656,-0.26861572,-0.88946533,0.390625,0.25,0.515625
284,0.06616211,-0.26715088,-0.8948364,0.25,-0.140625,0.703125
285,0.068359375,-0.26690674,-0.8892212,0.078125,0.109375,0.640625
286,0.060058594,-0.26690674,-0.8833618,0.375,0.046875,0.609375
287,0.061035156,-0.26763916,-0.8892212,0.6875,-0.484375,0.671875
288,0.061035156,-0.27349854,-0.8904419,0.078125,-0.28125,0.65625
289,0.06640625,-0.26812744,-0.88482666,0.21875,-0.203125,0.65625
290,0.068603516,-0.26593018,-0.8892212,0.5625,-0.140625,0.625
291,0.06762695,-0.26568604,-0.8858032,0.453125,-0.265625,0.78125
292,0.06738281,-0.2666626,-0.88897705,0.5,-0.53125,0.703125
293,0.07104492,-0.2695923,-0.89190674,0.265625,-0.953125,1.0
294,0.07128906,-0.2703247,-0.8936157,0.296875,-0.6875,0.796875
295,0.06567383,-0.26983643,-0.8831177,0.625,-0.09375,0.640625
296,0.064697266,-0.26812744,-0.8772583,0.828125,0.109375,0.65625
297,0.067871094,-0.27496338,-0.8867798,0.015625,0.21875,0.734375
298,0.06616211,-0.2654419,-0.8843384,-0.3125,0.140625,0.609375
299,0.061767578,-0.26763916,-0.87945557,0.625,0.265625,0.578125
300,0.06542969,-0.26861572,-0.8909302,0.21875,0.515625,0.765625
301,0.068115234,-0.26837158,-0.88946533,0.1875,0.421875,0.65625
302,0.06274414,-0.26739502,-0.89068604,0.140625,0.234375,0.578125
303,0.068115234,-0.26983643,-0.8887329,0.140625,0.265625,0.640625
304,0.0637207,-0.27520752,-0.89141846,0.25,-0.03125,0.59375
305,0.06689453,-0.26885986,-0.8928833,0.234375,-0.125,0.6875
306,0.06640625,-0.27130127,-0.8916626,0.515625,-0.0625,0.703125
307,0.0715332,-0.26885986,-0.8892212,0.375,-0.03125,0.625
308,0.06958008,-0.2703247,-0.88848877,0.171875,0.15625,0.71875
309,0.064208984,-0.26055908,-0.89068604,0.171875,-0.03125,0.6875
310,0.06713867,-0.27545166,-0.8945923,0.28125,-0.296875,0.6875
311,0.06665039,-0.2695923,-0.88848877,0.375,-0.53125,0.640625
312,0.06323242,-0.26739502,-0.89068604,0.5,-0.71875,0.625
313,0.068115234,-0.2666626,-0.88848877,0.6875,-0.9375,0.8125
314,0.07128906,-0.2732544,-0.88482666,0.5,-0.578125,0.84375
315,0.064941406,-0.2744751,-0.89971924,-0.3125,0.203125,0.453125
316,0.0703125,-0.27398682,-0.88848877,0.0625,-0.046875,0.6875
317,0.07080078,-0.269104,-0.88946533,0.59375,0.15625,0.46875
318,0.06713867,-0.27056885,-0.89678955,0.46875,0.34375,0.65625
319,0.064453125,-0.26861572,-0.8880005,0.546875,0.0625,0.671875
320,0.06958008,-0.27252197,-0.88531494,0.28125,0.046875,0.6875
321,0.071777344,-0.270813,-0.88604736,0.53125,0.171875,0.484375
322,0.06713867,-0.26690674,-0.89312744,0.140625,0.0,0.6875
323,0.07055664,-0.27056885,-0.8850708,0.09375,-0.0625,0.53125
324,0.061523438,-0.269104,-0.8875122,0.359375,-0.046875,0.625
325,0.06298828,-0.26934814,-0.8875122,0.46875,-0.09375,0.6875
326,0.07397461,-0.2703247,-0.8897095,0.21875,-0.046875,0.90625
327,0.06542969,-0.27471924,-0.8945923,0.3125,-0.203125,0.71875
328,0.07080078,-0.27105713,-0.8953247,0.125,-0.359375,0.765625
329,0.06665039,-0.27667236,-0.897522,0.109375,-0.296875,0.625
330,0.07348633,-0.27423096,-0.8833618,0.40625,-0.21875,0.703125
331,0.07128906,-0.2703247,-0.87677,0.515625,-0.046875,0.609375
332,0.0703125,-0.27227783,-0.8870239,0.328125,-0.765625,0.75
333,0.068603516,-0.26739502,-0.88360596,0.453125,-3.421875,1.03125
334,0.07006836,-0.27252197,-0.88946533,-0.140625,-2.265625,0.984375
335,0.079833984,-0.27008057,-0.8897095,0.328125,-0.921875,0.734375
336,0.0793457,-0.2678833,-0.8804321,0.484375,0.625,0.59375
337,0.075683594,-0.27008057,-0.8921509,0.3125,-0.015625,0.8125
338,0.078125,-0.2695923,-0.87213135,0.53125,-1.34375,0.78125
339,0.07543945,-0.27008057,-0.8970337,0.3125,-2.453125,1.125
340,0.088134766,-0.27252197,-0.9011841,0.953125,-2.65625,1.09375
341,0.09667969,-0.27301025,-0.89849854,0.265625,-0.75,0.65625
342,0.0859375,-0.27178955,-0.87384033,0.515625,0.390625,0.671875
343,0.09008789,-0.26934814,-0.8855591,0.25,0.484375,0.59375
344,0.087646484,-0.26885986,-0.8838501,0.5,-0.203125,0.8125
345,0.08691406,-0.26715088,-0.88848877,0.328125,-0.5,0.875
346,0.09057617,-0.27105713,-0.8904419,0.53125,-0.234375,0.71875
347,0.09008789,-0.26837158,-0.89190674,0.59375,-0.8125,0.828125
348,0.09838867,-0.27520752,-0.8933716,0.21875,-0.921875,0.78125
349,0.09643555,-0.26763916,-0.88165283,0.265625,-0.4375,0.828125
350,0.09448242,-0.2732544,-0.88116455,0.671875,-0.046875,0.78125
351,0.08984375,-0.2720337,-0.892395,0.140625,0.015625,0.703125
352,0.091552734,-0.2695923,-0.8933716,0.046875,0.15625,0.65625
353,0.08911133,-0.269104,-0.8960571,-0.234375,0.4375,0.5625
354,0.09326172,-0.26812744,-0.8826294,0.1875,0.078125,0.65625
355,0.0871582,-0.27178955,-0.8882446,0.5,0.125,0.609375
356,0.088134766,-0.27398682,-0.881897,0.4375,-0.375,0.71875
357,0.091796875,-0.26690674,-0.88848877,0.359375,-0.1875,0.640625
358,0.09008789,-0.2715454,-0.89190674,-0.375,0.046875,0.65625
359,0.09448242,-0.27716064,-0.8982544,-1.09375,0.40625,0.671875
360,0.09375,-0.27545166,-0.8911743,-1.9375,1.484375,0.4375
361,0.08325195,-0.27105713,-0.8760376,-0.484375,2.3125,0.171875
362,0.08520508,-0.2805786,-0.8928833,0.0,4.75,-0.0625
363,0.07543945,-0.28009033,-0.89508057,0.171875,4.6875,-0.03125
364,0.06762695,-0.27349854,-0.88238525,0.765625,5.0625,-0.140625
365,0.059326172,-0.27960205,-0.8987427,0.78125,3.671875,0.125
366,0.052734375,-0.27716064,-0.89141846,0.75,2.65625,0.265625
367,0.053466797,-0.27374268,-0.89508057,0.484375,1.75,0.375
368,0.048095703,-0.27349854,-0.88238525,0.65625,1.171875,0.5
369,0.049560547,-0.2695923,-0.88409424,1.140625,0.609375,0.5625
370,0.052734375,-0.27716064,-0.9024048,0.390625,0.5,0.640625
371,0.052734375,-0.27667236,-0.892395,1.21875,0.34375,0.59375
372,0.04711914,-0.27130127,-0.89019775,1.15625,0.59375,0.65625
373,0.048095703,-0.2678833,-0.88360596,2.359375,-0.0625,0.703125
374,0.049560547,-0.26861572,-0.8850708,2.46875,-0.671875,0.6875
375,0.046142578,-0.26446533,-0.8855591,1.921875,-2.46875,0.828125
376,0.053955078,-0.26226807,-0.9060669,1.0,-2.28125,0.9375
377,0.060058594,-0.270813,-0.92388916,-0.828125,-2.015625,0.859375
378,0.056640625,-0.26226807,-0.90582275,-0.296875,-0.75,0.78125
379,0.05859375,-0.2654419,-0.9104614,-0.625,-0.3125,0.828125
380,0.056884766,-0.26812744,-0.8882446,0.15625,-0.046875,0.703125
381,0.06347656,-0.25958252,-0.87994385,0.53125,-0.015625,0.640625
382,0.05883789,-0.25811768,-0.8850708,0.625,0.03125,0.671875
383,0.0637207,-0.26397705,-0.8904419,0.453125,-0.125,0.609375
384,0.05493164,-0.2625122,-0.89385986,0.453125,-0.640625,0.734375
385,0.06274414,-0.26739502,-0.89556885,0.578125,-1.421875,0.84375
386,0.056640625,-0.26641846,-0.89190674,0.421875,-1.546875,1.03125
387,0.064697266,-0.26348877,-0.9019165,0.125,-0.71875,0.890625
388,0.064208984,-0.26055908,-0.892395,0.0625,0.25,0.609375
389,0.05834961,-0.26885986,-0.9006958,-0.359375,0.265625,0.671875
390,0.059570312,-0.26739502,-0.88848877,-0.4375,0.15625,0.6875
391,0.056152344,-0.26617432,-0.88531494,0.375,0.296875,0.578125
392,0.059570312,-0.26617432,-0.8870239,-0.03125,0.171875,0.609375
393,0.064941406,-0.269104,-0.8911743,0.234375,-0.078125,0.71875
394,0.06518555,-0.26617432,-0.895813,0.109375,-0.1875,0.71875
395,0.064208984,-0.2715454,-0.89556885,0.109375,-0.28125,0.5625
396,0.0625,-0.26690674,-0.8936157,0.09375,-0.3125,0.78125
397,0.064208984,-0.26617432,-0.89141846,0.109375,-0.390625,0.734375
398,0.060546875,-0.2666626,-0.8999634,-0.125,-1.40625,0.890625
399,0.06665039,-0.26861572,-0.8862915,0.125,-1.828125,0.890625
400,0.06689453,-0.26739502,-0.88409424,0.46875,-1.25,0.796875
401,0.0715332,-0.27056885,-0.89508057,0.484375,-0.65625,0.78125
402,0.07299805,-0.2703247,-0.89801025,0.109375,0.1875,0.71875
403,0.067871094,-0.26885986,-0.8911743,0.03125,0.421875,0.65625
404,0.06665039,-0.26983643,-0.8911743,0.1875,0.203125,0.703125
405,0.05834961,-0.270813,-0.8928833,0.03125,-0.03125,0.8125
406,0.06591797,-0.26690674,-0.8880005,0.453125,-0.421875,0.65625
407,0.071777344,-0.2720337,-0.89141846,0.171875,-0.296875,0.625
408,0.07421875,-0.27008057,-0.88946533,0.8125,-0.078125,0.765625
409,0.07006836,-0.27423096,-0.894104,1.484375,0.109375,0.71875
410,0.06738281,-0.27056885,-0.89312744,1.203125,0.234375,0.6875
411,0.0715332,-0.26593018,-0.8850708,1.0,0.21875,0.59375
412,0.06567383,-0.26715088,-0.88946533,0.546875,0.203125,0.625
413,0.06665039,-0.26690674,-0.88946533,0.15625,0.421875,0.53125
414,0.068115234,-0.26153564,-0.8850708,0.046875,-0.015625,0.75
415,0.07299805,-0.26641846,-0.8933716,0.15625,-0.125,0.734375
416,0.07128906,-0.27056885,-0.8933716,0.515625,-0.1875,0.78125
417,0.07519531,-0.26715088,-0.89141846,0.8125,-0.609375,0.765625
418,0.07739258,-0.26519775,-0.89263916,0.359375,-0.734375,0.765625
419,0.06689453,-0.26617432,-0.88775635,0.46875,-0.59375,0.703125
420,0.07006836,-0.2649536,-0.8909302,0.21875,-0.328125,0.78125
421,0.076416016,-0.2666626,-0.88604736,0.484375,-0.453125,0.828125
422,0.0703125,-0.2649536,-0.894104,0.140625,-0.390625,0.6875
423,0.07299805,-0.26763916,-0.8933716,0.359375,-0.390625,0.671875
424,0.08300781,-0.26690674,-0.88531494,0.765625,-0.609375,0.75
425,0.072021484,-0.2612915,-0.8892212,0.390625,0.109375,0.671875
426,0.0715332,-0.27252197,-0.89971924,-0.25,0.40625,0.65625
427,0.071777344,-0.26617432,-0.88946533,-0.03125,0.046875,0.65625
428,0.072753906,-0.27398682,-0.8916626,0.65625,-0.09375,0.59375
429,0.076660156,-0.26568604,-0.89508057,0.296875,-0.09375,0.78125
430,0.07324219,-0.26641846,-0.8858032,0.4375,-0.09375,0.625
431,0.07373047,-0.2649536,-0.89385986,0.21875,-0.15625,0.578125
432,0.075683594,-0.26641846,-0.8989868,0.015625,-0.6875,0.828125
433,0.072509766,-0.2727661,-0.89312744,-0.09375,-1.40625,0.828125
434,0.07519531,-0.270813,-0.892395,-0.015625,-0.875,0.828125
435,0.07910156,-0.26470947,-0.892395,0.09375,-0.125,0.8125
436,0.076171875,-0.26885986,-0.8928833,0.5625,0.078125,0.6875
437,0.0769043,-0.26763916,-0.8899536,0.15625,-0.25,0.65625
438,0.07763672,-0.27349854,-0.8867798,0.4375,-0.65625,0.765625
439,0.080078125,-0.27130127,-0.88531494,0.421875,-0.5,0.703125
440,0.07714844,-0.2727661,-0.89434814,0.3125,-0.484375,0.8125
441,0.07910156,-0.27105713,-0.89068604,0.234375,-0.578125,0.828125
442,0.07836914,-0.27252197,-0.89068604,0.234375,-0.203125,0.78125
443,0.079833984,-0.26715088,-0.88848877,0.3125,-0.25,0.734375
444,0.08105469,-0.26715088,-0.88653564,0.484375,-0.015625,0.65625
445,0.08227539,-0.2715454,-0.8970337,-0.078125,0.140625,0.5
446,0.0847168,-0.26446533,-0.8870239,-0.109375,0.046875,0.734375
447,0.08569336,-0.27252197,-0.8855591,0.328125,0.015625,0.546875
448,0.0793457,-0.27349854,-0.88604736,0.171875,0.078125,0.71875
449,0.080078125,-0.26739502,-0.8882446,0.171875,-0.140625,0.6875
450,0.079833984,-0.26617432,-0.89508057,0.15625,-0.3125,0.78125
451,0.079833984,-0.26617432,-0.88653564,0.234375,-0.015625,0.640625
452,0.07836914,-0.2727661,-0.8953247,-0.234375,0.171875,0.640625
453,0.079833984,-0.26861572,-0.8933716,-1.4375,0.96875,0.46875
454,0.07763672,-0.27593994,-0.895813,-1.421875,1.375,0.46875
455,0.075927734,-0.2769165,-0.88067627,-0.8125,1.65625,0.453125
456,0.072021484,-0.2798462,-0.8928833,-0.3125,2.046875,0.421875
457,0.076660156,-0.2781372,-0.8928833,-0.28125,2.8125,0.390625
458,0.06518555,-0.28253174,-0.89019775,-0.078125,3.109375,0.28125
459,0.06982422,-0.28179932,-0.88238525,0.65625,2.453125,0.359375
460,0.055664062,-0.2756958,-0.88116455,1.09375,1.703125,0.421875
461,0.05517578,-0.27764893,-0.8909302,1.0625,0.734375,0.390625
462,0.0625,-0.27178955,-0.90216064,0.296875,-0.125,0.671875
463,0.064453125,-0.27838135,-0.89434814,0.640625,-0.703125,0.734375
464,0.05859375,-0.27618408,-0.8821411,0.875,-2.453125,0.984375
465,0.06591797,-0.27349854,-0.8875122,1.265625,-2.484375,1.0
466,0.06591797,-0.28155518,-0.87384033,1.203125,-3.921875,1.21875
467,0.07299805,-0.27130127,-0.8904419,1.765625,-5.75,1.453125
468,0.08276367,-0.27398682,-0.8960571,0.96875,-3.34375,1.203125
469,0.08691406,-0.2703247,-0.8833618,0.71875,-1.84375,0.890625
470,0.087402344,-0.2732544,-0.90216064,0.65625,-0.6875,0.65625
471,0.09106445,-0.27716064,-0.88848877,-0.09375,1.0625,0.625
472,0.084228516,-0.27398682,-0.88116455,0.28125,0.625,0.671875
473,0.07739258,-0.26885986,-0.8858032,0.703125,-0.15625,0.5625
474,0.079589844,-0.2744751,-0.88775635,0.953125,-0.375,0.6875
475,0.084472656,-0.2654419,-0.8897095,0.359375,-0.140625,0.765625
476,0.08178711,-0.26690674,-0.89068604,0.296875,-0.125,0.71875
477,0.083740234,-0.26837158,-0.8882446,0.265625,-0.34375,0.65625
478,0.0871582,-0.26885986,-0.88604736,0.265625,-0.28125,0.71875
479,0.092041016,-0.27227783,-0.8887329,0.640625,-0.1875,0.703125
480,0.092041016,-0.27618408,-0.8882446,0.6875,0.109375,0.546875
481,0.08227539,-0.27667236,-0.8928833,0.265625,-0.09375,0.703125
482,0.083740234,-0.2732544,-0.8887329,0.28125,-0.265625,0.71875
483,0.07788086,-0.27227783,-0.88238525,0.71875,-0.75,0.671875
484,0.084228516,-0.26519775,-0.8875122,0.390625,-0.34375,0.671875
485,0.09033203,-0.2654419,-0.88897705,0.265625,-0.328125,0.59375
486,0.084228516,-0.26837158,-0.89434814,-0.125,0.109375,0.828125
487,0.083984375,-0.27227783,-0.8960571,-0.21875,0.40625,0.625
488,0.08251953,-0.27301025,-0.9002075,0.0,0.484375,0.484375
489,0.084228516,-0.27374268,-0.8970337,0.171875,0.859375,0.578125
490,0.07910156,-0.2732544,-0.8875122,0.46875,0.65625,0.625
491,0.08227539,-0.27349854,-0.89068604,0.703125,0.203125,0.65625
492,0.07910156,-0.2703247,-0.8833618,0.390625,0.265625,0.734375
493,0.079589844,-0.27178955,-0.8928833,0.203125,0.09375,0.65625
494,0.08276367,-0.270813,-0.8909302,0.109375,-0.25,0.625
495,0.080566406,-0.27178955,-0.88946533,0.21875,-0.6875,0.65625
496,0.08325195,-0.27520752,-0.8887329,-0.28125,-0.734375,0.796875
497,0.08081055,-0.27056885,-0.87677,-0.234375,-0.953125,0.875
498,0.08325195,-0.27130127,-0.86309814,-1.0625,0.09375,0.734375
499,0.09106445,-0.27764893,-0.89923096,-2.484375,0.8125,0.578125
500,0.087890625,-0.2810669,-0.9006958,-0.734375,1.234375,0.453125
501,0.08496094,-0.27886963,-0.9067993,-0.484375,1.984375,0.359375
502,0.07836914,-0.27716064,-0.8821411,-0.859375,3.203125,0.109375
503,0.07446289,-0.2859497,-0.88409424,-0.28125,-0.46875,0.75
504,0.08251953,-0.2786255,-0.88946533,0.5,0.578125,0.515625
505,0.07421875,-0.28448486,-0.8726196,0.5,1.40625,0.546875
506,0.07421875,-0.27764893,-0.88653564,1.0625,0.265625,0.578125
507,0.07397461,-0.28009033,-0.88848877,1.890625,-0.109375,0.609375
508,0.07055664,-0.27496338,-0.8882446,3.015625,-0.1875,0.65625
509,0.072021484,-0.2727661,-0.8897095,3.109375,-0.28125,0.71875
510,0.072753906,-0.27301025,-0.89508057,2.4375,-0.328125,0.75
511,0.078125,-0.26641846,-0.89678955,1.578125,-0.34375,0.828125
512,0.0793457,-0.26837158,-0.8977661,0.59375,-0.5,0.703125
513,0.08081055,-0.26885986,-0.88653564,0.46875,-0.1875,0.671875
514,0.07495117,-0.26934814,-0.8867798,1.03125,-0.296875,0.875
515,0.071777344,-0.269104,-0.8882446,0.984375,-0.203125,0.65625
516,0.080078125,-0.26324463,-0.9026489,0.0,0.265625,0.59375
517,0.076416016,-0.26690674,-0.89801025,-0.125,0.65625,0.5625
518,0.07324219,-0.25958252,-0.8855591,0.984375,0.59375,0.734375
519,0.07299805,-0.26739502,-0.8892212,0.453125,1.078125,0.421875
520,0.072509766,-0.26812744,-0.88653564,0.21875,1.03125,0.578125
521,0.0715332,-0.2654419,-0.8887329,0.359375,0.71875,0.578125
522,0.06640625,-0.26617432,-0.88482666,0.671875,0.0625,0.609375
523,0.07421875,-0.26593018,-0.892395,0.375,-1.203125,0.8125
524,0.079589844,-0.26348877,-0.89385986,0.625,-2.25,0.9375
525,0.07714844,-0.2695923,-0.894104,0.4375,-1.90625,0.875
526,0.083496094,-0.26861572,-0.9006958,0.078125,-0.828125,0.796875
527,0.07519531,-0.26617432,-0.8882446,0.0,0.109375,0.65625
528,0.080322266,-0.2666626,-0.8882446,0.0625,0.5625,0.609375
529,0.08251953,-0.26715088,-0.8867798,0.28125,0.125,0.546875
530,0.07519531,-0.26470947,-0.8882446,0.265625,0.109375,0.75
531,0.07788086,-0.26690674,-0.8867798,0.328125,-0.40625,0.671875
532,0.08154297,-0.26812744,-0.9014282,-0.1875,-0.3125,0.71875
533,0.072753906,-0.2637329,-0.8911743,0.296875,-0.3125,0.703125
534,0.08178711,-0.27252197,-0.8989868,-0.171875,0.359375,0.5625
535,0.083984375,-0.26837158,-0.8858032,0.078125,0.15625,0.59375
536,0.07885742,-0.26519775,-0.88726807,0.34375,0.109375,0.59375
537,0.07006836,-0.2654419,-0.89434814,0.09375,0.203125,0.65625
538,0.07495117,-0.270813,-0.8867798,0.171875,0.296875,0.78125
539,0.075927734,-0.26812744,-0.89556885,0.046875,0.0,0.65625
540,0.0703125,-0.26983643,-0.88482666,0.40625,-0.328125,0.71875
541,0.07055664,-0.26763916,-0.8875122,0.484375,-0.078125,0.59375
542,0.071777344,-0.2642212,-0.8821411,0.375,0.03125,0.65625
543,0.07421875,-0.26837158,-0.89434814,0.359375,-0.328125,0.6875
544,0.08276367,-0.26519775,-0.8880005,0.4375,-0.359375,0.6875
545,0.07299805,-0.2727661,-0.88287354,0.09375,-1.3125,0.71875
546,0.076171875,-0.27105713,-0.8845825,0.5,-2.71875,1.0
547,0.08178711,-0.26690674,-0.88848877,0.078125,-2.546875,1.109375
548,0.08691406,-0.2703247,-0.8916626,0.46875,-1.5625,0.921875
549,0.0871582,-0.2695923,-0.88946533,0.453125,-0.1875,0.703125
550,0.0859375,-0.26739502,-0.88726807,-0.234375,0.4375,0.71875
551,0.08276367,-0.2637329,-0.8916626,-0.21875,0.6875,0.46875
552,0.084472656,-0.26934814,-0.88604736,0.078125,0.0,0.578125
553,0.08081055,-0.27056885,-0.87701416,0.484375,-0.40625,0.71875
554,0.088378906,-0.27056885,-0.88726807,0.578125,-0.53125,0.8125
555,0.0871582,-0.2703247,-0.89630127,0.265625,-0.296875,0.578125
556,0.091308594,-0.27056885,-0.8911743,0.265625,-0.09375,0.703125
557,0.08618164,-0.26983643,-0.8833618,0.28125,-0.875,0.625
558,0.09399414,-0.2744751,-0.88775635,0.359375,-0.84375,0.8125
559,0.088134766,-0.2720337,-0.8845825,0.34375,-0.796875,0.734375
560,0.08666992,-0.26934814,-0.8904419,0.421875,-0.890625,0.796875
561,0.08984375,-0.27252197,-0.8833618,0.390625,-0.484375,0.734375
562,0.09350586,-0.26934814,-0.8870239,0.328125,0.015625,0.765625
563,0.084472656,-0.2727661,-0.8867798,0.265625,0.234375,0.609375
564,0.087402344,-0.27349854,-0.8821411,0.328125,0.0,0.65625
565,0.09301758,-0.26812744,-0.8936157,0.359375,-0.28125,0.625
566,0.091796875,-0.2649536,-0.8892212,0.390625,-0.046875,0.78125
567,0.08911133,-0.2703247,-0.8845825,0.28125,-0.078125,0.703125
568,0.08935547,-0.26983643,-0.8977661,-0.140625,-0.390625,0.75
569,0.09326172,-0.26837158,-0.89385986,0.015625,-0.171875,0.6875
570,0.09375,-0.26690674,-0.89385986,-0.515625,-0.046875,0.734375
571,0.09057617,-0.27423096,-0.8713989,-0.40625,-0.171875,0.75
572,0.09741211,-0.27252197,-0.89068604,0.328125,-0.15625,0.6875
573,0.08984375,-0.27716064,-0.88897705,0.125,-0.3125,0.765625
574,0.095703125,-0.26519775,-0.8904419,0.203125,-0.484375,0.796875
575,0.09423828,-0.2793579,-0.8945923,0.109375,-0.25,0.796875
576,0.09350586,-0.27105713,-0.88360596,0.484375,-0.9375,0.78125
577,0.09423828,-0.27423096,-0.8882446,0.28125,-0.984375,0.875
578,0.10180664,-0.27545166,-0.88604736,0.75,-0.546875,0.671875
579,0.095458984,-0.27227783,-0.8855591,0.515625,-0.71875,0.859375
580,0.0949707,-0.27252197,-0.881897,0.515625,-0.65625,0.859375
581,0.095214844,-0.27520752,-0.88482666,0.46875,-0.453125,0.6875
582,0.099853516,-0.26934814,-0.8909302,0.171875,-0.828125,0.8125
583,0.09692383,-0.27301025,-0.8858032,0.21875,-0.875,0.78125
584,0.099365234,-0.27105713,-0.8887329,0.171875,-1.34375,0.84375
585,0.10058594,-0.27178955,-0.88116455,0.125,-0.90625,0.734375
586,0.10083008,-0.2774048,-0.87872314,0.578125,-1.09375,0.828125
587,0.10839844,-0.27593994,-0.88897705,0.109375,-0.96875,0.890625
588,0.107421875,-0.2678833,-0.8909302,-0.140625,-0.671875,0.734375
589,0.103759766,-0.27471924,-0.8777466,-0.296875,-0.765625,0.734375
590,0.11206055,-0.27374268,-0.8765259,0.46875,-0.5625,0.71875
591,0.11206055,-0.2774048,-0.88067627,0.4375,-0.140625,0.6875
592,0.11376953,-0.27374268,-0.88238525,0.078125,-0.171875,0.75
593,0.111083984,-0.27642822,-0.87945557,0.078125,-0.125,0.671875
594,0.10839844,-0.27545166,-0.8870239,0.078125,-0.4375,0.734375
595,0.10986328,-0.27374268,-0.8880005,0.390625,-0.46875,0.859375
596,0.111083984,-0.27227783,-0.8858032,0.109375,-0.109375,0.71875
597,0.10961914,-0.27520752,-0.881897,0.453125,-0.28125,0.703125
598,0.110839844,-0.27667236,-0.88775635,0.1875,0.015625,0.765625
599,0.1105957,-0.27374268,-0.88067627,0.25,-0.4375,0.796875
600,0.10986328,-0.27423096,-0.8862915,0.0625,-0.859375,0.765625
601,0.11352539,-0.27960205,-0.8855591,-0.0625,-1.0,0.78125
602,0.111572266,-0.27496338,-0.88360596,-0.046875,-1.96875,0.984375
603,0.11743164,-0.28302002,-0.8892212,-0.21875,-6.4375,1.703125
604,0.12915039,-0.2793579,-0.8723755,-0.828125,-6.984375,1.703125
605,0.14160156,-0.2798462,-0.8831177,-0.765625,-3.6875,1.1875
606,0.13964844,-0.28033447,-0.8743286,-0.390625,-2.171875,1.015625
607,0.15283203,-0.2859497,-0.87750244,-0.609375,-0.65625,0.78125
608,0.14575195,-0.2871704,-0.8674927,-0.125,1.328125,0.359375
609,0.14331055,-0.28619385,-0.8765259,0.390625,1.75,0.40625
610,0.13696289,-0.28326416,-0.8855591,0.375,3.578125,0.09375
611,0.13061523,-0.28741455,-0.87945557,0.15625,4.609375,0.078125
612,0.119384766,-0.2852173,-0.880188,-0.03125,5.25,-0.265625
613,0.11645508,-0.28497314,-0.87628174,0.171875,4.921875,-0.015625
614,0.11669922,-0.28985596,-0.8911743,0.265625,5.875,-0.375
615,0.10058594,-0.28375244,-0.8755493,0.1875,5.796875,-0.296875
616,0.09033203,-0.28668213,-0.88604736,0.53125,4.5,-0.1875
617,0.08959961,-0.28277588,-0.8796997,0.6875,4.296875,0.046875
618,0.0793457,-0.28546143,-0.8755493,0.640625,4.59375,-0.015625
619,0.08129883,-0.2805786,-0.8875122,0.453125,2.328125,0.234375
620,0.078125,-0.28668213,-0.8887329,0.78125,2.203125,0.203125
621,0.0715332,-0.28546143,-0.8845825,0.578125,1.65625,0.328125
622,0.07104492,-0.28790283,-0.880188,1.21875,0.984375,0.46875
623,0.07055664,-0.27886963,-0.87994385,1.125,-0.1875,0.578125
624,0.072265625,-0.27374268,-0.87628174,2.390625,-0.421875,0.6875
625,0.06958008,-0.28009033,-0.88067627,2.03125,-0.515625,0.828125
626,0.07128906,-0.27496338,-0.87872314,3.046875,-0.734375,0.78125
627,0.07421875,-0.2727661,-0.89263916,2.1875,-0.828125,0.953125
628,0.07421875,-0.27642822,-0.894104,1.0,-0.890625,0.875
629,0.07519531,-0.27716064,-0.8989868,0.203125,0.03125,0.703125
630,0.07299805,-0.2756958,-0.89385986,-0.0625,0.015625,0.734375
631,0.076660156,-0.27667236,-0.88360596,-0.03125,0.015625,0.796875
632,0.07299805,-0.26812744,-0.8843384,0.015625,0.015625,0.75
633,0.07397461,-0.27398682,-0.8831177,0.484375,0.140625,0.75
634,0.07348633,-0.27716064,-0.8911743,0.78125,0.171875,0.875
635,0.075683594,-0.270813,-0.8921509,0.953125,0.125,0.578125
636,0.068115234,-0.2727661,-0.89190674,0.453125,0.078125,0.59375
637,0.0703125,-0.26739502,-0.88946533,0.375,-0.125,0.734375
638,0.07128906,-0.270813,-0.89068604,0.421875,-0.125,0.65625
639,0.06762695,-0.27398682,-0.8826294,0.46875,-0.03125,0.546875
640,0.07128906,-0.26812744,-0.8850708,0.140625,-0.296875,0.671875
641,0.071777344,-0.27178955,-0.88775635,0.234375,-0.234375,0.765625
642,0.07324219,-0.27178955,-0.8845825,-0.078125,0.078125,0.734375
643,0.07543945,-0.27764893,-0.8862915,0.328125,-0.046875,0.6875
644,0.071777344,-0.27374268,-0.892395,0.5,0.109375,0.6875
645,0.068115234,-0.27618408,-0.8970337,0.453125,-0.359375,0.75
646,0.07446289,-0.2769165,-0.88409424,0.640625,-0.359375,0.84375
647,0.06665039,-0.2727661,-0.89190674,0.53125,-0.203125,0.703125
648,0.0715332,-0.27008057,-0.8792114,0.96875,-0.234375,0.75
649,0.07324219,-0.27520752,-0.88946533,0.390625,-0.03125,0.671875
650,0.07373047,-0.2715454,-0.8843384,0.359375,-0.046875,0.578125
651,0.07470703,-0.2695923,-0.8875122,0.609375,-0.53125,0.828125
652,0.075927734,-0.26934814,-0.88653564,0.71875,-1.34375,0.78125
653,0.076171875,-0.27496338,-0.8875122,0.46875,-0.71875,0.78125
654,0.07739258,-0.2744751,-0.8945923,0.40625,-0.734375,0.953125
655,0.080322266,-0.27056885,-0.8970337,-0.296875,-0.3125,0.609375
656,0.07763672,-0.27178955,-0.8604126,0.796875,-0.03125,0.75
657,0.083740234,-0.27178955,-0.89630127,0.265625,0.09375,0.71875
658,0.07788086,-0.26983643,-0.8855591,0.078125,0.28125,0.578125
659,0.08227539,-0.27545166,-0.88946533,-0.328125,0.46875,0.8125
660,0.075683594,-0.27252197,-0.8755493,0.234375,-0.171875,0.578125
661,0.07446289,-0.27301025,-0.88531494,0.265625,0.21875,0.609375
662,0.08300781,-0.27886963,-0.88604736,0.140625,-0.296875,0.71875
663,0.07348633,-0.27301025,-0.8916626,0.203125,-0.46875,0.640625
664,0.08154297,-0.2732544,-0.88409424,0.390625,-1.765625,0.84375
665,0.08642578,-0.269104,-0.8916626,1.0,-1.71875,0.921875
666,0.079833984,-0.27520752,-0.8916626,0.296875,-0.53125,0.796875
667,0.08691406,-0.27252197,-0.88360596,0.40625,-0.09375,0.671875
668,0.08105469,-0.2715454,-0.8904419,0.453125,0.3125,0.671875
669,0.08203125,-0.26812744,-0.8904419,0.28125,0.359375,0.515625
670,0.080566406,-0.27520752,-0.8814087,0.515625,-0.375,0.6875
671,0.08325195,-0.27349854,-0.8928833,0.375,-0.59375,0.78125
672,0.083984375,-0.27227783,-0.8855591,0.328125,-0.515625,0.703125
673,0.080566406,-0.2727661,-0.8936157,0.53125,-0.421875,0.75
674,0.083740234,-0.27667236,-0.8960571,-0.046875,-0.671875,0.671875
675,0.08569336,-0.2715454,-0.8838501,0.484375,-0.921875,0.8125
676,0.08666992,-0.2732544,-0.8909302,-0.15625,-0.75,0.625
677,0.08496094,-0.27496338,-0.8897095,0.15625,-0.140625,0.78125
678,0.08618164,-0.27423096,-0.89312744,0.515625,0.171875,0.71875
679,0.08666992,-0.2703247,-0.89019775,0.46875,-0.015625,0.671875
680,0.08227539,-0.27423096,-0.8867798,0.265625,0.140625,0.65625
681,0.083984375,-0.26397705,-0.8904419,0.25,-0.09375,0.640625
682,0.087890625,-0.27178955,-0.87872314,0.859375,-0.78125,0.765625
683,0.091308594,-0.27056885,-0.88409424,0.40625,-0.703125,0.75
684,0.092285156,-0.2678833,-0.8843384,0.21875,-1.0,0.859375
685,0.09008789,-0.26934814,-0.892395,0.609375,-1.5,0.90625
686,0.091552734,-0.2732544,-0.8855591,0.21875,-1.171875,0.984375
687,0.09350586,-0.2720337,-0.8880005,0.21875,-0.015625,0.75
688,0.09448242,-0.27374268,-0.8880005,0.1875,0.390625,0.703125
689,0.09106445,-0.27301025,-0.88848877,0.09375,0.265625,0.625
690,0.08642578,-0.2720337,-0.88409424,0.515625,-0.03125,0.625
691,0.08618164,-0.27520752,-0.8897095,0.625,0.1875,0.625
692,0.091308594,-0.2744751,-0.90045166,0.0625,-0.125,0.6875
693,0.08862305,-0.27716064,-0.8899536,0.296875,-0.796875,0.640625
694,0.087646484,-0.27301025,-0.8882446,-0.125,-0.34375,0.625
695,0.09301758,-0.27008057,-0.881897,0.21875,-0.453125,0.78125
696,0.095458984,-0.27398682,-0.8897095,0.46875,-0.171875,0.625
697,0.091796875,-0.2781372,-0.8909302,0.34375,-0.375,0.625
698,0.099609375,-0.2744751,-0.88531494,0.3125,-0.40625,0.78125
699,0.09350586,-0.27301025,-0.88946533,0.3125,-0.34375,0.8125
700,0.09667969,-0.27349854,-0.88238525,0.359375,-0.625,0.8125
701,0.096191406,-0.27105713,-0.8814087,0.265625,-0.609375,0.75
702,0.09350586,-0.28033447,-0.87750244,0.3125,-0.234375,0.6875
703,0.099365234,-0.27618408,-0.89019775,0.4375,-0.046875,0.71875
704,0.09765625,-0.27545166,-0.8880005,0.46875,-0.21875,0.78125
705,0.095947266,-0.27105713,-0.88653564,0.34375,-0.453125,0.71875
706,0.096191406,-0.2774048,-0.8875122,0.203125,-0.1875,0.6875
707,0.099121094,-0.27398682,-0.89263916,0.125,-0.296875,0.6875
708,0.100097656,-0.2798462,-0.8911743,0.21875,0.140625,0.65625
709,0.09765625,-0.26837158,-0.8855591,0.265625,0.328125,0.609375
710,0.09692383,-0.2805786,-0.89971924,-0.578125,0.796875,0.625
711,0.09301758,-0.27496338,-0.89068604,-1.390625,1.4375,0.578125
712,0.0871582,-0.28155518,-0.8911743,-1.75,2.453125,0.265625
713,0.0925293,-0.2852173,-0.8814087,-0.734375,2.328125,0.3125
714,0.08203125,-0.28814697,-0.8892212,-0.09375,2.171875,0.375
715,0.07299805,-0.2822876,-0.87628174,-0.25,2.203125,0.171875
716,0.08129883,-0.28204346,-0.88482666,-0.015625,1.984375,0.359375
717,0.07446289,-0.28204346,-0.87091064,1.0625,1.25,0.515625
718,0.07348633,-0.28912354,-0.8953247,1.390625,0.90625,0.515625
719,0.076416016,-0.28424072,-0.8994751,0.609375,1.71875,0.421875
720,0.06933594,-0.27886963,-0.8804321,0.75,1.328125,0.296875
721,0.07128906,-0.2805786,-0.8904419,1.421875,-0.578125,0.640625
722,0.06591797,-0.2756958,-0.88360596,1.375,-0.890625,0.8125
723,0.07788086,-0.27593994,-0.87823486,0.5,-3.1875,0.9375
724,0.076171875,-0.27789307,-0.87994385,1.625,-2.859375,1.03125
725,0.08251953,-0.27374268,-0.89385986,1.296875,-1.734375,0.796875
726,0.08203125,-0.27252197,-0.89556885,0.875,-0.484375,0.859375
727,0.079833984,-0.2744751,-0.89508057,0.6875,-0.28125,0.84375
728,0.08325195,-0.27471924,-0.8965454,0.4375,-0.265625,0.671875
729,0.08227539,-0.27471924,-0.87701416,0.78125,-0.109375,0.609375
730,0.07788086,-0.27301025,-0.881897,0.484375,-0.078125,0.6875
731,0.080566406,-0.27471924,-0.8862915,0.421875,-0.59375,0.71875
732,0.0871582,-0.27178955,-0.8904419,0.546875,-0.40625,0.671875
733,0.083984375,-0.27252197,-0.89727783,0.21875,-0.25,0.8125
734,0.08081055,-0.270813,-0.89312744,0.640625,0.390625,0.703125
735,0.08569336,-0.27423096,-0.894104,0.359375,0.046875,0.609375
736,0.07910156,-0.27911377,-0.8904419,0.5,0.328125,0.578125
737,0.080322266,-0.27105713,-0.8826294,0.3125,-0.15625,0.671875
738,0.087402344,-0.27471924,-0.8899536,0.5,-1.015625,0.796875
739,0.08984375,-0.27301025,-0.8845825,0.828125,-1.484375,0.875
740,0.09008789,-0.26983643,-0.89263916,0.53125,-0.96875,0.84375
741,0.09057617,-0.26812744,-0.8904419,0.3125,-0.25,0.875
742,0.08911133,-0.27520752,-0.8882446,0.296875,0.0625,0.65625
743,0.09448242,-0.27252197,-0.8858032,0.453125,-0.3125,0.703125
744,0.08959961,-0.27374268,-0.8870239,0.59375,-0.78125,0.921875
745,0.087890625,-0.2732544,-0.88604736,0.765625,-1.546875,0.875
746,0.092041016,-0.27423096,-0.9065552,0.078125,-1.71875,0.984375
747,0.095947266,-0.26934814,-0.8945923,-0.1875,-1.3125,0.96875
748,0.09399414,-0.27178955,-0.8850708,-0.140625,-0.359375,0.734375
749,0.09692383,-0.27105713,-0.8821411,0.375,-0.109375,0.703125
750,0.096191406,-0.27130127,-0.897522,0.09375,0.40625,0.59375
751,0.095703125,-0.26739502,-0.88604736,0.109375,-0.296875,0.65625
752,0.099121094,-0.26715088,-0.8809204,0.265625,-1.078125,0.890625
753,0.10620117,-0.27886963,-0.89263916,0.328125,-1.328125,0.921875
754,0.09301758,-0.27716064,-0.8765259,0.609375,-1.890625,1.078125
755,0.10473633,-0.27496338,-0.8882446,-0.03125,-1.453125,0.875
756,0.10522461,-0.27496338,-0.8723755,0.65625,-1.6875,0.90625
757,0.109375,-0.2756958,-0.8882446,0.34375,-1.53125,0.9375
758,0.111572266,-0.27301025,-0.8897095,0.421875,-1.5625,0.84375
759,0.11621094,-0.27520752,-0.8933716,0.21875,-1.1875,0.96875
