sample_no,accel_x,accel_y,accel_z,gyro_x,gyro_y,gyro_z
0,-0.22460938,-0.9590454,0.24261475,-0.640625,0.328125,-0.578125
1,-0.22998047,-0.9734497,0.23382568,0.96875,1.359375,-0.28125
2,-0.23583984,-0.9585571,0.23944092,-0.171875,0.578125,0.0625
3,-0.23266602,-0.972229,0.24334717,-0.078125,0.828125,0.734375
4,-0.22631836,-0.9631958,0.2374878,-0.75,1.078125,0.28125
5,-0.22924805,-0.9807739,0.24578857,0.421875,1.234375,-0.109375
6,-0.22460938,-0.972229,0.24920654,-0.84375,1.21875,-0.625
7,-0.23535156,-0.96588135,0.24603271,0.375,0.828125,-0.171875
8,-0.2368164,-0.95562744,0.24481201,-0.25,1.296875,-0.125
9,-0.24145508,-0.9834595,0.2518921,0.296875,1.078125,0.578125
10,-0.23364258,-0.96051025,0.24945068,-0.0625,0.890625,-0.125
11,-0.23803711,-0.9595337,0.23944092,-0.3125,1.046875,0.640625
12,-0.22998047,-0.9710083,0.2345581,-0.5,1.0,0.375
13,-0.23144531,-0.9417114,0.27459717,1.125,2.21875,-0.4375
14,-0.2487793,-0.99664307,0.23480225,2.03125,2.453125,3.0625
15,-0.19262695,-0.9483032,0.20135498,-4.25,1.828125,-0.296875
16,-0.23413086,-0.9751587,0.26678467,2.328125,1.296875,-1.15625
17,-0.23266602,-0.9702759,0.25238037,-1.59375,1.046875,-1.140625
18,-0.22241211,-0.9570923,0.24993896,1.59375,1.625,-0.484375
19,-0.23828125,-0.96710205,0.24285889,1.359375,1.765625,1.078125
20,-0.22314453,-0.9570923,0.2489624,0.640625,1.078125,0.828125
21,-0.23120117,-0.96832275,0.24481201,-0.59375,0.8125,-0.09375
22,-0.2290039,-0.96710205,0.24505615,-0.0625,0.625,-0.0625
23,-0.23217773,-0.9619751,0.24383545,-0.53125,0.0,-0.0625
24,-0.22924805,-0.96417236,0.2411499,0.125,0.375,-0.125
25,-0.23510742,-0.96661377,0.24407959,-0.609375,0.78125,-0.390625
26,-0.22998047,-0.9678345,0.2518921,-0.375,0.6875,-0.03125
27,-0.23925781,-0.9612427,0.24993896,0.078125,0.78125,0.0
28,-0.23608398,-0.96588135,0.24310303,-0.234375,1.140625,0.25
29,-0.22485352,-0.9710083,0.23919678,-1.953125,0.984375,-0.59375
30,-0.23852539,-0.96759033,0.2658081,2.46875,1.0,-0.453125
31,-0.22827148,-0.956604,0.23114014,-2.796875,1.0625,-0.421875
32,-0.24194336,-0.96295166,0.26190186,0.09375,1.828125,-0.453125
33,-0.23803711,-0.97491455,0.26141357,-0.203125,0.65625,-0.078125
34,-0.23486328,-0.96099854,0.24481201,0.59375,1.0625,-0.375
35,-0.23657227,-0.9639282,0.24871826,0.9375,1.796875,0.75
36,-0.23779297,-0.9644165,0.24261475,0.15625,1.671875,0.890625
37,-0.22314453,-0.9614868,0.25775146,-0.28125,1.578125,-0.25
38,-0.23657227,-0.96588135,0.2501831,0.859375,1.203125,-0.484375
39,-0.22631836,-0.960022,0.24090576,-0.234375,1.015625,0.109375
40,-0.23388672,-0.9729614,0.24920654,-0.390625,1.234375,-0.375
41,-0.24243164,-0.9717407,0.25335693,0.921875,1.1875,-0.046875
42,-0.2368164,-0.958313,0.24066162,0.015625,1.078125,0.375
43,-0.23876953,-0.97076416,0.2514038,0.53125,1.203125,1.28125
44,-0.2290039,-0.97442627,0.24993896,-0.125,0.71875,0.40625
45,-0.23217773,-0.96051025,0.23895264,-1.65625,-0.15625,0.265625
46,-0.23803711,-0.96588135,0.24798584,1.5,0.515625,1.1875
47,-0.21313477,-0.96588135,0.23773193,-3.625,0.84375,-0.890625
48,-0.24438477,-0.9710083,0.2670288,0.859375,1.296875,-0.453125
49,-0.23339844,-0.97491455,0.24603271,-0.265625,0.296875,0.21875
50,-0.23413086,-0.9558716,0.24749756,0.375,1.359375,-0.15625
51,-0.23608398,-0.9639282,0.23919678,0.3125,1.84375,-0.140625
52,-0.23242188,-0.9663696,0.25628662,0.390625,1.421875,-0.75
53,-0.24316406,-0.954895,0.2477417,0.09375,1.46875,-0.078125
54,-0.23803711,-0.95880127,0.25238037,1.25,1.765625,-0.078125
55,-0.23095703,-0.9741821,0.24725342,-0.875,1.25,0.046875
56,-0.23120117,-0.95977783,0.2489624,0.390625,1.21875,-1.265625
57,-0.25170898,-0.95880127,0.24969482,-0.203125,0.875,0.015625
58,-0.2355957,-0.9680786,0.25408936,-0.640625,1.265625,0.046875
59,-0.23852539,-0.9644165,0.25628662,0.46875,1.53125,-0.5
60,-0.2434082,-0.9644165,0.24505615,0.484375,1.34375,0.015625
61,-0.23608398,-0.9468384,0.25457764,0.765625,1.546875,0.46875
62,-0.23535156,-0.9817505,0.23553467,1.375,1.578125,0.390625
63,-0.23266602,-0.95880127,0.24578857,-1.546875,1.53125,-0.546875
64,-0.24633789,-0.9673462,0.2567749,2.640625,1.40625,0.640625
65,-0.22973633,-0.96417236,0.23968506,-0.71875,0.921875,0.078125
66,-0.23754883,-0.9741821,0.25042725,0.65625,1.71875,-0.34375
67,-0.24536133,-0.95684814,0.23846436,0.984375,1.234375,0.0625
68,-0.24169922,-0.95635986,0.24920654,-0.171875,1.421875,0.15625
69,-0.24121094,-0.95806885,0.24676514,0.484375,1.34375,-0.234375
70,-0.24072266,-0.98028564,0.24383545,1.046875,1.21875,1.015625
71,-0.23388672,-0.9573364,0.2374878,-0.125,1.125,-0.0625
72,-0.23510742,-0.97076416,0.24359131,-0.453125,0.953125,-0.59375
73,-0.24414062,-0.97369385,0.24822998,-0.21875,1.03125,0.21875
74,-0.24584961,-0.96588135,0.24505615,0.78125,1.265625,0.671875
75,-0.23657227,-0.9505005,0.24139404,-0.140625,1.984375,-0.53125
76,-0.23803711,-0.972229,0.25335693,0.71875,1.078125,0.03125
77,-0.2421875,-0.9714966,0.22894287,1.875,1.015625,0.640625
78,-0.22729492,-0.95098877,0.23724365,-0.8125,1.640625,-0.453125
79,-0.25097656,-0.97198486,0.2555542,0.90625,1.421875,0.09375
80,-0.23095703,-0.96221924,0.23773193,0.171875,0.78125,-0.75
81,-0.24902344,-0.9668579,0.24676514,0.0,1.15625,-0.015625
82,-0.24267578,-0.9627075,0.23651123,0.453125,1.4375,0.703125
83,-0.22485352,-0.96832275,0.23822021,-0.3125,1.8125,0.046875
84,-0.2368164,-0.95635986,0.24359131,0.546875,1.796875,-0.640625
85,-0.24243164,-0.96832275,0.24993896,1.46875,0.890625,0.3125
86,-0.24243164,-0.97247314,0.24383545,0.9375,0.65625,1.109375
87,-0.23779297,-0.95880127,0.230896,1.421875,0.984375,0.203125
88,-0.23876953,-0.97369385,0.2333374,0.515625,1.578125,0.0625
89,-0.24584961,-0.96954346,0.2321167,1.4375,1.21875,0.921875
90,-0.2253418,-0.9795532,0.2267456,0.90625,1.203125,0.484375
91,-0.23242188,-0.95025635,0.2411499,2.515625,0.734375,0.78125
92,-0.24560547,-0.97076416,0.2321167,2.03125,1.875,0.40625
93,-0.23852539,-0.960022,0.22406006,-1.046875,0.703125,-0.078125
94,-0.2434082,-0.97125244,0.24359131,1.546875,0.96875,0.65625
95,-0.23095703,-0.96173096,0.22406006,-0.546875,1.015625,0.46875
96,-0.2331543,-0.9614868,0.23480225,0.828125,1.375,0.5625
97,-0.24072266,-0.9661255,0.22332764,0.3125,0.875,0.515625
98,-0.22460938,-0.9668579,0.2296753,0.140625,1.0625,0.4375
99,-0.23583984,-0.96295166,0.2333374,0.0625,0.6875,0.03125
100,-0.23583984,-0.97198486,0.2218628,0.140625,0.8125,0.515625
101,-0.2253418,-0.9651489,0.22381592,-0.28125,1.21875,-0.140625
102,-0.23608398,-0.973938,0.22991943,-0.109375,1.34375,-0.390625
103,-0.23632812,-0.96661377,0.23480225,-0.046875,0.8125,-0.296875
104,-0.23730469,-0.9680786,0.22845459,-0.640625,0.671875,-0.109375
105,-0.23803711,-0.9656372,0.22406006,-1.375,0.90625,-0.375
106,-0.23583984,-0.9636841,0.23699951,1.359375,0.828125,-0.453125
107,-0.23095703,-0.9534302,0.21697998,-2.078125,1.0,-0.953125
108,-0.24829102,-0.9690552,0.24090576,0.53125,1.34375,-0.0625
109,-0.24853516,-0.9807739,0.22698975,-0.1875,0.40625,0.546875
110,-0.2434082,-0.96710205,0.23699951,0.34375,1.296875,0.109375
111,-0.24365234,-0.9673462,0.2255249,-0.125,1.3125,0.390625
112,-0.23901367,-0.96343994,0.22406006,0.140625,1.6875,0.875
113,-0.22729492,-0.9661255,0.23529053,0.546875,1.5625,0.46875
114,-0.23339844,-0.9702759,0.23406982,0.34375,1.015625,0.34375
115,-0.23388672,-0.9614868,0.22454834,0.03125,1.359375,0.21875
116,-0.23339844,-0.960022,0.2333374,0.3125,1.1875,0.078125
117,-0.23876953,-0.9680786,0.2321167,0.4375,0.890625,0.046875
118,-0.24023438,-0.9692993,0.22479248,-0.28125,1.0,0.234375
119,-0.2368164,-0.97784424,0.22406006,-0.390625,1.21875,0.078125
120,-0.24487305,-0.96466064,0.24188232,0.796875,1.125,0.0
121,-0.23242188,-0.9714966,0.21258545,-2.1875,0.75,-0.203125
122,-0.23754883,-0.9651489,0.23724365,-0.234375,1.40625,0.0
123,-0.23876953,-0.9668579,0.23504639,0.59375,1.0625,0.296875
124,-0.23217773,-0.95806885,0.2321167,-0.8125,0.765625,0.21875
125,-0.2355957,-0.95928955,0.23406982,0.046875,1.046875,0.0
126,-0.23876953,-0.9714966,0.22796631,0.5,0.734375,0.171875
127,-0.23632812,-0.9627075,0.22698975,0.09375,1.171875,-0.109375
128,-0.2397461,-0.96881104,0.23187256,0.734375,1.484375,-0.15625
129,-0.23657227,-0.97198486,0.23577881,0.296875,1.46875,-0.015625
130,-0.23608398,-0.97247314,0.23431396,-0.125,1.4375,-0.53125
131,-0.23999023,-0.9627075,0.23406982,0.421875,1.234375,-0.296875
132,-0.2409668,-0.9656372,0.22796631,0.078125,1.296875,0.078125
133,-0.24438477,-0.96710205,0.22821045,0.234375,1.0,0.484375
134,-0.23608398,-0.9692993,0.22064209,0.4375,1.25,0.4375
135,-0.23779297,-0.96661377,0.22943115,2.4375,1.625,0.875
136,-0.23486328,-0.9685669,0.21429443,-1.65625,1.65625,0.015625
137,-0.24267578,-0.97369385,0.23309326,0.375,1.03125,-0.203125
138,-0.23657227,-0.97369385,0.22918701,0.328125,0.703125,0.40625
139,-0.2397461,-0.96759033,0.2321167,0.640625,1.109375,0.578125
140,-0.2446289,-0.9661255,0.22332764,0.65625,0.671875,0.84375
141,-0.23730469,-0.9729614,0.22137451,0.40625,1.328125,0.625
142,-0.22363281,-0.96051025,0.22259521,-0.359375,0.515625,-0.046875
143,-0.23828125,-0.9649048,0.22943115,-0.15625,0.6875,0.625
144,-0.2265625,-0.96099854,0.22064209,-0.265625,1.4375,0.453125
145,-0.23242188,-0.98321533,0.23040771,-0.265625,1.171875,-0.28125
146,-0.23852539,-0.97320557,0.22698975,0.625,0.21875,-0.546875
147,-0.24121094,-0.9714966,0.21917725,-0.6875,0.734375,0.9375
148,-0.23486328,-0.9758911,0.2218628,0.03125,1.296875,0.1875
149,-0.23242188,-0.96466064,0.23187256,0.25,1.109375,-0.765625
150,-0.23657227,-0.9673462,0.22235107,0.234375,0.765625,0.28125
151,-0.23657227,-0.97076416,0.23016357,0.25,1.15625,0.78125
152,-0.234375,-0.98931885,0.21551514,-0.890625,0.65625,-0.125
153,-0.23901367,-0.9607544,0.22503662,-0.75,0.6875,-0.53125
154,-0.24316406,-0.9771118,0.23626709,0.234375,0.765625,0.6875
155,-0.22949219,-0.9727173,0.23114014,-0.296875,0.921875,0.109375
156,-0.23608398,-0.9697876,0.22454834,0.0,0.71875,0.046875
157,-0.23999023,-0.95440674,0.2189331,0.46875,0.9375,0.515625
158,-0.234375,-0.96099854,0.21844482,-0.703125,1.375,0.328125
159,-0.22167969,-0.9680786,0.23260498,0.34375,1.359375,0.078125
160,-0.23364258,-0.95684814,0.2374878,0.734375,0.921875,0.3125
161,-0.25170898,-0.9697876,0.22650146,-0.3125,0.65625,1.0625
162,-0.24047852,-0.9651489,0.23187256,0.453125,1.78125,0.375
163,-0.24560547,-0.9717407,0.22601318,0.296875,2.09375,0.328125
164,-0.22998047,-0.96417236,0.230896,1.734375,1.8125,-0.71875
165,-0.23779297,-0.96881104,0.2230835,0.53125,1.390625,0.21875
166,-0.23510742,-0.9590454,0.22576904,0.296875,1.625,0.453125
167,-0.22875977,-0.97003174,0.22015381,0.078125,1.015625,0.46875
168,-0.23266602,-0.972229,0.22869873,-0.171875,0.375,-0.53125
169,-0.24169922,-0.9644165,0.23406982,0.671875,0.1875,0.609375
170,-0.23217773,-0.9788208,0.2074585,-0.59375,1.015625,0.234375
171,-0.23120117,-0.9668579,0.22869873,-0.34375,2.078125,-0.796875
172,-0.25,-0.97662354,0.23309326,0.59375,1.171875,0.0
173,-0.234375,-0.96099854,0.22576904,-0.578125,0.875,0.09375
174,-0.23242188,-0.9685669,0.22039795,-0.453125,1.15625,-0.359375
175,-0.24145508,-0.9536743,0.21844482,-0.234375,1.28125,0.015625
176,-0.23242188,-0.96466064,0.21722412,0.140625,1.3125,0.203125
177,-0.23510742,-0.97125244,0.23602295,-0.328125,1.09375,-0.765625
178,-0.24951172,-0.9727173,0.2399292,0.515625,0.6875,0.28125
179,-0.24072266,-0.9607544,0.22747803,0.484375,1.46875,0.375
180,-0.2446289,-0.9741821,0.22991943,-0.5625,1.171875,0.328125
181,-0.22851562,-0.9639282,0.2267456,0.59375,1.390625,-0.4375
182,-0.24853516,-0.9673462,0.22503662,-0.40625,0.84375,0.21875
183,-0.23535156,-0.9685669,0.21844482,0.203125,0.734375,0.765625
184,-0.23852539,-0.9717407,0.22137451,0.734375,1.046875,0.203125
185,-0.23388672,-0.9558716,0.22064209,0.515625,1.296875,-0.359375
186,-0.2397461,-0.9680786,0.22650146,0.015625,0.484375,-0.015625
187,-0.24194336,-0.9841919,0.22161865,-0.8125,0.421875,-0.484375
188,-0.24145508,-0.973938,0.23187256,0.0625,-0.0625,-0.140625
189,-0.22802734,-0.95977783,0.21966553,-1.140625,0.8125,-0.71875
190,-0.24682617,-0.96759033,0.23602295,0.671875,0.65625,-0.171875
191,-0.24584961,-0.9673462,0.22210693,-0.21875,0.890625,0.015625
192,-0.23779297,-0.9590454,0.2333374,-0.234375,1.03125,0.234375
193,-0.24487305,-0.95806885,0.21673584,-0.75,0.796875,-0.015625
194,-0.2512207,-0.9710083,0.22723389,0.4375,1.640625,0.296875
195,-0.23535156,-0.9663696,0.22576904,-0.359375,1.078125,0.078125
196,-0.24926758,-0.96661377,0.22821045,0.0625,1.421875,-0.125
197,-0.24682617,-0.9644165,0.22772217,0.046875,1.5,0.25
198,-0.24243164,-0.975647,0.22503662,-0.578125,1.1875,0.109375
199,-0.2397461,-0.9685669,0.23406982,-0.515625,0.84375,-0.390625
200,-0.24804688,-0.96710205,0.2255249,-0.375,0.875,0.21875
201,-0.24267578,-0.9595337,0.22406006,-0.46875,1.0,0.53125
202,-0.24145508,-0.96759033,0.2267456,-1.390625,0.78125,0.0
203,-0.23706055,-0.96173096,0.23406982,-1.34375,0.515625,-0.703125
204,-0.24975586,-0.9663696,0.23309326,-1.0,0.578125,0.03125
205,-0.23852539,-0.96221924,0.23626709,-0.5625,0.734375,-0.015625
206,-0.2409668,-0.9702759,0.23602295,-0.8125,0.75,-0.4375
207,-0.24536133,-0.9607544,0.24285889,1.0,-0.078125,0.03125
208,-0.24316406,-0.9602661,0.22821045,-1.5,0.78125,0.046875
209,-0.25097656,-0.96832275,0.23944092,0.984375,1.359375,0.03125
210,-0.24414062,-0.9685669,0.2345581,-0.328125,1.09375,0.078125
211,-0.2446289,-0.96099854,0.24017334,0.390625,1.1875,-0.140625
212,-0.24658203,-0.96051025,0.23846436,2.59375,1.296875,0.734375
213,-0.25170898,-0.96417236,0.21844482,3.109375,1.78125,1.546875
214,-0.24267578,-0.96832275,0.2255249,2.59375,2.1875,0.8125
215,-0.23632812,-0.96099854,0.2321167,1.71875,1.796875,0.046875
216,-0.24633789,-0.9668579,0.22357178,0.453125,0.75,1.203125
217,-0.23779297,-0.96832275,0.22259521,-0.4375,0.96875,0.765625
218,-0.2409668,-0.9685669,0.22210693,-0.703125,1.609375,0.25
219,-0.2397461,-0.96466064,0.22503662,-0.125,1.234375,0.078125
220,-0.24072266,-0.9710083,0.22625732,-0.15625,1.53125,0.28125
221,-0.24047852,-0.97052,0.22625732,-0.3125,1.21875,0.328125
222,-0.2446289,-0.97320557,0.23040771,-0.625,1.203125,0.453125
223,-0.24316406,-0.96832275,0.22698975,0.125,1.375,0.453125
224,-0.24169922,-0.9771118,0.2321167,0.625,0.9375,0.171875
225,-0.22753906,-0.96759033,0.22650146,0.21875,1.234375,0.109375
226,-0.23291016,-0.96417236,0.21209717,-2.234375,0.390625,-0.234375
227,-0.23730469,-0.9627075,0.23284912,-1.328125,0.734375,-0.515625
228,-0.23901367,-0.97491455,0.23577881,-1.328125,0.328125,-0.34375
229,-0.24267578,-0.954895,0.23260498,-1.296875,0.546875,-0.046875
230,-0.24780273,-0.96710205,0.22943115,-0.765625,0.703125,0.328125
231,-0.24267578,-0.96954346,0.24847412,1.40625,0.78125,0.96875
232,-0.23266602,-0.9656372,0.24359131,0.1875,0.234375,1.578125
233,-0.25268555,-0.93756104,0.25115967,-4.3125,-3.921875,3.359375
234,-0.22436523,-0.9907837,0.20770264,1.53125,-1.984375,4.484375
235,-0.23461914,-0.98272705,0.22943115,8.625,-0.1875,4.890625
236,-0.21191406,-0.9685669,0.19403076,2.59375,-2.78125,3.109375
237,-0.20629883,-0.9898071,0.2062378,-1.375,-1.875,2.765625
238,-0.21484375,-0.99298096,0.20843506,1.296875,1.296875,-0.75
239,-0.21191406,-0.96832275,0.21136475,-1.0,0.953125,0.4375
240,-0.23144531,-0.97369385,0.21502686,-0.875,0.390625,-0.359375
241,-0.22338867,-0.95928955,0.21844482,0.046875,0.734375,0.140625
242,-0.22021484,-0.9534302,0.21795654,-0.09375,1.359375,-0.28125
243,-0.22265625,-0.9763794,0.22894287,-0.34375,0.0,0.890625
244,-0.21044922,-0.9668579,0.2074585,-1.53125,0.8125,-0.09375
245,-0.22509766,-0.97979736,0.22918701,0.0,1.453125,-0.234375
246,-0.22241211,-0.989563,0.21722412,0.328125,0.640625,0.0
247,-0.21850586,-0.98272705,0.22747803,-0.546875,1.015625,-0.390625
248,-0.2265625,-0.97491455,0.20819092,0.53125,1.0625,-0.421875
249,-0.22363281,-0.9661255,0.21429443,0.5,1.03125,0.078125
250,-0.21899414,-0.9668579,0.2164917,-0.15625,1.0,0.53125
251,-0.2211914,-0.95977783,0.22283936,0.21875,0.796875,-0.375
252,-0.22558594,-0.97247314,0.21234131,0.15625,0.765625,0.125
253,-0.22021484,-0.97442627,0.21160889,-0.78125,0.796875,0.25
254,-0.2199707,-0.9800415,0.2218628,-0.71875,1.4375,-0.4375
255,-0.22729492,-0.97125244,0.22137451,-1.125,1.359375,-0.671875
256,-0.23364258,-0.97906494,0.230896,-0.1875,0.796875,0.484375
257,-0.22143555,-0.95684814,0.21942139,-0.0625,1.140625,-0.0625
258,-0.22851562,-0.9763794,0.21820068,-0.921875,0.5625,0.296875
259,-0.2253418,-0.975647,0.21795654,1.09375,0.90625,-0.03125
260,-0.22290039,-0.95513916,0.22918701,-0.03125,0.921875,0.5
261,-0.21875,-0.98638916,0.20233154,-0.953125,1.234375,0.203125
262,-0.22753906,-0.9690552,0.22943115,-1.4375,1.8125,-0.71875
263,-0.22436523,-0.97247314,0.22503662,0.125,1.078125,-0.546875
264,-0.2265625,-0.9685669,0.22601318,-1.140625,0.71875,0.0
265,-0.23486328,-0.9768677,0.22210693,-0.109375,1.15625,0.625
266,-0.22241211,-0.9717407,0.22332764,0.0625,1.4375,0.296875
267,-0.22485352,-0.95880127,0.22503662,-0.171875,1.609375,-0.375
268,-0.23095703,-0.9685669,0.22943115,-0.53125,0.765625,0.203125
269,-0.2211914,-0.97125244,0.23162842,0.46875,0.90625,0.578125
270,-0.23071289,-0.97857666,0.21575928,-0.171875,0.65625,0.359375
271,-0.22607422,-0.97857666,0.2267456,0.015625,0.984375,-0.390625
272,-0.23242188,-0.97198486,0.22796631,0.46875,1.34375,0.078125
273,-0.21972656,-0.9663696,0.22576904,0.6875,1.890625,-0.359375
274,-0.2290039,-0.9636841,0.22698975,-0.203125,1.84375,-0.125
275,-0.22583008,-0.9678345,0.23284912,-0.34375,1.359375,-0.21875
276,-0.23046875,-0.96710205,0.22698975,-0.625,0.90625,-0.203125
277,-0.23999023,-0.97003174,0.22576904,-0.3125,1.015625,0.1875
278,-0.2199707,-0.97125244,0.22991943,1.015625,1.265625,0.46875
279,-0.2265625,-0.96295166,0.21380615,-2.140625,1.3125,-0.5
280,-0.23608398,-0.9776001,0.24359131,0.78125,1.921875,-0.234375
281,-0.22607422,-0.97613525,0.22796631,-0.53125,0.84375,0.125
282,-0.23022461,-0.96759033,0.22528076,-0.1875,1.078125,-0.28125
283,-0.23217773,-0.9585571,0.23382568,-0.0625,0.9375,0.1875
284,-0.22973633,-0.9627075,0.22113037,-0.03125,0.765625,0.609375
285,-0.22338867,-0.96881104,0.22821045,-0.1875,0.75,0.265625
286,-0.23095703,-0.9685669,0.22650146,0.046875,1.203125,0.0625
287,-0.22705078,-0.97003174,0.23651123,0.484375,1.1875,0.296875
288,-0.2319336,-0.9697876,0.22894287,-0.15625,1.09375,0.34375
289,-0.22363281,-0.9763794,0.2321167,-0.453125,1.4375,-0.265625
290,-0.22753906,-0.9649048,0.22698975,-0.875,1.65625,-0.59375
291,-0.24072266,-0.973938,0.22991943,-0.453125,0.9375,0.421875
292,-0.22070312,-0.96221924,0.23651123,0.40625,1.296875,-0.203125
293,-0.22631836,-0.96661377,0.22821045,-0.0625,0.84375,-0.078125
294,-0.23364258,-0.96221924,0.22845459,-0.3125,0.84375,0.078125
295,-0.2290039,-0.9541626,0.24798584,0.15625,1.1875,0.03125
296,-0.23266602,-0.9805298,0.2230835,-0.859375,0.875,-0.109375
297,-0.23266602,-0.97369385,0.2255249,-3.078125,1.078125,-0.796875
298,-0.2199707,-0.97198486,0.24285889,-1.734375,0.484375,-1.515625
299,-0.22998047,-0.9668579,0.24212646,-3.21875,-0.71875,-1.46875
300,-0.25463867,-0.96881104,0.24676514,-1.5,-0.46875,-0.78125
301,-0.2368164,-0.958313,0.2489624,-0.25,1.234375,-0.328125
302,-0.24072266,-0.9507446,0.25775146,-0.28125,1.375,-0.609375
303,-0.24902344,-0.9619751,0.25604248,0.34375,0.796875,-0.28125
304,-0.24291992,-0.96539307,0.23919678,0.484375,1.40625,0.390625
305,-0.24023438,-0.9768677,0.24359131,0.046875,1.75,0.046875
306,-0.24023438,-0.97369385,0.24578857,0.484375,0.84375,-0.0625
307,-0.24780273,-0.95513916,0.23944092,0.0,0.765625,-0.046875
308,-0.24389648,-0.96173096,0.24383545,0.140625,1.4375,0.328125
309,-0.24169922,-0.958313,0.24310303,-0.171875,0.921875,-0.09375
310,-0.24121094,-0.9651489,0.23284912,-0.609375,0.90625,0.734375
311,-0.23120117,-0.96710205,0.2518921,-0.3125,1.046875,0.171875
312,-0.24047852,-0.9651489,0.2518921,-0.703125,0.796875,0.375
313,-0.2409668,-0.9624634,0.24578857,1.0625,0.375,0.328125
314,-0.23242188,-0.9651489,0.23260498,-1.65625,1.71875,0.0
315,-0.2548828,-0.96343994,0.2579956,1.359375,2.1875,0.296875
316,-0.22558594,-0.95880127,0.24041748,-0.203125,1.75,0.03125
317,-0.23461914,-0.9619751,0.24822998,-0.625,1.484375,-0.125
318,-0.24438477,-0.9578247,0.2411499,-0.53125,0.703125,-0.015625
319,-0.23706055,-0.960022,0.2501831,-1.25,1.8125,0.0
320,-0.2529297,-0.98028564,0.2633667,-0.0625,-0.453125,-0.15625
321,-0.23925781,-0.9529419,0.25115967,0.546875,0.46875,0.296875
322,-0.24072266,-0.96051025,0.2506714,0.6875,0.703125,1.078125
323,-0.2512207,-0.97979736,0.25164795,2.109375,1.390625,0.765625
324,-0.22558594,-0.9656372,0.24993896,3.0625,1.5,0.484375
325,-0.25341797,-0.954895,0.23284912,1.5,0.890625,1.0
326,-0.23730469,-0.9612427,0.2387085,-0.671875,1.171875,0.4375
327,-0.22827148,-0.96759033,0.23577881,-0.09375,2.4375,-0.109375
328,-0.2355957,-0.95806885,0.24627686,-1.4375,1.328125,-0.875
329,-0.24169922,-0.97076416,0.24285889,-0.46875,1.078125,0.234375
330,-0.24023438,-0.97247314,0.24481201,-0.03125,0.515625,0.265625
331,-0.23510742,-0.96051025,0.23480225,-1.203125,1.828125,-0.140625
332,-0.24829102,-0.9680786,0.2584839,0.5,2.0625,-0.265625
333,-0.23120117,-0.96417236,0.24432373,-1.3125,1.546875,0.03125
334,-0.2368164,-0.9636841,0.25579834,-0.671875,1.859375,-0.5
335,-0.24609375,-0.9702759,0.25750732,0.90625,0.28125,0.734375
336,-0.22851562,-0.9602661,0.23797607,0.453125,1.515625,0.4375
337,-0.24072266,-0.95758057,0.2526245,0.015625,0.890625,0.359375
338,-0.23999023,-0.96417236,0.2506714,-0.03125,1.765625,-0.5625
339,-0.2397461,-0.9639282,0.24969482,0.140625,0.875,0.78125
340,-0.23803711,-0.97125244,0.25335693,1.734375,1.078125,1.140625
341,-0.23388672,-0.9729614,0.23846436,1.390625,-0.609375,1.28125
342,-0.23901367,-0.9729614,0.2453003,0.671875,0.203125,0.265625
343,-0.2277832,-0.96099854,0.24676514,0.734375,0.4375,0.71875
344,-0.22387695,-0.95758057,0.22869873,-0.078125,0.421875,0.5625
345,-0.23925781,-0.97784424,0.23797607,-0.4375,0.21875,0.015625
346,-0.23535156,-0.95098877,0.24407959,0.71875,0.34375,-0.03125
347,-0.24023438,-0.95806885,0.23602295,-1.96875,1.1875,0.0625
348,-0.2487793,-0.9631958,0.24749756,0.96875,1.234375,0.390625
349,-0.23046875,-0.9685669,0.24017334,-0.21875,1.265625,0.125
350,-0.23730469,-0.9561157,0.25823975,-0.890625,0.640625,-0.09375
351,-0.23266602,-0.9397583,0.2675171,-1.75,0.21875,0.671875
352,-0.25561523,-0.96295166,0.24847412,1.921875,-3.234375,4.09375
353,-0.22998047,-0.9729614,0.23724365,8.78125,-0.703125,5.34375
354,-0.21166992,-0.9578247,0.23284912,6.8125,-2.734375,3.984375
355,-0.21362305,-0.99005127,0.20965576,4.40625,-1.828125,3.265625
356,-0.21508789,-0.98687744,0.20281982,4.390625,-0.15625,3.328125
357,-0.20410156,-0.99053955,0.21844482,4.0625,-1.59375,1.53125
358,-0.21582031,-0.99224854,0.19696045,1.265625,-1.75,1.640625
359,-0.21240234,-0.9854126,0.17767334,3.0,0.203125,2.53125
360,-0.21142578,-0.989563,0.18914795,2.71875,-0.90625,1.5625
361,-0.20751953,-0.9651489,0.1930542,0.0,-0.65625,1.046875
362,-0.18896484,-0.98321533,0.17352295,-1.953125,0.78125,0.140625
363,-0.20117188,-0.98321533,0.19110107,-3.453125,0.375,-0.640625
364,-0.20922852,-0.98028564,0.20892334,0.796875,1.265625,-0.328125
365,-0.20092773,-0.9780884,0.20257568,-1.5,0.859375,0.53125
366,-0.20898438,-0.9783325,0.20404053,-0.59375,0.859375,-0.21875
367,-0.20166016,-0.9685669,0.20526123,-0.09375,0.59375,0.34375
368,-0.19995117,-0.9729614,0.19354248,-0.546875,0.40625,0.234375
369,-0.20092773,-0.9849243,0.1942749,-0.546875,0.40625,0.1875
370,-0.20043945,-0.986145,0.21282959,0.515625,0.390625,-0.046875
371,-0.20483398,-0.9795532,0.19329834,-0.671875,0.40625,-0.078125
372,-0.20458984,-0.97979736,0.19720459,-0.53125,0.953125,-0.03125
373,-0.20581055,-0.97442627,0.20233154,-0.125,1.109375,-0.3125
374,-0.21166992,-0.97247314,0.19866943,0.328125,0.734375,-0.03125
375,-0.20922852,-0.9795532,0.19378662,-0.65625,0.875,0.265625
376,-0.20239258,-0.9841919,0.20404053,-1.28125,0.78125,-0.140625
377,-0.20214844,-0.97442627,0.20770264,0.875,1.515625,-0.34375
378,-0.2043457,-0.97784424,0.19036865,-2.375,0.828125,-0.515625
379,-0.20776367,-0.9793091,0.22772217,0.875,1.65625,-0.484375
380,-0.2084961,-0.9866333,0.20452881,-0.8125,0.203125,0.03125
381,-0.21826172,-0.97247314,0.21551514,-0.28125,1.265625,-0.15625
382,-0.20947266,-0.9783325,0.20721436,-0.625,0.65625,0.21875
383,-0.2084961,-0.97369385,0.20770264,-0.453125,1.34375,0.265625
384,-0.20922852,-0.9768677,0.199646,-0.296875,0.984375,0.1875
385,-0.19311523,-0.9771118,0.2074585,-1.953125,1.515625,-0.828125
386,-0.21142578,-0.98394775,0.21038818,-0.390625,1.015625,-0.265625
387,-0.22436523,-0.97076416,0.2218628,0.578125,0.390625,0.671875
388,-0.20092773,-0.9702759,0.21234131,-0.265625,0.96875,0.421875
389,-0.22509766,-0.98394775,0.2164917,-0.265625,0.71875,-0.21875
390,-0.21289062,-0.9805298,0.2074585,0.328125,1.03125,0.765625
391,-0.21435547,-0.9807739,0.21185303,0.328125,0.4375,0.8125
392,-0.20141602,-0.9734497,0.20916748,2.9375,1.140625,0.625
393,-0.1965332,-0.9729614,0.19866943,-2.578125,0.953125,-0.4375
394,-0.2241211,-0.972229,0.22064209,0.875,2.546875,-0.453125
395,-0.20678711,-0.9741821,0.21063232,-0.4375,0.9375,0.28125
396,-0.20458984,-0.9697876,0.21282959,-0.875,1.171875,-0.203125
397,-0.21728516,-0.9702759,0.2111206,-1.96875,0.671875,-0.4375
398,-0.20629883,-0.98150635,0.21722412,-0.328125,1.375,-0.21875
399,-0.21264648,-0.9788208,0.21722412,-0.375,0.421875,-0.25
400,-0.21923828,-0.9771118,0.21942139,-0.046875,1.03125,0.46875
401,-0.21191406,-0.9805298,0.21502686,-0.4375,1.171875,0.3125
402,-0.20751953,-0.9746704,0.2164917,-0.1875,1.234375,-0.25
403,-0.21704102,-0.9690552,0.2164917,0.171875,0.3125,0.3125
404,-0.2121582,-0.9771118,0.20843506,-0.234375,0.828125,0.703125
405,-0.21044922,-0.975647,0.21258545,-0.421875,1.109375,0.234375
406,-0.20874023,-0.9768677,0.2111206,-0.34375,0.84375,-0.234375
407,-0.21313477,-0.96661377,0.22283936,0.515625,1.265625,-0.125
408,-0.21411133,-0.98101807,0.20355225,-2.203125,1.34375,-0.40625
409,-0.21850586,-0.9771118,0.24041748,0.5,1.640625,-0.578125
410,-0.21850586,-0.9780884,0.2164917,0.390625,1.0625,0.015625
411,-0.21875,-0.972229,0.22137451,-0.484375,1.3125,-0.03125
412,-0.22021484,-0.9768677,0.21429443,-0.125,0.875,0.03125
413,-0.20263672,-0.9717407,0.21624756,-0.125,1.296875,0.46875
414,-0.21191406,-0.9678345,0.21820068,-0.421875,0.625,-0.296875
415,-0.21264648,-0.98101807,0.22479248,-0.125,1.21875,-0.203125
416,-0.21557617,-0.97906494,0.22503662,0.0625,0.8125,-0.015625
417,-0.22387695,-0.972229,0.22503662,-0.578125,0.546875,0.140625
418,-0.21777344,-0.9795532,0.22283936,0.234375,1.21875,-0.09375
419,-0.21533203,-0.9680786,0.21136475,-0.484375,1.703125,-0.609375
420,-0.21533203,-0.97491455,0.22943115,1.296875,2.46875,-0.171875
421,-0.2121582,-0.96588135,0.22406006,1.484375,1.5625,0.09375
422,-0.21923828,-0.9697876,0.2140503,-0.484375,0.671875,0.265625
423,-0.21508789,-0.9729614,0.22796631,0.6875,1.71875,-0.21875
424,-0.21069336,-0.96710205,0.215271,-2.34375,0.96875,-1.0
425,-0.22509766,-0.9780884,0.23504639,0.890625,1.203125,-0.234375
426,-0.21606445,-0.97003174,0.21209717,-1.234375,0.625,0.5
427,-0.21362305,-0.9741821,0.22601318,-1.75,1.265625,-0.15625
428,-0.21655273,-0.9661255,0.2218628,-1.765625,0.90625,-0.78125
429,-0.23632812,-0.9685669,0.2333374,-1.28125,1.453125,-0.1875
430,-0.2133789,-0.96881104,0.22894287,-1.25,0.84375,-0.265625
431,-0.23144531,-0.9649048,0.2411499,-1.015625,0.65625,-0.125
432,-0.22973633,-0.9690552,0.24090576,-1.265625,0.359375,-0.109375
433,-0.22583008,-0.975647,0.23675537,-1.53125,0.46875,0.21875
434,-0.2163086,-0.9668579,0.24334717,-1.484375,0.0,-0.296875
435,-0.22363281,-0.9673462,0.23724365,-0.703125,0.015625,-0.109375
436,-0.22265625,-0.9644165,0.24945068,0.390625,0.65625,0.328125
437,-0.2163086,-0.95880127,0.24163818,3.53125,1.984375,0.78125
438,-0.2512207,-0.9692993,0.2584839,5.5625,-3.796875,4.171875
439,-0.20996094,-0.9702759,0.17840576,-0.09375,-4.46875,3.59375
440,-0.20532227,-0.991272,0.24432373,10.15625,-0.140625,4.40625
441,-0.21289062,-0.98760986,0.19354248,10.75,-0.234375,4.15625
442,-0.18579102,-0.9846802,0.16888428,1.671875,-3.484375,2.703125
443,-0.21850586,-0.9846802,0.18206787,2.15625,0.90625,1.15625
444,-0.20483398,-0.98931885,0.1876831,3.90625,0.546875,1.5625
445,-0.17260742,-0.9612427,0.17376709,-2.34375,0.3125,0.109375
446,-0.21386719,-0.9885864,0.18084717,-0.84375,1.1875,-0.4375
447,-0.20458984,-0.9746704,0.1876831,0.203125,0.1875,0.828125
448,-0.17773438,-0.9644165,0.18353271,-0.9375,1.3125,0.28125
449,-0.2084961,-0.97857666,0.19622803,-0.609375,0.734375,-0.59375
450,-0.20288086,-0.9961548,0.19525146,-0.328125,0.234375,0.515625
451,-0.18774414,-0.97540283,0.19378662,-0.9375,1.515625,0.265625
452,-0.20483398,-0.98272705,0.19207764,-0.125,0.9375,0.015625
453,-0.19360352,-0.96173096,0.20379639,0.734375,0.640625,-0.140625
454,-0.20361328,-0.9915161,0.18084717,-2.03125,0.53125,-0.609375
455,-0.20385742,-0.97735596,0.19110107,-0.359375,1.296875,-0.359375
456,-0.20458984,-0.9890747,0.19696045,0.328125,0.828125,0.328125
457,-0.20141602,-0.97857666,0.19403076,-1.15625,0.703125,-0.203125
458,-0.20605469,-0.9817505,0.1906128,-0.390625,1.28125,0.046875
459,-0.20361328,-0.9859009,0.19232178,0.59375,0.9375,0.234375
460,-0.2019043,-0.9763794,0.18719482,-0.375,0.8125,0.53125
461,-0.19970703,-0.9805298,0.20574951,0.25,0.59375,0.046875
462,-0.20288086,-0.9776001,0.19158936,-1.765625,0.203125,0.34375
463,-0.19555664,-0.97540283,0.20257568,-0.734375,0.46875,-0.03125
464,-0.20336914,-0.9846802,0.20159912,-0.84375,0.984375,-0.203125
465,-0.20117188,-0.97784424,0.20062256,0.625,0.765625,0.421875
466,-0.2019043,-0.9805298,0.20037842,0.375,0.890625,0.609375
467,-0.20605469,-0.9763794,0.20111084,0.84375,1.265625,0.4375
468,-0.2019043,-0.9710083,0.20892334,-0.0625,0.875,0.234375
469,-0.19750977,-0.99591064,0.19036865,-0.78125,1.03125,-0.203125
470,-0.19335938,-0.96881104,0.20062256,-0.59375,1.5625,-0.765625
471,-0.21264648,-0.98931885,0.20062256,0.484375,0.828125,0.125
472,-0.20654297,-0.9805298,0.20184326,-0.3125,0.953125,0.109375
473,-0.20532227,-0.98028564,0.19696045,0.0625,1.53125,-0.0625
474,-0.19555664,-0.9741821,0.19525146,0.421875,1.359375,-0.09375
475,-0.19189453,-0.97491455,0.19744873,0.359375,1.15625,0.078125
476,-0.20874023,-0.9812622,0.19696045,0.5625,0.53125,0.421875
477,-0.20239258,-0.9849243,0.19696045,-0.015625,1.046875,0.515625
478,-0.20507812,-0.9751587,0.19940186,-0.671875,0.96875,-0.078125
479,-0.19873047,-0.98272705,0.20452881,-0.421875,1.109375,-0.390625
480,-0.19702148,-0.9854126,0.19866943,-0.515625,0.796875,-0.265625
481,-0.20605469,-0.97979736,0.19573975,-0.625,1.09375,0.3125
482,-0.20483398,-0.975647,0.21234131,0.8125,1.3125,0.328125
483,-0.2043457,-0.96343994,0.20062256,-0.4375,0.375,0.328125
484,-0.19506836,-0.98931885,0.19525146,-1.28125,1.359375,-0.375
485,-0.20703125,-0.9834595,0.20135498,-1.171875,1.40625,-0.28125
486,-0.20727539,-0.987854,0.21209717,1.5,1.515625,0.359375
487,-0.1977539,-0.97491455,0.20159912,-0.6875,0.4375,0.265625
488,-0.21386719,-0.98101807,0.20501709,-0.296875,0.71875,0.171875
489,-0.18847656,-0.973938,0.19647217,-0.765625,1.171875,-0.03125
490,-0.20166016,-0.97369385,0.2008667,-0.609375,1.234375,-0.234375
491,-0.203125,-0.9788208,0.21356201,-0.328125,0.8125,-0.078125
492,-0.20727539,-0.9824829,0.20062256,-0.625,1.375,0.046875
493,-0.21240234,-0.99224854,0.215271,1.015625,1.8125,-0.421875
494,-0.2097168,-0.9734497,0.20062256,-0.875,2.0,-0.46875
495,-0.19970703,-0.9771118,0.2164917,-0.625,2.609375,-0.40625
496,-0.2211914,-0.97491455,0.22259521,0.453125,1.046875,0.359375
497,-0.19360352,-0.9734497,0.21185303,0.171875,0.90625,0.515625
498,-0.20874023,-0.97540283,0.2020874,-0.9375,0.4375,0.03125
499,-0.21362305,-0.9680786,0.2189331,1.625,1.671875,0.234375
500,-0.20239258,-0.9788208,0.20037842,-1.3125,2.21875,-0.0625
501,-0.19946289,-0.9627075,0.20501709,5.921875,4.734375,0.671875
502,-0.21459961,-1.0007935,0.21014404,9.375,0.78125,4.0
503,-0.19018555,-0.99468994,0.21624756,3.0625,-1.0,1.953125
504,-0.20092773,-0.97052,0.1774292,3.28125,-3.03125,1.40625
505,-0.21704102,-0.9819946,0.17816162,1.890625,-1.796875,1.4375
506,-0.19970703,-0.9834595,0.17523193,0.359375,0.203125,1.875
507,-0.18920898,-0.9834595,0.17279053,-0.484375,-0.53125,1.234375
508,-0.19067383,-0.98809814,0.18060303,-3.796875,0.625,0.296875
509,-0.19799805,-0.9939575,0.18182373,-1.375,-1.046875,0.484375
510,-0.2084961,-0.9746704,0.17767334,-2.5625,-0.375,0.5625
511,-0.18286133,-0.9788208,0.18426514,-0.3125,1.0,0.78125
512,-0.19042969,-0.9829712,0.18377686,-1.078125,0.890625,0.21875
513,-0.1862793,-0.97662354,0.19525146,-0.234375,1.03125,-0.03125
514,-0.19311523,-0.9651489,0.19696045,-1.203125,0.921875,0.015625
515,-0.19604492,-0.9939575,0.18035889,-0.59375,0.671875,0.1875
516,-0.18310547,-0.9807739,0.18231201,-2.328125,0.671875,-1.046875
517,-0.20141602,-0.9871216,0.20819092,0.015625,1.515625,-0.65625
518,-0.20214844,-0.9829712,0.18328857,-0.859375,0.859375,0.015625
519,-0.18969727,-0.9734497,0.19818115,-0.484375,1.859375,-0.453125
520,-0.1940918,-0.9783325,0.19232178,0.328125,1.09375,-0.703125
521,-0.19726562,-0.97613525,0.18817139,-0.375,0.84375,-0.046875
522,-0.20483398,-0.9771118,0.19525146,-0.421875,1.09375,0.296875
523,-0.19824219,-0.97784424,0.19671631,-0.328125,1.390625,-0.171875
524,-0.20019531,-0.9841919,0.20184326,-0.34375,0.984375,-0.46875
525,-0.2019043,-0.98272705,0.19525146,-0.109375,0.71875,0.375
526,-0.19482422,-0.9849243,0.19915771,-1.171875,1.234375,0.125
527,-0.19995117,-0.98687744,0.20550537,-0.5625,0.890625,-0.21875
528,-0.19555664,-0.97906494,0.20428467,-0.578125,0.859375,-0.34375
529,-0.20458984,-0.96710205,0.19329834,-1.78125,1.34375,-0.1875
530,-0.19238281,-0.9788208,0.21600342,-0.9375,2.03125,-0.71875
531,-0.2084961,-0.9920044,0.20941162,1.453125,0.171875,0.515625
532,-0.1899414,-0.96173096,0.19036865,-1.359375,0.84375,-0.109375
533,-0.20776367,-0.9915161,0.21722412,0.484375,1.25,0.3125
534,-0.20288086,-0.9834595,0.19818115,-0.15625,0.734375,0.125
535,-0.19702148,-0.9741821,0.20697021,-0.46875,1.546875,-0.171875
536,-0.20458984,-0.98223877,0.20037842,-0.1875,0.96875,-0.109375
537,-0.19897461,-0.9717407,0.20526123,0.359375,1.40625,0.328125
538,-0.19848633,-0.97662354,0.20550537,-0.28125,1.0625,-0.34375
539,-0.20288086,-0.97857666,0.21087646,-0.546875,0.9375,-0.234375
540,-0.1953125,-0.9780884,0.21234131,-0.53125,1.078125,-0.359375
541,-0.203125,-0.9829712,0.21356201,-0.234375,0.65625,-0.125
542,-0.21142578,-0.9714966,0.20770264,0.234375,0.5625,0.140625
543,-0.20678711,-0.9727173,0.20526123,-0.25,0.90625,0.125
544,-0.20605469,-0.9795532,0.2164917,-0.1875,1.171875,-0.5
545,-0.21118164,-0.9710083,0.20819092,0.046875,0.6875,0.09375
546,-0.20166016,-0.96588135,0.21063232,-0.0625,0.96875,0.65625
547,-0.20092773,-0.9898071,0.19793701,-0.90625,1.0,-0.4375
548,-0.19873047,-0.97052,0.20672607,-2.4375,2.0,-1.5625
549,-0.21899414,-0.9927368,0.22039795,0.5,1.53125,-0.34375
550,-0.21362305,-0.9734497,0.21624756,-0.578125,1.015625,0.3125
551,-0.2006836,-0.9776001,0.21063232,1.1875,2.25,0.21875
552,-0.20898438,-0.9746704,0.21380615,-0.546875,0.796875,-0.203125
553,-0.19750977,-0.96710205,0.21380615,0.734375,1.171875,0.1875
554,-0.20166016,-0.97247314,0.21258545,-0.390625,0.96875,0.265625
555,-0.2055664,-0.98028564,0.21136475,-0.59375,1.671875,-0.171875
556,-0.20532227,-0.9824829,0.21502686,0.0625,1.640625,-0.28125
557,-0.2121582,-0.98150635,0.21429443,0.625,0.96875,0.234375
558,-0.20751953,-0.96881104,0.20355225,-0.125,1.6875,0.328125
559,-0.21411133,-0.9788208,0.21136475,-0.359375,1.375,-0.171875
560,-0.20361328,-0.9758911,0.21551514,-0.671875,0.765625,-0.4375
561,-0.2163086,-0.97369385,0.20721436,-0.140625,0.625,0.640625
562,-0.2084961,-0.97540283,0.23162842,0.28125,1.0625,0.453125
563,-0.2043457,-0.9817505,0.20452881,-2.5,1.140625,-0.578125
564,-0.21386719,-0.97198486,0.22796631,-0.5625,1.984375,-0.75
565,-0.21582031,-0.9807739,0.21868896,-0.078125,1.328125,0.203125
566,-0.19995117,-0.96710205,0.21575928,-0.96875,1.53125,0.15625
567,-0.21118164,-0.9702759,0.22137451,-0.546875,1.1875,-0.296875
568,-0.21435547,-0.9751587,0.22332764,-0.765625,0.5625,-0.515625
569,-0.21289062,-0.9690552,0.22259521,-0.21875,0.71875,0.0625
570,-0.21240234,-0.9680786,0.21942139,-0.171875,0.859375,0.046875
571,-0.2163086,-0.9763794,0.22796631,-0.375,0.984375,0.109375
572,-0.21801758,-0.9746704,0.22015381,-0.609375,0.921875,0.390625
573,-0.21191406,-0.9800415,0.22576904,-0.15625,0.953125,0.109375
574,-0.21386719,-0.97979736,0.2189331,-0.546875,0.8125,0.15625
575,-0.21264648,-0.97662354,0.21966553,-0.703125,1.140625,-0.328125
576,-0.20166016,-0.96343994,0.22576904,-0.921875,2.328125,-0.953125
577,-0.22680664,-0.9800415,0.22894287,-0.03125,0.09375,0.125
578,-0.21191406,-0.954895,0.2333374,-0.578125,1.5,0.03125
579,-0.21557617,-0.98272705,0.2230835,-2.375,0.953125,-0.609375
580,-0.2199707,-0.96466064,0.23504639,0.390625,1.078125,-0.734375
581,-0.21313477,-0.9800415,0.2267456,-0.5625,0.9375,0.3125
582,-0.21044922,-0.97369385,0.23236084,-0.75,1.234375,-0.578125
583,-0.22436523,-0.9807739,0.23236084,0.421875,0.53125,-0.171875
584,-0.21875,-0.97735596,0.22210693,0.4375,0.3125,0.53125
585,-0.20654297,-0.9668579,0.2345581,0.765625,1.1875,-0.125
586,-0.21972656,-0.9668579,0.23260498,0.625,0.703125,-0.671875
587,-0.2241211,-0.9649048,0.23602295,1.6875,0.40625,0.921875
588,-0.21289062,-0.9714966,0.22698975,-0.71875,1.375,0.046875
589,-0.21801758,-0.97662354,0.22723389,-0.5,1.125,-0.296875
590,-0.20605469,-0.96881104,0.22747803,-0.46875,1.828125,-0.84375
591,-0.22973633,-0.9714966,0.23529053,0.25,0.65625,0.625
592,-0.21801758,-0.96832275,0.23162842,0.0,1.0,0.0625
593,-0.22631836,-0.9758911,0.23138428,0.359375,0.109375,0.703125
594,-0.2199707,-0.9636841,0.23309326,0.5,1.109375,0.296875
595,-0.20410156,-0.97613525,0.22039795,-1.28125,1.6875,0.140625
596,-0.22631836,-0.97052,0.23284912,0.078125,1.859375,-0.296875
597,-0.22827148,-0.98760986,0.2399292,0.8125,0.0,0.59375
598,-0.2084961,-0.9780884,0.2296753,-0.09375,1.328125,-0.078125
599,-0.22607422,-0.958313,0.23822021,0.75,0.09375,1.15625
600,-0.22338867,-0.96588135,0.22528076,-0.453125,1.0,0.28125
601,-0.2097168,-0.9710083,0.22723389,-0.78125,1.328125,0.328125
602,-0.21875,-0.97198486,0.22723389,1.171875,0.96875,0.078125
603,-0.21875,-0.9678345,0.22064209,-0.46875,0.90625,-0.046875
604,-0.22290039,-0.9837036,0.2345581,0.015625,1.609375,0.046875
605,-0.22241211,-0.9717407,0.22796631,0.34375,1.5625,-0.109375
606,-0.21606445,-0.9741821,0.2333374,0.453125,1.015625,0.046875
607,-0.22436523,-0.9668579,0.22747803,0.125,0.859375,0.296875
608,-0.22143555,-0.9639282,0.23919678,0.65625,0.5,0.609375
609,-0.21386719,-0.9546509,0.24725342,0.546875,0.71875,0.703125
610,-0.2019043,-0.9631958,0.2531128,5.625,-3.53125,2.84375
611,-0.23608398,-0.9644165,0.19989014,4.46875,-6.53125,5.03125
612,-0.21728516,-0.9788208,0.22332764,8.546875,0.625,6.09375
613,-0.18725586,-0.98638916,0.19158936,8.375,-1.59375,5.59375
614,-0.16992188,-0.9780884,0.16790771,2.46875,-4.5,3.28125
615,-0.19921875,-0.9956665,0.16986084,3.578125,-3.515625,2.71875
616,-0.20654297,-1.0049438,0.16351318,2.8125,-2.34375,3.703125
617,-0.17602539,-0.95318604,0.15814209,-4.6875,-4.59375,1.6875
618,-0.1965332,-0.98687744,0.19573975,2.359375,-3.078125,2.171875
619,-0.18676758,-0.99298096,0.17816162,3.265625,-0.46875,2.671875
620,-0.17700195,-0.9805298,0.14569092,2.359375,-1.34375,2.296875
621,-0.1640625,-0.99664307,0.1593628,0.3125,0.90625,1.3125
622,-0.17602539,-0.9883423,0.16156006,-4.21875,1.15625,-0.09375
623,-0.16772461,-0.99542236,0.1605835,-4.046875,1.5,-1.453125
624,-0.1862793,-0.975647,0.2062378,-1.453125,1.1875,0.59375
625,-0.18041992,-0.9846802,0.16766357,0.0625,1.84375,-0.46875
626,-0.17333984,-0.9734497,0.17596436,-0.515625,1.1875,-0.59375
627,-0.19555664,-1.0025024,0.18695068,-0.484375,0.546875,0.0625
628,-0.17211914,-0.9939575,0.18426514,-0.625,0.671875,0.03125
629,-0.17675781,-0.97735596,0.18182373,-0.046875,0.5625,-0.1875
630,-0.18041992,-0.9924927,0.17132568,0.109375,0.28125,0.0
631,-0.1796875,-0.9963989,0.17010498,-0.421875,1.515625,0.140625
632,-0.18920898,-0.98687744,0.18719482,0.921875,2.140625,-0.1875
633,-0.17749023,-0.9846802,0.17816162,-0.53125,1.25,0.0
634,-0.17993164,-0.98028564,0.17840576,-0.3125,1.296875,-0.375
635,-0.18798828,-0.991272,0.18182373,-0.359375,0.96875,-0.125
636,-0.18066406,-0.9780884,0.18206787,-0.5625,1.109375,-0.375
637,-0.19091797,-0.9898071,0.19281006,-0.390625,0.734375,0.28125
638,-0.18237305,-0.9805298,0.18133545,-0.890625,1.25,-0.09375
639,-0.17993164,-0.99786377,0.18328857,1.6875,1.625,0.5
640,-0.171875,-0.97491455,0.17059326,-2.53125,0.34375,-0.84375
641,-0.18896484,-0.9829712,0.1942749,2.8125,2.171875,0.265625
642,-0.18286133,-0.99664307,0.18475342,3.5625,1.921875,0.875
643,-0.18188477,-0.9837036,0.17840576,2.484375,2.5,0.453125
644,-0.1899414,-0.97442627,0.17596436,1.484375,0.328125,0.390625
645,-0.18310547,-0.9956665,0.17254639,0.5,1.265625,1.296875
646,-0.17114258,-0.98516846,0.17230225,-0.09375,1.03125,0.265625
647,-0.17456055,-0.987854,0.17352295,-0.640625,0.453125,-0.84375
648,-0.18359375,-0.99053955,0.17718506,-0.5,0.671875,0.203125
649,-0.18457031,-0.98565674,0.17816162,0.109375,0.734375,0.15625
650,-0.1784668,-0.97320557,0.1708374,-0.765625,0.796875,-0.21875
651,-0.19311523,-1.0005493,0.18377686,-0.0625,0.671875,0.4375
652,-0.18139648,-0.9824829,0.16400146,-0.265625,0.609375,0.203125
653,-0.17871094,-0.9846802,0.17547607,1.140625,0.8125,0.453125
654,-0.18139648,-0.98687744,0.15667725,-1.515625,0.828125,-0.46875
655,-0.1953125,-0.98760986,0.1864624,1.765625,1.796875,0.203125
656,-0.18676758,-0.9783325,0.17352295,-0.3125,0.515625,0.65625
657,-0.18261719,-0.9800415,0.17791748,-0.328125,2.1875,-0.015625
658,-0.18603516,-0.9885864,0.18035889,0.234375,0.796875,-0.078125
659,-0.1796875,-0.9866333,0.16888428,-0.078125,1.203125,0.484375
660,-0.18481445,-0.98809814,0.17352295,-0.21875,1.125,-0.171875
661,-0.18457031,-0.98883057,0.17962646,0.609375,1.4375,0.0
662,-0.1875,-0.98638916,0.17010498,-0.015625,1.125,0.296875
663,-0.17553711,-0.99053955,0.17034912,-0.078125,1.359375,0.0
664,-0.18188477,-0.9849243,0.17669678,-0.734375,1.109375,-0.59375
665,-0.18725586,-0.9846802,0.17718506,-0.40625,1.09375,-0.078125
666,-0.19384766,-0.98565674,0.17132568,0.1875,1.203125,0.734375
667,-0.18481445,-0.97857666,0.18963623,1.0,1.265625,0.375
668,-0.18725586,-0.99468994,0.1630249,-1.765625,0.5,-0.03125
669,-0.17919922,-0.97662354,0.17889404,-1.15625,1.484375,-0.453125
670,-0.18603516,-1.003479,0.17669678,-0.4375,1.234375,0.21875
671,-0.1743164,-0.97979736,0.1798706,-1.1875,0.546875,-0.171875
672,-0.18579102,-0.98809814,0.17962646,-0.140625,1.484375,-0.125
673,-0.19018555,-0.9871216,0.17962646,0.421875,1.203125,-0.015625
674,-0.17797852,-0.9805298,0.17108154,-0.84375,1.34375,0.078125
675,-0.18383789,-0.9817505,0.18133545,0.34375,0.953125,-0.453125
676,-0.19091797,-0.9817505,0.18377686,0.609375,0.96875,0.484375
677,-0.1850586,-0.9915161,0.17669678,-0.140625,1.125,0.1875
678,-0.18457031,-0.9871216,0.17962646,-0.203125,0.953125,-0.359375
679,-0.18847656,-0.99176025,0.17767334,-0.359375,0.875,-0.234375
680,-0.1875,-0.98565674,0.18548584,0.34375,0.96875,0.46875
681,-0.18725586,-0.98101807,0.18109131,-0.28125,0.53125,0.15625
682,-0.18969727,-0.98687744,0.1749878,-0.15625,0.390625,0.125
683,-0.18261719,-0.9859009,0.18231201,0.96875,1.0625,0.078125
684,-0.18774414,-0.98223877,0.16571045,-2.734375,0.703125,-0.640625
685,-0.1940918,-0.986145,0.19525146,0.140625,1.65625,-0.40625
686,-0.19165039,-0.98883057,0.18255615,-0.296875,0.546875,0.359375
687,-0.1899414,-0.9859009,0.18133545,-0.359375,1.5,0.09375
688,-0.1977539,-0.9807739,0.18231201,0.328125,1.46875,-0.15625
689,-0.1899414,-0.9783325,0.18450928,0.28125,2.0,0.28125
690,-0.18334961,-0.97784424,0.17913818,-0.8125,1.609375,0.03125
691,-0.18530273,-0.9751587,0.19354248,-0.1875,1.609375,-0.53125
692,-0.18701172,-0.9849243,0.1828003,-1.265625,0.65625,-0.171875
693,-0.19384766,-0.98101807,0.18426514,-0.703125,0.71875,-0.15625
694,-0.19311523,-0.9819946,0.18572998,-0.296875,1.25,-0.234375
695,-0.19140625,-0.98394775,0.19012451,-0.78125,1.015625,0.109375
696,-0.19311523,-0.9763794,0.19451904,-0.375,0.890625,-0.03125
697,-0.19140625,-0.9788208,0.19354248,-0.015625,0.65625,0.484375
698,-0.1928711,-0.98394775,0.1798706,0.109375,0.875,0.59375
699,-0.18725586,-0.97735596,0.19573975,-0.53125,0.75,-0.171875
700,-0.18603516,-0.99542236,0.17181396,-1.8125,0.96875,-0.578125
701,-0.19555664,-0.9751587,0.19158936,-0.8125,1.4375,-0.4375
702,-0.20336914,-0.9871216,0.19354248,0.140625,1.109375,0.421875
703,-0.18579102,-0.9859009,0.19598389,-1.203125,1.203125,-0.609375
704,-0.20361328,-0.9741821,0.19525146,0.5625,1.390625,-0.46875
705,-0.19067383,-0.9702759,0.19451904,0.28125,1.09375,0.53125
706,-0.1809082,-0.98272705,0.19573975,-1.5625,1.546875,-0.453125
707,-0.1965332,-0.9819946,0.20892334,0.5625,0.65625,-0.90625
708,-0.20410156,-0.975647,0.19769287,0.875,0.59375,1.25
709,-0.18310547,-0.9807739,0.19256592,0.46875,1.828125,1.078125
710,-0.18896484,-0.97906494,0.19329834,-0.921875,1.21875,-0.546875
711,-0.19848633,-0.98101807,0.19158936,-1.4375,2.09375,-0.03125
712,-0.20581055,-0.9981079,0.20550537,-0.09375,0.453125,1.375
713,-0.18066406,-0.9690552,0.1906128,0.671875,0.921875,-0.09375
714,-0.18286133,-0.96710205,0.20233154,-0.71875,1.828125,-0.53125
715,-0.19897461,-0.99005127,0.20501709,0.015625,0.875,-0.546875
716,-0.18847656,-0.9680786,0.20574951,-0.578125,1.09375,-0.1875
717,-0.19921875,-0.97906494,0.18841553,-0.171875,1.15625,-0.171875
718,-0.19873047,-0.9819946,0.19647217,-1.21875,1.359375,-0.5625
719,-0.19995117,-0.99957275,0.21502686,0.453125,1.390625,-0.703125
720,-0.20361328,-0.97198486,0.20306396,0.03125,0.578125,-0.015625
721,-0.19580078,-0.9727173,0.19134521,-0.359375,1.390625,-0.046875
722,-0.19677734,-0.986145,0.199646,-0.6875,1.4375,-0.875
723,-0.20043945,-0.96832275,0.20281982,0.078125,1.546875,-0.515625
724,-0.20117188,-0.9678345,0.2020874,-0.40625,0.9375,0.40625
725,-0.19897461,-0.98565674,0.20697021,-0.59375,1.390625,0.25
726,-0.20214844,-0.987854,0.20452881,0.171875,0.40625,-0.09375
727,-0.20654297,-0.97735596,0.20257568,-0.03125,1.484375,0.1875
728,-0.19580078,-0.97442627,0.20013428,-0.4375,1.359375,0.125
729,-0.20532227,-0.9734497,0.20697021,-0.4375,1.234375,-0.125
730,-0.19995117,-0.9697876,0.2086792,-1.0625,0.9375,0.28125
731,-0.19628906,-0.9741821,0.21502686,-0.484375,0.734375,0.203125
732,-0.20532227,-0.9758911,0.2062378,-0.4375,0.65625,0.203125
733,-0.19750977,-0.96832275,0.21697998,-0.40625,0.9375,0.0625
734,-0.1940918,-0.9859009,0.20306396,-1.40625,0.703125,-0.5
735,-0.20361328,-0.97540283,0.20477295,-2.328125,0.703125,-0.265625
736,-0.20947266,-0.97979736,0.22528076,-0.546875,-0.21875,0.515625
737,-0.22265625,-0.9963989,0.22161865,0.984375,-3.9375,4.625
738,-0.18383789,-0.96417236,0.20672607,0.6875,-2.21875,3.46875
739,-0.20092773,-0.9824829,0.19940186,2.640625,-1.828125,2.96875
740,-0.19213867,-0.98516846,0.19525146,1.453125,0.390625,1.1875
741,-0.17236328,-0.9859009,0.19915771,-0.875,0.03125,0.46875
742,-0.19702148,-0.9680786,0.1930542,-0.75,0.46875,0.125
743,-0.19458008,-0.9890747,0.21453857,-0.09375,1.453125,0.265625
744,-0.17260742,-0.97735596,0.21160889,0.171875,1.4375,0.171875
745,-0.18310547,-0.986145,0.2062378,-0.09375,0.890625,-0.5
746,-0.2006836,-0.9783325,0.20941162,-0.34375,0.296875,0.40625
747,-0.18286133,-0.9758911,0.20355225,0.421875,1.453125,0.3125
748,-0.17480469,-0.98028564,0.20550537,-0.15625,0.625,-0.34375
749,-0.19482422,-0.9907837,0.20550537,0.03125,-0.203125,-0.171875
750,-0.18579102,-0.9758911,0.20306396,1.15625,1.15625,-0.015625
751,-0.18457031,-0.9800415,0.18939209,-1.171875,1.328125,-0.578125
752,-0.19580078,-0.9793091,0.20843506,0.796875,1.390625,-0.78125
753,-0.19848633,-0.9824829,0.19476318,0.0,0.8125,0.15625
754,-0.18945312,-0.97198486,0.20770264,-0.984375,1.9375,-0.875
755,-0.20092773,-0.9902954,0.20794678,0.859375,1.03125,-0.390625
756,-0.19604492,-0.975647,0.19232178,-0.71875,1.0625,-0.265625
757,-0.20483398,-0.98883057,0.21087646,-0.34375,0.71875,0.421875
758,-0.19165039,-0.9788208,0.2086792,0.65625,0.671875,-0.015625
759,-0.1928711,-0.97784424,0.20257568,-0.34375,1.0625,0.03125
