sample_no,accel_x,accel_y,accel_z,gyro_x,gyro_y,gyro_z
0,-0.091308594,-0.8845825,-0.4649048,-2.265625,1.25,1.078125
1,-0.08862305,-0.87628174,-0.45758057,-0.140625,0.484375,0.171875
2,-0.08911133,-0.87506104,-0.456604,-0.796875,0.796875,0.734375
3,-0.08129883,-0.87945557,-0.45391846,0.078125,-0.140625,-0.171875
4,-0.09057617,-0.87872314,-0.46929932,-1.171875,1.453125,-0.265625
5,-0.106933594,-0.87091064,-0.45318604,-0.09375,0.96875,0.28125
6,-0.088378906,-0.88409424,-0.4578247,-1.8125,0.53125,-0.09375
7,-0.10888672,-0.8789673,-0.44952393,0.421875,0.640625,-0.15625
8,-0.09716797,-0.89141846,-0.46466064,-0.625,0.765625,0.578125
9,-0.088378906,-0.866272,-0.4368286,0.921875,0.046875,1.0625
10,-0.09326172,-0.9002075,-0.47906494,0.671875,-0.078125,0.015625
11,-0.08154297,-0.861145,-0.46295166,-1.375,1.640625,-0.25
12,-0.095458984,-0.8555298,-0.43536377,2.125,-0.0625,0.28125
13,-0.10595703,-0.9077759,-0.48614502,1.390625,0.015625,0.6875
14,-0.09350586,-0.8584595,-0.47320557,0.265625,0.28125,2.6875
15,-0.11279297,-0.862854,-0.47735596,-2.640625,1.609375,-0.328125
16,-0.115478516,-0.85894775,-0.47442627,3.34375,-0.578125,0.28125
17,-0.099609375,-0.8665161,-0.4956665,-0.234375,0.71875,1.984375
18,-0.10253906,-0.86724854,-0.49420166,0.515625,1.0,1.34375
19,-0.10131836,-0.85601807,-0.47442627,-0.40625,1.734375,1.484375
20,-0.10180664,-0.87384033,-0.49493408,0.921875,0.046875,2.046875
21,-0.09765625,-0.8508911,-0.4985962,-2.390625,0.671875,0.75
22,-0.09082031,-0.85772705,-0.48223877,0.328125,1.828125,-0.171875
23,-0.111328125,-0.86846924,-0.4837036,0.21875,0.75,0.78125
24,-0.09765625,-0.8665161,-0.49786377,-1.5,0.25,0.078125
25,-0.100097656,-0.8635864,-0.47027588,0.640625,1.578125,0.59375
26,-0.115722656,-0.87164307,-0.49713135,1.328125,0.09375,1.21875
27,-0.0871582,-0.84552,-0.47003174,-1.34375,0.28125,0.625
28,-0.09423828,-0.8694458,-0.5022583,2.265625,-0.578125,1.171875
29,-0.099121094,-0.8533325,-0.48443604,-0.390625,1.484375,0.0
30,-0.091308594,-0.8657837,-0.51885986,-1.390625,1.0,0.203125
31,-0.08984375,-0.8518677,-0.48321533,-3.40625,2.265625,-1.296875
32,-0.122802734,-0.85528564,-0.47808838,1.75,-0.21875,-0.203125
33,-0.095947266,-0.8621216,-0.489563,-0.015625,0.65625,0.5
34,-0.099609375,-0.8689575,-0.49420166,-1.9375,2.0,-0.0625
35,-0.10864258,-0.8569946,-0.48272705,-1.390625,2.046875,0.25
36,-0.10473633,-0.86138916,-0.48101807,-1.3125,0.453125,0.921875
37,-0.0949707,-0.86846924,-0.48760986,-2.390625,1.328125,0.1875
38,-0.10522461,-0.8623657,-0.48077393,0.234375,0.859375,0.28125
39,-0.1015625,-0.87994385,-0.4866333,-0.0625,0.203125,-0.28125
40,-0.10522461,-0.8501587,-0.47808838,-1.296875,1.1875,-0.703125
41,-0.110839844,-0.8735962,-0.4812622,-0.796875,-0.03125,-0.3125
42,-0.10986328,-0.86016846,-0.49346924,-0.09375,0.734375,0.359375
43,-0.115722656,-0.8604126,-0.47662354,-1.171875,1.3125,0.734375
44,-0.10229492,-0.8699341,-0.47686768,1.453125,-0.390625,0.734375
45,-0.10498047,-0.8567505,-0.47442627,-0.375,1.140625,1.0625
46,-0.10644531,-0.8677368,-0.5083618,-0.609375,0.046875,0.984375
47,-0.09472656,-0.87335205,-0.48345947,-3.09375,2.625,-0.28125
48,-0.115722656,-0.8491821,-0.4680786,1.171875,0.359375,0.734375
49,-0.10180664,-0.8760376,-0.48931885,1.46875,-0.6875,1.03125
50,-0.095214844,-0.8621216,-0.5039673,-0.78125,0.84375,-0.046875
51,-0.10083008,-0.86602783,-0.4866333,-0.5625,0.609375,0.90625
52,-0.10961914,-0.8569946,-0.4890747,0.8125,0.359375,0.453125
53,-0.099365234,-0.87042236,-0.4932251,-1.625,1.4375,-0.734375
54,-0.111328125,-0.8533325,-0.48736572,-1.125,1.140625,0.1875
55,-0.10058594,-0.8735962,-0.487854,-0.984375,0.953125,0.828125
56,-0.099609375,-0.86553955,-0.49395752,-1.015625,0.40625,-0.28125
57,-0.11206055,-0.85113525,-0.4758911,0.640625,0.71875,0.015625
58,-0.111572266,-0.86505127,-0.48614502,-0.296875,1.015625,0.6875
59,-0.09716797,-0.85821533,-0.4837036,-2.109375,1.15625,0.234375
60,-0.107666016,-0.87091064,-0.47613525,-0.171875,-0.3125,-0.15625
61,-0.1027832,-0.878479,-0.48565674,-1.484375,1.734375,0.09375
62,-0.12719727,-0.8557739,-0.49371338,0.625,0.421875,0.9375
63,-0.09033203,-0.8616333,-0.4837036,-4.734375,2.4375,-0.125
64,-0.11987305,-0.8599243,-0.46539307,2.8125,-0.578125,0.015625
65,-0.109375,-0.8779907,-0.48809814,-0.09375,0.484375,-0.078125
66,-0.10961914,-0.8477173,-0.4817505,-1.265625,1.515625,0.40625
67,-0.107666016,-0.8735962,-0.4841919,0.1875,0.109375,0.46875
68,-0.111083984,-0.8694458,-0.48931885,-0.75,0.9375,0.25
69,-0.10424805,-0.8545532,-0.47808838,-0.609375,0.296875,-0.25
70,-0.11035156,-0.87335205,-0.48321533,-0.046875,1.34375,0.1875
71,-0.1105957,-0.86602783,-0.4841919,0.125,0.34375,0.453125
72,-0.103271484,-0.8574829,-0.48712158,-0.9375,0.53125,0.03125
73,-0.11254883,-0.8713989,-0.48199463,-0.046875,-0.140625,0.25
74,-0.099609375,-0.8694458,-0.50128174,-1.375,1.0,-0.140625
75,-0.10546875,-0.8501587,-0.472229,-1.15625,1.359375,0.109375
76,-0.11035156,-0.87823486,-0.4866333,0.78125,0.21875,0.421875
77,-0.11279297,-0.8550415,-0.48101807,-0.25,1.359375,0.59375
78,-0.109375,-0.8706665,-0.50616455,-1.21875,0.578125,1.171875
79,-0.095458984,-0.8687134,-0.47369385,-3.421875,2.6875,0.203125
80,-0.12036133,-0.8640747,-0.4668579,1.453125,-0.375,0.0
81,-0.10131836,-0.87335205,-0.4788208,-0.796875,0.8125,0.828125
82,-0.103027344,-0.8648071,-0.49298096,-0.53125,0.40625,0.265625
83,-0.111328125,-0.86676025,-0.47491455,-1.109375,1.65625,0.640625
84,-0.111572266,-0.8621216,-0.47418213,0.390625,0.359375,1.40625
85,-0.091308594,-0.8777466,-0.49053955,-0.8125,-0.21875,-0.484375
86,-0.11450195,-0.85772705,-0.47906494,-0.59375,2.09375,0.328125
87,-0.107910156,-0.88067627,-0.47711182,0.078125,0.328125,0.359375
88,-0.10620117,-0.8569946,-0.48736572,0.03125,-0.328125,0.421875
89,-0.103515625,-0.8723755,-0.487854,0.109375,0.515625,0.515625
90,-0.099609375,-0.8674927,-0.49102783,0.046875,1.078125,0.25
91,-0.11376953,-0.86309814,-0.47613525,-1.3125,0.625,-0.046875
92,-0.1027832,-0.8657837,-0.487854,-0.046875,1.09375,0.359375
93,-0.10205078,-0.87042236,-0.48590088,0.015625,0.484375,0.734375
94,-0.096191406,-0.8726196,-0.5005493,-3.59375,2.328125,-0.15625
95,-0.115478516,-0.85772705,-0.4607544,-2.484375,1.953125,-0.328125
96,-0.119628906,-0.8760376,-0.4727173,1.546875,-0.765625,-0.234375
97,-0.111816406,-0.8574829,-0.4829712,-0.953125,0.3125,0.84375
98,-0.08935547,-0.87091064,-0.489563,-0.296875,0.8125,-0.375
99,-0.10522461,-0.86309814,-0.48077393,-1.09375,1.9375,0.6875
100,-0.114746094,-0.8621216,-0.46539307,-0.359375,0.53125,0.578125
101,-0.119628906,-0.87823486,-0.4854126,0.078125,-0.25,0.21875
102,-0.11279297,-0.8648071,-0.48199463,1.0,0.953125,-0.359375
103,-0.109375,-0.8596802,-0.47418213,0.0625,1.0,0.265625
104,-0.10058594,-0.86920166,-0.4812622,0.015625,0.125,-0.125
105,-0.11010742,-0.86798096,-0.48638916,0.71875,0.703125,0.21875
106,-0.10888672,-0.85406494,-0.4829712,-0.25,1.03125,0.265625
107,-0.11230469,-0.8689575,-0.48858643,-0.359375,0.046875,-0.015625
108,-0.104003906,-0.8723755,-0.4854126,0.46875,1.75,-0.078125
109,-0.12451172,-0.84552,-0.48345947,-0.296875,1.140625,1.296875
110,-0.07373047,-0.8911743,-0.5132446,-2.078125,0.28125,-0.671875
111,-0.122802734,-0.8538208,-0.47247314,-3.96875,3.625,-0.71875
112,-0.13012695,-0.8562622,-0.46759033,1.6875,-1.484375,-0.046875
113,-0.09326172,-0.8809204,-0.4985962,-0.609375,-0.15625,0.40625
114,-0.10986328,-0.8648071,-0.47735596,-1.703125,2.046875,0.3125
115,-0.11621094,-0.861145,-0.47613525,-0.984375,1.203125,1.1875
116,-0.11035156,-0.87042236,-0.4817505,0.5625,-0.53125,0.859375
117,-0.111083984,-0.8616333,-0.48492432,-1.078125,1.109375,0.765625
118,-0.11376953,-0.87335205,-0.4763794,1.78125,0.4375,0.859375
119,-0.11254883,-0.861145,-0.4866333,-0.046875,0.609375,0.28125
120,-0.10986328,-0.86553955,-0.47979736,-0.25,0.40625,0.53125
121,-0.11230469,-0.87213135,-0.4890747,1.140625,0.34375,1.03125
122,-0.10424805,-0.85406494,-0.49005127,-1.25,0.984375,0.71875
123,-0.1105957,-0.86602783,-0.48736572,0.734375,-0.0625,0.671875
124,-0.10620117,-0.87286377,-0.48077393,-0.203125,1.375,0.34375
125,-0.111816406,-0.8587036,-0.49542236,-0.078125,0.734375,1.125
126,-0.09716797,-0.8723755,-0.50323486,-2.828125,2.03125,-0.375
127,-0.11352539,-0.8604126,-0.46905518,-1.703125,1.921875,-0.21875
128,-0.1105957,-0.8604126,-0.47784424,0.96875,-0.90625,0.15625
129,-0.095214844,-0.86920166,-0.49005127,-1.03125,1.015625,0.625
130,-0.115722656,-0.87677,-0.4961548,-0.984375,0.59375,-0.09375
131,-0.1105957,-0.85357666,-0.4758911,-1.453125,1.25,0.703125
132,-0.11206055,-0.86260986,-0.47418213,-0.3125,-0.1875,0.515625
133,-0.11206055,-0.8753052,-0.4817505,-0.40625,0.5,0.25
134,-0.10522461,-0.8718872,-0.47906494,0.703125,0.5625,-0.078125
135,-0.10571289,-0.86016846,-0.4829712,-0.390625,0.5625,-0.140625
136,-0.10571289,-0.86724854,-0.48492432,0.125,-0.015625,0.203125
137,-0.10253906,-0.86431885,-0.4854126,-0.21875,0.421875,0.1875
138,-0.10473633,-0.8699341,-0.49053955,-0.453125,0.921875,-0.046875
139,-0.111816406,-0.8591919,-0.4763794,0.515625,0.671875,0.6875
140,-0.103271484,-0.86676025,-0.4829712,-0.546875,1.375,0.078125
141,-0.12817383,-0.8699341,-0.49713135,0.59375,0.75,0.28125
142,-0.09765625,-0.86602783,-0.49395752,-4.15625,3.25,-0.34375
143,-0.12890625,-0.84576416,-0.4710083,-1.234375,0.40625,-0.015625
144,-0.10424805,-0.87701416,-0.47613525,1.53125,-0.171875,-0.328125
145,-0.11230469,-0.8682251,-0.48394775,-1.078125,1.1875,0.53125
146,-0.100097656,-0.87091064,-0.49664307,-0.78125,0.453125,0.203125
147,-0.107910156,-0.8604126,-0.4763794,-0.515625,1.4375,0.15625
148,-0.1081543,-0.8726196,-0.48101807,-1.28125,1.015625,0.875
149,-0.11767578,-0.86602783,-0.46881104,0.21875,0.625,0.421875
150,-0.123291016,-0.8882446,-0.48736572,0.515625,-0.125,1.015625
151,-0.100097656,-0.8623657,-0.48028564,0.296875,0.4375,0.625
152,-0.10083008,-0.8635864,-0.48345947,-0.234375,0.234375,0.078125
153,-0.107177734,-0.8652954,-0.49298096,0.734375,0.25,0.265625
154,-0.09716797,-0.8635864,-0.49346924,-0.3125,0.890625,0.65625
155,-0.10229492,-0.8621216,-0.4817505,-0.078125,0.265625,0.21875
156,-0.10180664,-0.86553955,-0.4805298,0.140625,1.34375,0.15625
157,-0.11010742,-0.8579712,-0.48028564,0.203125,1.484375,0.875
158,-0.1003418,-0.87579346,-0.51104736,-2.71875,0.8125,0.09375
159,-0.103271484,-0.86602783,-0.47906494,-3.46875,3.25,-0.15625
160,-0.12792969,-0.8447876,-0.46368408,0.578125,-0.515625,0.4375
161,-0.09301758,-0.8796997,-0.4944458,-0.46875,-0.09375,0.53125
162,-0.11425781,-0.8657837,-0.4841919,-0.796875,1.5,0.15625
163,-0.10449219,-0.85406494,-0.4812622,-0.09375,0.734375,0.171875
164,-0.11621094,-0.8670044,-0.48321533,-0.375,0.59375,0.84375
165,-0.12011719,-0.8648071,-0.48321533,-2.453125,0.890625,0.984375
166,-0.10229492,-0.8652954,-0.47076416,2.375,0.03125,0.59375
167,-0.11303711,-0.87579346,-0.4920044,-1.53125,0.984375,0.328125
168,-0.10522461,-0.85406494,-0.4710083,-0.6875,0.6875,0.125
169,-0.111328125,-0.86968994,-0.4883423,0.890625,-0.28125,0.8125
170,-0.103759766,-0.866272,-0.48712158,0.234375,0.734375,0.53125
171,-0.1105957,-0.8562622,-0.48760986,-1.6875,1.078125,0.21875
172,-0.11328125,-0.86676025,-0.48101807,2.1875,-0.203125,1.078125
173,-0.107421875,-0.86431885,-0.4812622,-2.515625,2.359375,0.703125
174,-0.10424805,-0.8677368,-0.4998169,0.0,0.625,0.34375
175,-0.1003418,-0.8657837,-0.47906494,-4.625,2.765625,-0.71875
176,-0.119140625,-0.8621216,-0.4685669,0.9375,-0.53125,0.1875
177,-0.10058594,-0.8796997,-0.48321533,1.078125,0.046875,0.609375
178,-0.10961914,-0.86968994,-0.49273682,-1.15625,1.171875,0.3125
179,-0.107177734,-0.8501587,-0.4710083,-1.5,0.828125,0.421875
180,-0.10253906,-0.8796997,-0.49835205,3.09375,-1.03125,1.046875
181,-0.096191406,-0.8674927,-0.49176025,-2.671875,2.53125,-0.5
182,-0.1081543,-0.84088135,-0.4602661,-1.0625,1.65625,-0.046875
183,-0.123291016,-0.88946533,-0.48101807,1.0625,-0.4375,0.8125
184,-0.09765625,-0.86846924,-0.49249268,-0.578125,0.671875,0.03125
185,-0.10180664,-0.8538208,-0.47808838,-0.09375,0.6875,0.21875
186,-0.10546875,-0.8682251,-0.48931885,-0.328125,0.359375,0.21875
187,-0.1015625,-0.8699341,-0.48809814,0.265625,0.328125,0.15625
188,-0.10522461,-0.85821533,-0.48077393,0.0,0.3125,0.625
189,-0.09741211,-0.8670044,-0.4829712,0.765625,0.90625,-0.09375
190,-0.11621094,-0.8621216,-0.48736572,-0.421875,1.40625,0.46875
191,-0.09692383,-0.86920166,-0.5071411,-2.09375,1.421875,-0.546875
192,-0.107666016,-0.86309814,-0.47296143,-2.59375,1.828125,-0.75
193,-0.11767578,-0.8689575,-0.4697876,1.453125,0.171875,0.28125
194,-0.099121094,-0.86187744,-0.49908447,-1.71875,0.484375,0.375
195,-0.09716797,-0.85601807,-0.4902954,-0.84375,1.625,-0.015625
196,-0.11987305,-0.86260986,-0.47808838,-0.703125,1.15625,0.421875
197,-0.09765625,-0.86431885,-0.49591064,-1.046875,0.0,0.046875
198,-0.1171875,-0.8713989,-0.47564697,-0.78125,2.234375,-0.75
199,-0.1262207,-0.8694458,-0.4776001,-0.4375,0.34375,1.234375
200,-0.10205078,-0.86383057,-0.48345947,0.5,-0.453125,0.328125
201,-0.1184082,-0.87091064,-0.4746704,-0.703125,0.8125,0.109375
202,-0.1081543,-0.8635864,-0.47711182,0.671875,0.15625,0.40625
203,-0.10498047,-0.85894775,-0.47735596,-0.078125,0.609375,1.0625
204,-0.11376953,-0.8648071,-0.4854126,0.59375,0.03125,1.125
205,-0.099853516,-0.87213135,-0.48345947,1.828125,-0.328125,1.453125
206,-0.10888672,-0.87384033,-0.49224854,0.0625,1.453125,0.25
207,-0.114990234,-0.85162354,-0.50665283,0.0625,0.515625,0.65625
208,-0.09277344,-0.8635864,-0.49542236,-4.109375,3.296875,-0.328125
209,-0.12524414,-0.8579712,-0.4673462,0.6875,-0.21875,-0.21875
210,-0.10131836,-0.87335205,-0.49273682,0.546875,0.15625,0.484375
211,-0.099365234,-0.8596802,-0.49542236,-1.703125,1.203125,0.390625
212,-0.0949707,-0.86431885,-0.48077393,-0.6875,0.75,0.28125
213,-0.111083984,-0.8616333,-0.489563,-1.53125,1.09375,0.5
214,-0.10107422,-0.85943604,-0.48516846,-0.34375,0.0625,-0.1875
215,-0.1105957,-0.8718872,-0.48638916,-1.078125,1.25,0.359375
216,-0.11694336,-0.8699341,-0.47198486,0.46875,0.78125,0.296875
217,-0.10571289,-0.86309814,-0.49005127,-0.375,-0.21875,0.078125
218,-0.104003906,-0.8640747,-0.47833252,0.953125,-0.078125,-0.15625
219,-0.107177734,-0.8699341,-0.4883423,-0.171875,0.375,0.421875
220,-0.095703125,-0.86187744,-0.49420166,-0.078125,0.265625,0.90625
221,-0.10229492,-0.85528564,-0.48760986,-0.765625,0.84375,0.546875
222,-0.10498047,-0.86676025,-0.4812622,1.78125,-0.1875,0.953125
223,-0.106933594,-0.85772705,-0.48712158,-1.453125,1.78125,1.0625
224,-0.11303711,-0.8604126,-0.5005493,1.125,0.359375,-0.1875
225,-0.10253906,-0.864563,-0.489563,-4.09375,2.703125,-0.78125
226,-0.114746094,-0.85943604,-0.47808838,1.46875,0.390625,-0.09375
227,-0.11352539,-0.8604126,-0.48443604,-1.28125,0.578125,0.84375
228,-0.095703125,-0.86383057,-0.49517822,-0.71875,0.484375,0.515625
229,-0.111328125,-0.8682251,-0.48614502,-1.203125,1.4375,0.234375
230,-0.103515625,-0.864563,-0.49053955,0.375,-0.5625,0.53125
231,-0.09863281,-0.8569946,-0.49102783,-0.796875,1.125,-0.578125
232,-0.11401367,-0.8648071,-0.48565674,-1.046875,1.234375,0.828125
233,-0.10644531,-0.864563,-0.47784424,0.421875,0.578125,0.203125
234,-0.106933594,-0.8674927,-0.49468994,0.0625,0.15625,-0.09375
235,-0.10986328,-0.86602783,-0.4841919,0.125,0.46875,0.15625
236,-0.10498047,-0.86138916,-0.4829712,-0.46875,1.421875,0.328125
237,-0.1081543,-0.8670044,-0.49639893,0.5625,0.046875,0.03125
238,-0.099365234,-0.85772705,-0.4932251,-0.609375,0.765625,0.25
239,-0.09692383,-0.864563,-0.4890747,-0.875,1.359375,-0.265625
240,-0.11328125,-0.85650635,-0.48858643,-2.140625,1.390625,0.015625
241,-0.0949707,-0.8718872,-0.5105591,-2.828125,1.421875,-0.1875
242,-0.110839844,-0.85723877,-0.47613525,-2.875,2.21875,-0.4375
243,-0.12915039,-0.8652954,-0.46832275,1.09375,-0.859375,-0.25
244,-0.1027832,-0.8748169,-0.4824829,-0.984375,0.6875,0.765625
245,-0.11328125,-0.8550415,-0.48321533,-1.234375,1.21875,0.421875
246,-0.104003906,-0.86968994,-0.47735596,-1.421875,0.609375,0.359375
247,-0.10839844,-0.86260986,-0.4788208,-1.15625,0.671875,0.34375
248,-0.106933594,-0.8640747,-0.4829712,-2.03125,1.28125,-0.09375
249,-0.11987305,-0.8677368,-0.46783447,0.765625,0.625,1.203125
250,-0.10473633,-0.8740845,-0.4812622,-0.8125,0.78125,1.078125
251,-0.11791992,-0.85943604,-0.47003174,0.734375,0.234375,0.1875
252,-0.11010742,-0.8682251,-0.48443604,-0.890625,-0.21875,0.515625
253,-0.09350586,-0.86798096,-0.4890747,0.375,0.6875,0.21875
254,-0.10620117,-0.86724854,-0.4734497,-1.640625,1.09375,0.234375
255,-0.103515625,-0.8677368,-0.46759033,1.984375,-0.421875,0.0625
256,-0.103271484,-0.8777466,-0.48516846,-0.671875,1.390625,0.328125
257,-0.10961914,-0.86724854,-0.4866333,0.390625,0.484375,0.484375
258,-0.08618164,-0.86846924,-0.48321533,-3.8125,3.234375,-0.8125
259,-0.12792969,-0.8604126,-0.4727173,-0.28125,0.546875,-0.328125
260,-0.122558594,-0.87750244,-0.4805298,-0.140625,-0.234375,-0.015625
261,-0.11279297,-0.86309814,-0.47979736,-0.84375,1.625,0.328125
262,-0.104003906,-0.8748169,-0.48443604,-1.421875,0.40625,-0.265625
263,-0.10913086,-0.8621216,-0.46661377,-0.875,0.859375,0.453125
264,-0.11352539,-0.87384033,-0.47906494,0.109375,0.40625,0.0
265,-0.107910156,-0.87091064,-0.48077393,-0.546875,0.65625,0.171875
266,-0.119140625,-0.8796997,-0.46905518,-0.1875,1.328125,0.15625
267,-0.123291016,-0.85894775,-0.4758911,-1.09375,1.421875,0.953125
268,-0.10864258,-0.85894775,-0.4607544,1.328125,-0.859375,0.125
269,-0.11328125,-0.88604736,-0.49664307,0.171875,0.625,-0.109375
270,-0.111572266,-0.85406494,-0.4788208,-0.53125,1.25,-0.1875
271,-0.110839844,-0.8543091,-0.47174072,0.515625,0.140625,0.734375
272,-0.10424805,-0.8740845,-0.48150635,0.765625,0.453125,0.078125
273,-0.119384766,-0.8635864,-0.4866333,0.765625,0.5625,0.96875
274,-0.099365234,-0.866272,-0.49517822,-2.578125,2.28125,-0.25
275,-0.12963867,-0.8694458,-0.47027588,-1.296875,1.140625,-0.03125
276,-0.11816406,-0.86724854,-0.47906494,0.453125,-0.15625,0.5625
277,-0.10620117,-0.86676025,-0.48443604,-1.265625,1.9375,0.46875
278,-0.11401367,-0.87091064,-0.49468994,-0.84375,0.5,0.375
279,-0.103271484,-0.86724854,-0.48223877,-0.828125,0.90625,0.109375
280,-0.115478516,-0.84503174,-0.47296143,-1.390625,1.28125,0.640625
281,-0.103759766,-0.880188,-0.48687744,0.234375,-0.515625,0.90625
282,-0.11279297,-0.8713989,-0.4788208,-1.375,1.65625,0.59375
283,-0.100097656,-0.8584595,-0.46710205,-0.796875,0.921875,-0.046875
284,-0.111083984,-0.8711548,-0.47174072,0.84375,0.453125,-0.890625
285,-0.13476562,-0.8892212,-0.49102783,-0.484375,0.703125,0.984375
286,-0.10961914,-0.85723877,-0.4824829,-0.578125,0.828125,0.90625
287,-0.11376953,-0.86383057,-0.47174072,0.734375,-0.203125,0.359375
288,-0.11425781,-0.87701416,-0.49371338,-0.765625,1.21875,0.234375
289,-0.10620117,-0.866272,-0.48345947,0.9375,0.59375,0.59375
290,-0.106933594,-0.8652954,-0.49664307,-2.375,2.328125,-0.578125
291,-0.12573242,-0.8579712,-0.47442627,-0.78125,0.640625,-0.1875
292,-0.118652344,-0.8652954,-0.4727173,-0.15625,0.359375,0.859375
293,-0.11352539,-0.87286377,-0.48590088,-0.59375,1.03125,0.25
294,-0.10888672,-0.8652954,-0.47735596,-0.328125,0.6875,-0.015625
295,-0.109375,-0.8674927,-0.47149658,-1.078125,1.09375,0.34375
296,-0.10424805,-0.8731079,-0.49102783,-0.171875,-0.390625,-0.328125
297,-0.1171875,-0.85406494,-0.46954346,-1.453125,1.6875,0.0
298,-0.119628906,-0.87335205,-0.47833252,0.75,0.671875,0.265625
299,-0.110839844,-0.8677368,-0.48760986,-0.140625,0.46875,0.4375
300,-0.11645508,-0.86065674,-0.458313,-0.25,1.03125,0.125
301,-0.109375,-0.87506104,-0.49249268,1.046875,0.59375,0.078125
302,-0.118652344,-0.85943604,-0.47784424,-1.046875,0.875,0.046875
303,-0.103515625,-0.8701782,-0.47784424,0.625,0.3125,0.96875
304,-0.115722656,-0.866272,-0.48223877,0.265625,1.234375,0.8125
305,-0.11035156,-0.86309814,-0.49761963,-0.25,0.296875,0.59375
306,-0.10498047,-0.8765259,-0.48077393,-2.484375,2.75,-0.28125
307,-0.12939453,-0.85040283,-0.4710083,0.015625,0.46875,0.140625
308,-0.114990234,-0.8726196,-0.4800415,0.453125,0.15625,0.53125
309,-0.12158203,-0.8621216,-0.4907837,-1.796875,1.46875,0.421875
310,-0.10986328,-0.86260986,-0.48199463,-1.15625,0.6875,0.90625
311,-0.11621094,-0.8635864,-0.4805298,-0.1875,0.28125,1.28125
312,-0.10888672,-0.87677,-0.48272705,-1.109375,0.484375,-0.640625
313,-0.11791992,-0.8584595,-0.4661255,-0.53125,1.25,0.859375
314,-0.1015625,-0.8777466,-0.48394775,-0.109375,0.21875,0.171875
315,-0.11621094,-0.8652954,-0.47662354,-0.859375,0.984375,0.28125
316,-0.11230469,-0.86553955,-0.48492432,0.0625,0.125,0.8125
317,-0.11303711,-0.866272,-0.47369385,-0.375,0.796875,0.34375
318,-0.12231445,-0.8821411,-0.48565674,0.828125,0.03125,0.359375
319,-0.11279297,-0.8508911,-0.46539307,-1.078125,1.859375,0.015625
320,-0.11791992,-0.87384033,-0.4956665,1.25,-0.71875,0.59375
321,-0.1027832,-0.86553955,-0.48492432,-4.140625,3.34375,-0.578125
322,-0.119628906,-0.86065674,-0.473938,0.34375,0.109375,0.0
323,-0.11791992,-0.8706665,-0.47711182,0.53125,-0.109375,0.125
324,-0.10913086,-0.8689575,-0.49298096,-1.125,1.375,-0.046875
325,-0.12084961,-0.8616333,-0.46929932,-0.859375,0.71875,0.453125
326,-0.11254883,-0.86602783,-0.48394775,-0.03125,0.109375,0.21875
327,-0.10668945,-0.8682251,-0.47979736,-2.03125,1.28125,-0.046875
328,-0.12133789,-0.8587036,-0.46954346,0.171875,0.765625,0.421875
329,-0.11694336,-0.87286377,-0.47979736,0.03125,0.84375,0.375
330,-0.109375,-0.86798096,-0.48443604,-0.765625,0.65625,0.140625
331,-0.11450195,-0.85601807,-0.4812622,0.484375,0.71875,0.03125
332,-0.123046875,-0.86846924,-0.48565674,-1.609375,0.46875,-0.21875
333,-0.11328125,-0.86676025,-0.473938,0.25,0.765625,-0.09375
334,-0.12451172,-0.8706665,-0.4800415,-0.96875,0.3125,0.015625
335,-0.11767578,-0.8657837,-0.489563,-0.171875,0.015625,0.203125
336,-0.109375,-0.8657837,-0.48492432,-3.8125,3.109375,-0.390625
337,-0.12695312,-0.85772705,-0.45147705,-1.15625,1.03125,0.375
338,-0.12963867,-0.881897,-0.47540283,1.21875,-0.703125,0.484375
339,-0.107666016,-0.86138916,-0.4673462,-0.375,0.875,0.390625
340,-0.11669922,-0.8682251,-0.47906494,-0.984375,0.984375,0.625
341,-0.10961914,-0.8743286,-0.48272705,-0.125,0.375,0.0625
342,-0.10644531,-0.8689575,-0.48492432,-0.78125,0.765625,0.109375
343,-0.123291016,-0.8616333,-0.47369385,-0.640625,0.984375,0.171875
344,-0.11401367,-0.8740845,-0.46368408,0.203125,0.484375,0.53125
345,-0.118652344,-0.8726196,-0.47808838,-0.28125,0.484375,0.109375
346,-0.11791992,-0.85943604,-0.4710083,-0.515625,0.96875,-0.1875
347,-0.118652344,-0.8789673,-0.48223877,-0.46875,0.90625,0.140625
348,-0.10839844,-0.8616333,-0.47979736,-0.34375,0.5625,0.21875
349,-0.11669922,-0.87286377,-0.4758911,0.1875,1.03125,0.328125
350,-0.125,-0.8652954,-0.47930908,0.9375,0.828125,0.578125
351,-0.099121094,-0.87750244,-0.505188,-1.734375,1.453125,-0.640625
352,-0.125,-0.8467407,-0.45269775,-2.140625,2.0,0.21875
353,-0.11376953,-0.8792114,-0.48321533,1.6875,-1.578125,-0.0625
354,-0.12231445,-0.86602783,-0.47857666,-1.234375,2.1875,0.078125
355,-0.12036133,-0.85821533,-0.48028564,-1.15625,0.375,0.96875
356,-0.12011719,-0.86431885,-0.46954346,-0.125,0.578125,-0.078125
357,-0.119384766,-0.8731079,-0.48272705,-0.328125,0.671875,-0.953125
358,-0.12866211,-0.8591919,-0.47052002,-0.484375,0.984375,0.34375
359,-0.12524414,-0.87701416,-0.46832275,1.25,-0.09375,0.5625
360,-0.12036133,-0.8723755,-0.48394775,-0.34375,0.140625,0.53125
361,-0.12426758,-0.86724854,-0.47784424,0.125,0.984375,0.171875
362,-0.119384766,-0.87213135,-0.48516846,-0.65625,0.828125,0.125
363,-0.11816406,-0.8584595,-0.47833252,0.609375,0.390625,0.390625
364,-0.119140625,-0.87384033,-0.487854,-0.03125,0.9375,0.0
365,-0.123046875,-0.85601807,-0.4763794,-0.75,1.328125,0.546875
366,-0.111328125,-0.87506104,-0.49224854,-2.1875,1.09375,0.421875
367,-0.1274414,-0.8687134,-0.46905518,-2.828125,1.796875,-0.125
368,-0.12109375,-0.87042236,-0.4697876,0.984375,-0.234375,-0.25
369,-0.123535156,-0.86065674,-0.47369385,-1.375,1.0625,0.5625
370,-0.114990234,-0.8711548,-0.48687744,-0.453125,0.171875,0.6875
371,-0.11767578,-0.85821533,-0.47076416,-0.75,1.25,0.328125
372,-0.11669922,-0.8652954,-0.48077393,-0.84375,-0.09375,0.234375
373,-0.12670898,-0.8723755,-0.4727173,-0.703125,1.3125,-0.078125
374,-0.13110352,-0.8706665,-0.4673462,-0.328125,0.71875,1.078125
375,-0.111572266,-0.8723755,-0.46905518,0.1875,0.140625,0.359375
376,-0.11694336,-0.87213135,-0.47418213,-0.265625,0.6875,-0.03125
377,-0.12426758,-0.86553955,-0.47955322,-0.046875,0.6875,0.34375
378,-0.11328125,-0.8689575,-0.48614502,-0.359375,0.984375,0.171875
379,-0.11767578,-0.8677368,-0.47833252,0.765625,0.046875,0.5
380,-0.115234375,-0.87164307,-0.47784424,-0.390625,1.234375,0.21875
381,-0.12792969,-0.8616333,-0.4829712,0.453125,0.390625,0.546875
382,-0.1105957,-0.87457275,-0.4932251,-3.296875,2.234375,-0.640625
383,-0.12817383,-0.8574829,-0.45758057,-0.96875,1.625,-0.140625
384,-0.1394043,-0.8701782,-0.473938,0.921875,-1.03125,0.3125
385,-0.10571289,-0.8670044,-0.48736572,-1.65625,1.0625,0.59375
386,-0.12402344,-0.8699341,-0.4727173,-1.015625,1.3125,0.1875
387,-0.11230469,-0.85772705,-0.47198486,-0.890625,1.15625,0.203125
388,-0.12036133,-0.8743286,-0.48101807,-0.234375,0.21875,0.109375
389,-0.12402344,-0.8718872,-0.4746704,-1.5625,1.65625,0.265625
390,-0.13427734,-0.8755493,-0.46783447,0.265625,0.609375,0.90625
391,-0.11694336,-0.864563,-0.47149658,0.21875,-0.171875,-0.3125
392,-0.1237793,-0.86846924,-0.4751587,-0.140625,0.53125,0.234375
393,-0.12060547,-0.8713989,-0.48150635,-0.28125,0.359375,0.40625
394,-0.122802734,-0.8652954,-0.47686768,-0.421875,0.5625,0.359375
395,-0.12182617,-0.8731079,-0.473938,1.109375,-0.21875,0.46875
396,-0.11987305,-0.8718872,-0.47955322,-1.359375,1.890625,0.359375
397,-0.13208008,-0.8635864,-0.47930908,0.734375,0.078125,0.46875
398,-0.11303711,-0.8779907,-0.48614502,-3.6875,3.078125,-0.6875
399,-0.13354492,-0.8555298,-0.4595337,-0.046875,0.421875,-0.09375
400,-0.12890625,-0.8755493,-0.472229,0.4375,-0.25,0.109375
401,-0.11694336,-0.8723755,-0.4866333,-2.34375,1.59375,0.875
402,-0.1237793,-0.86431885,-0.46881104,-1.328125,0.84375,0.15625
403,-0.119384766,-0.8723755,-0.4697876,-0.234375,0.6875,0.3125
404,-0.12475586,-0.87091064,-0.47369385,-0.140625,0.203125,-0.03125
405,-0.12231445,-0.86798096,-0.47076416,-1.0,0.5625,0.625
406,-0.12524414,-0.8843384,-0.47711182,0.3125,0.125,0.75
407,-0.12011719,-0.8635864,-0.47174072,-1.28125,1.09375,0.3125
408,-0.12109375,-0.86309814,-0.46954346,0.296875,-0.03125,0.484375
409,-0.11694336,-0.8809204,-0.47833252,0.1875,0.40625,-0.078125
410,-0.1303711,-0.8609009,-0.46588135,0.40625,0.546875,0.390625
411,-0.11230469,-0.87628174,-0.47906494,0.21875,0.890625,0.21875
412,-0.122558594,-0.862854,-0.47808838,-0.171875,0.90625,0.328125
413,-0.1159668,-0.8792114,-0.49346924,-1.734375,0.90625,0.171875
414,-0.12817383,-0.87042236,-0.4656372,-2.84375,2.609375,-0.046875
415,-0.13012695,-0.8621216,-0.46270752,1.859375,-0.6875,-0.125
416,-0.111328125,-0.8753052,-0.48712158,-0.765625,0.984375,0.15625
417,-0.12475586,-0.8635864,-0.4710083,-1.046875,1.40625,0.09375
418,-0.12597656,-0.8677368,-0.4649048,-0.421875,0.828125,0.28125
419,-0.123535156,-0.86602783,-0.4824829,-0.25,0.265625,0.328125
420,-0.12841797,-0.8689575,-0.47198486,-1.453125,0.9375,0.21875
421,-0.12451172,-0.8731079,-0.46368408,1.140625,0.578125,0.453125
422,-0.1159668,-0.87457275,-0.48028564,-0.546875,0.375,0.46875
423,-0.12084961,-0.85479736,-0.4661255,-0.15625,0.984375,0.546875
424,-0.12060547,-0.8880005,-0.48809814,0.203125,0.09375,0.453125
425,-0.12719727,-0.8635864,-0.4734497,-0.78125,1.0625,0.4375
426,-0.1159668,-0.8562622,-0.4685669,1.125,0.1875,0.65625
427,-0.12451172,-0.88067627,-0.47540283,-0.578125,1.03125,0.53125
428,-0.1262207,-0.87091064,-0.48760986,-0.140625,0.203125,0.109375
429,-0.12011719,-0.8743286,-0.47491455,-3.25,2.828125,-0.1875
430,-0.12792969,-0.86309814,-0.4685669,0.65625,-0.125,0.203125
431,-0.12841797,-0.87286377,-0.4751587,0.53125,0.03125,0.890625
432,-0.11645508,-0.87286377,-0.47711182,0.015625,0.859375,0.453125
433,-0.125,-0.8648071,-0.47930908,-1.21875,1.34375,-0.109375
434,-0.1184082,-0.8543091,-0.47052002,-0.171875,0.4375,1.1875
435,-0.12158203,-0.8804321,-0.49005127,-0.6875,0.21875,-0.0625
436,-0.12475586,-0.86724854,-0.47149658,-0.46875,1.5625,0.1875
437,-0.12426758,-0.86676025,-0.47418213,0.46875,0.125,0.625
438,-0.111083984,-0.8657837,-0.47857666,-0.640625,0.359375,0.015625
439,-0.1237793,-0.87872314,-0.48687744,-0.171875,0.90625,0.125
440,-0.12109375,-0.85601807,-0.46929932,-1.375,1.109375,0.34375
441,-0.12817383,-0.8740845,-0.4758911,0.984375,0.125,0.71875
442,-0.12133789,-0.8699341,-0.48565674,-1.5625,1.59375,0.78125
443,-0.11987305,-0.8633423,-0.47686768,1.03125,-0.125,0.03125
444,-0.119140625,-0.88116455,-0.48858643,-3.671875,3.390625,-0.421875
445,-0.13964844,-0.8521118,-0.46124268,0.59375,0.078125,0.453125
446,-0.11816406,-0.88067627,-0.48101807,0.65625,-0.1875,1.0625
447,-0.1171875,-0.87164307,-0.48883057,-0.65625,1.1875,0.140625
448,-0.11401367,-0.8621216,-0.4685669,-0.734375,0.953125,0.421875
449,-0.12109375,-0.86798096,-0.48077393,0.34375,0.09375,0.859375
450,-0.11621094,-0.87164307,-0.48516846,-1.28125,1.21875,-0.1875
451,-0.12597656,-0.866272,-0.4680786,0.5625,0.625,0.359375
452,-0.12182617,-0.8740845,-0.47784424,-0.5,0.578125,0.3125
453,-0.1237793,-0.8635864,-0.47149658,-0.703125,0.875,-0.078125
454,-0.12426758,-0.86798096,-0.4841919,-0.125,0.796875,0.328125
455,-0.12475586,-0.8609009,-0.47540283,-1.46875,0.609375,0.421875
456,-0.11425781,-0.8731079,-0.47320557,-0.1875,0.921875,0.0625
457,-0.12841797,-0.86676025,-0.46905518,-1.78125,1.4375,0.296875
458,-0.11206055,-0.8670044,-0.49298096,-2.578125,1.0,-0.0625
459,-0.12402344,-0.8699341,-0.4631958,-4.09375,2.28125,-0.609375
460,-0.13256836,-0.8621216,-0.45147705,0.71875,-0.015625,0.703125
461,-0.1274414,-0.880188,-0.47564697,0.40625,0.78125,1.046875
462,-0.119384766,-0.87286377,-0.4727173,-1.859375,1.453125,-1.453125
463,-0.12915039,-0.8640747,-0.45977783,0.78125,0.078125,-0.015625
464,-0.122802734,-0.8711548,-0.47979736,0.765625,-0.171875,0.15625
465,-0.12915039,-0.8711548,-0.4661255,0.140625,-0.078125,-0.5625
466,-0.118896484,-0.8826294,-0.4685669,0.84375,-0.375,0.40625
467,-0.12475586,-0.8574829,-0.48150635,1.015625,1.140625,-0.328125
468,-0.13232422,-0.8584595,-0.4805298,2.796875,-0.40625,-0.140625
469,-0.12133789,-0.8706665,-0.47564697,1.78125,-0.3125,-0.0625
470,-0.14379883,-0.86138916,-0.47857666,1.9375,0.171875,-0.375
471,-0.1328125,-0.87335205,-0.49639893,-1.078125,1.015625,-0.03125
472,-0.11645508,-0.8623657,-0.47711182,-2.421875,0.328125,-0.359375
473,-0.12817383,-0.8599243,-0.47076416,-0.09375,1.140625,-0.625
474,-0.1315918,-0.86798096,-0.4883423,1.78125,-0.21875,-0.375
475,-0.1262207,-0.85650635,-0.48687744,1.53125,-0.09375,-0.5625
476,-0.13012695,-0.85601807,-0.49591064,-0.59375,0.734375,-0.578125
477,-0.1262207,-0.84747314,-0.4805298,0.328125,-0.5625,0.203125
478,-0.12768555,-0.8591919,-0.50128174,1.34375,-0.46875,0.21875
479,-0.125,-0.85406494,-0.49127197,0.90625,0.765625,-0.46875
480,-0.14013672,-0.85723877,-0.50006104,0.734375,0.9375,0.046875
481,-0.123291016,-0.8545532,-0.4915161,1.1875,0.25,-0.15625
482,-0.12939453,-0.85528564,-0.5015259,0.515625,1.046875,0.46875
483,-0.13354492,-0.8640747,-0.48443604,0.3125,1.046875,0.0625
484,-0.13256836,-0.8550415,-0.49591064,0.46875,0.65625,0.59375
485,-0.12841797,-0.85601807,-0.503479,-1.078125,2.140625,0.125
486,-0.13549805,-0.8562622,-0.49884033,-0.15625,0.75,0.78125
487,-0.1274414,-0.8599243,-0.49713135,-2.4375,2.28125,-0.21875
488,-0.13989258,-0.8533325,-0.4961548,-1.015625,1.453125,0.34375
489,-0.1315918,-0.862854,-0.4961548,-0.390625,0.40625,0.59375
490,-0.12768555,-0.85821533,-0.50250244,-2.484375,1.9375,0.25
491,-0.13061523,-0.850647,-0.49127197,-2.453125,1.890625,0.390625
492,-0.12963867,-0.86724854,-0.49542236,-0.21875,0.609375,0.4375
493,-0.13012695,-0.8587036,-0.49420166,-1.609375,1.03125,-0.171875
494,-0.14526367,-0.8633423,-0.48516846,-0.453125,1.6875,0.453125
495,-0.13891602,-0.85650635,-0.4883423,-1.0,1.015625,1.0
496,-0.13330078,-0.8579712,-0.48736572,0.46875,1.015625,0.171875
497,-0.13476562,-0.8694458,-0.4920044,0.015625,1.21875,0.671875
498,-0.13452148,-0.8538208,-0.489563,0.53125,1.234375,0.515625
499,-0.13500977,-0.8574829,-0.4883423,1.359375,1.46875,0.796875
500,-0.1328125,-0.86065674,-0.50128174,3.03125,0.75,1.6875
501,-0.12670898,-0.85479736,-0.50201416,-0.046875,1.875,0.171875
502,-0.14941406,-0.86383057,-0.48614502,1.75,1.5625,0.515625
503,-0.14379883,-0.8609009,-0.4890747,2.984375,-0.234375,0.796875
504,-0.1262207,-0.8555298,-0.5105591,-1.484375,1.15625,0.8125
505,-0.13549805,-0.84625244,-0.5039673,-2.25,1.640625,0.90625
506,-0.1352539,-0.8491821,-0.50372314,-0.140625,-0.5,2.09375
507,-0.12524414,-0.8604126,-0.50372314,-3.28125,0.25,0.921875
508,-0.13452148,-0.84381104,-0.4812622,-2.171875,0.984375,1.46875
509,-0.14233398,-0.87213135,-0.503479,-0.921875,-1.421875,2.234375
510,-0.111572266,-0.850647,-0.4993286,-0.78125,-0.796875,1.109375
511,-0.12426758,-0.8670044,-0.49713135,-2.015625,0.890625,1.1875
512,-0.10986328,-0.8484497,-0.47979736,-0.15625,0.265625,1.53125
513,-0.123046875,-0.8633423,-0.4985962,-1.65625,0.828125,0.796875
514,-0.118652344,-0.8530884,-0.49176025,1.328125,0.328125,1.125
515,-0.118652344,-0.86920166,-0.50250244,-1.90625,2.5,0.28125
516,-0.122802734,-0.8401489,-0.4800415,1.78125,0.65625,0.46875
517,-0.12451172,-0.87164307,-0.49761963,4.0,-0.484375,0.515625
518,-0.12426758,-0.8501587,-0.51153564,0.21875,1.359375,0.203125
519,-0.14453125,-0.91290283,-0.41070557,2.234375,-0.734375,2.578125
520,-0.1303711,-0.9031372,-0.425354,-3.0625,1.171875,1.75
521,-0.12768555,-0.87872314,-0.40631104,0.78125,0.703125,1.671875
522,-0.13549805,-0.90753174,-0.39385986,-0.734375,0.71875,1.421875
523,-0.13012695,-0.9092407,-0.4216919,5.3125,-1.328125,2.5
524,-0.12182617,-0.9102173,-0.4199829,1.984375,0.578125,2.265625
525,-0.115234375,-0.88482666,-0.42340088,1.375,-0.609375,1.71875
526,-0.09082031,-0.8911743,-0.41949463,-2.40625,2.734375,0.75
527,-0.1418457,-0.9151001,-0.40533447,3.59375,-1.296875,2.046875
528,-0.10620117,-0.88897705,-0.4434204,-0.203125,0.21875,2.375
529,-0.091552734,-0.88482666,-0.44244385,2.75,-0.234375,1.765625
530,-0.07714844,-0.89385986,-0.46905518,-2.4375,0.3125,-1.40625
531,-0.083984375,-0.85723877,-0.42315674,0.609375,1.0,-1.109375
532,-0.14428711,-0.8928833,-0.44293213,4.59375,-1.546875,-0.375
533,-0.10180664,-0.8987427,-0.4619751,2.59375,-0.609375,2.234375
534,-0.10668945,-0.88531494,-0.43048096,2.828125,0.03125,1.109375
535,-0.10205078,-0.90582275,-0.45880127,0.90625,-0.84375,-1.0625
536,-0.096191406,-0.8765259,-0.4451294,-2.0625,0.578125,-0.75
537,-0.10180664,-0.8833618,-0.4595337,-1.78125,1.4375,-1.6875
538,-0.119140625,-0.87579346,-0.4487915,-0.0625,-0.984375,-0.3125
539,-0.115478516,-0.8740845,-0.45098877,1.265625,-0.53125,1.015625
540,-0.1003418,-0.8882446,-0.46270752,1.75,-0.390625,1.375
541,-0.07470703,-0.88531494,-0.4758911,-4.171875,1.15625,-1.234375
542,-0.09667969,-0.8753052,-0.4192505,-2.046875,3.671875,-3.15625
543,-0.16015625,-0.90631104,-0.456604,3.265625,0.0625,0.078125
544,-0.119628906,-0.8538208,-0.456604,2.234375,-0.171875,3.8125
545,-0.10595703,-0.8748169,-0.4727173,1.5625,-0.25,3.40625
546,-0.080078125,-0.88946533,-0.47418213,-0.4375,-0.125,0.0
547,-0.095703125,-0.8579712,-0.46221924,-3.71875,2.265625,-0.375
548,-0.1105957,-0.878479,-0.4649048,-1.3125,0.109375,-0.984375
549,-0.11279297,-0.8862915,-0.44830322,-1.875,0.9375,-0.671875
550,-0.11352539,-0.8789673,-0.4492798,-0.15625,0.90625,1.09375
551,-0.088134766,-0.8740845,-0.4277954,-0.5,1.171875,0.578125
552,-0.09716797,-0.897522,-0.43292236,-0.3125,1.578125,-1.28125
553,-0.12036133,-0.89508057,-0.4602661,-2.90625,2.671875,-0.4375
554,-0.11645508,-0.8621216,-0.4512329,0.0625,2.40625,0.375
555,-0.13989258,-0.86553955,-0.43951416,3.796875,-0.515625,3.296875
556,-0.12158203,-0.9024048,-0.46295166,5.375,-1.5,2.984375
557,-0.08642578,-0.87213135,-0.46588135,-2.34375,2.296875,0.171875
558,-0.09838867,-0.88409424,-0.4734497,0.296875,0.59375,-1.765625
559,-0.10253906,-0.87701416,-0.4673462,-4.640625,3.078125,-1.484375
560,-0.12060547,-0.8501587,-0.41680908,0.703125,0.34375,2.921875
561,-0.1237793,-0.90582275,-0.456604,3.625,-1.453125,2.703125
562,-0.08959961,-0.89068604,-0.4590454,2.265625,0.171875,2.125
563,-0.08862305,-0.8831177,-0.46881104,-0.046875,1.703125,0.796875
564,-0.09326172,-0.86968994,-0.4595337,0.546875,1.125,0.328125
565,-0.09716797,-0.8804321,-0.47296143,-0.90625,0.21875,-0.6875
566,-0.10473633,-0.87823486,-0.46295166,-0.921875,1.078125,0.203125
567,-0.107666016,-0.88531494,-0.47174072,-0.796875,0.984375,0.34375
568,-0.106933594,-0.8587036,-0.46661377,0.6875,0.125,1.859375
569,-0.078125,-0.8779907,-0.45489502,1.765625,-0.296875,0.953125
570,-0.11206055,-0.89263916,-0.48028564,0.21875,2.640625,-1.4375
571,-0.10986328,-0.8464966,-0.45220947,-0.28125,2.828125,2.484375
572,-0.08325195,-0.87677,-0.42755127,8.84375,0.625,0.359375
573,-0.107910156,-0.8987427,-0.48736572,5.640625,2.578125,-2.53125
574,-0.107421875,-0.8477173,-0.48443604,7.8125,0.875,0.234375
575,-0.100097656,-0.8587036,-0.52178955,4.625,0.296875,0.453125
576,-0.08984375,-0.8386841,-0.51275635,-3.28125,4.171875,-0.40625
577,-0.11206055,-0.8291626,-0.4993286,4.765625,-0.203125,-0.015625
578,-0.12109375,-0.864563,-0.51812744,0.328125,1.65625,-0.40625
579,-0.119384766,-0.8484497,-0.5059204,-0.359375,2.265625,-0.875
580,-0.11645508,-0.8533325,-0.5059204,1.0625,2.015625,-0.546875
581,-0.111328125,-0.8484497,-0.5274048,-1.9375,1.890625,-1.3125
582,-0.11206055,-0.84381104,-0.50445557,-1.328125,0.96875,-1.328125
583,-0.123291016,-0.8604126,-0.5125122,-0.46875,2.03125,-1.453125
584,-0.11791992,-0.8543091,-0.50567627,-3.3125,1.984375,-1.0
585,-0.11376953,-0.84869385,-0.4981079,-2.234375,1.78125,-0.78125
586,-0.13085938,-0.8609009,-0.5076294,-5.15625,2.546875,-0.375
587,-0.125,-0.84552,-0.48443604,-4.5,2.21875,-0.359375
588,-0.1340332,-0.8599243,-0.473938,-1.859375,2.015625,-0.046875
589,-0.14501953,-0.8870239,-0.49053955,1.71875,-0.203125,-0.609375
590,-0.13769531,-0.84552,-0.46832275,-1.96875,1.75,-0.75
591,-0.14135742,-0.86505127,-0.50567627,-0.890625,0.90625,-0.453125
592,-0.13452148,-0.85235596,-0.47906494,-4.34375,2.875,-0.609375
593,-0.14257812,-0.8569946,-0.48394775,1.890625,-0.203125,0.171875
594,-0.13549805,-0.86187744,-0.4812622,0.0625,0.84375,1.015625
595,-0.13085938,-0.8648071,-0.487854,-0.84375,0.796875,0.671875
596,-0.12988281,-0.86138916,-0.4829712,-2.140625,1.734375,0.703125
597,-0.14013672,-0.8545532,-0.47198486,-1.0,1.203125,0.796875
598,-0.140625,-0.8731079,-0.48150635,-1.234375,2.140625,0.421875
599,-0.14013672,-0.86016846,-0.47174072,0.890625,1.484375,1.21875
600,-0.1430664,-0.8723755,-0.47662354,1.5625,-0.71875,1.15625
601,-0.1315918,-0.87677,-0.4841919,-0.609375,0.328125,0.28125
602,-0.13452148,-0.86260986,-0.4944458,-1.28125,-0.34375,0.15625
603,-0.12841797,-0.8491821,-0.473938,-0.15625,0.5,-0.09375
604,-0.14282227,-0.8574829,-0.48345947,3.234375,-0.84375,1.640625
605,-0.11743164,-0.8699341,-0.4932251,-0.140625,-0.421875,1.09375
606,-0.12719727,-0.8604126,-0.50250244,-0.171875,-0.421875,0.28125
607,-0.1159668,-0.86920166,-0.48809814,-3.78125,2.65625,-2.0
608,-0.14697266,-0.8428345,-0.46343994,-0.203125,1.8125,1.09375
609,-0.1430664,-0.8687134,-0.47857666,5.046875,-2.265625,1.828125
610,-0.13134766,-0.866272,-0.506897,-0.296875,0.640625,0.609375
611,-0.119140625,-0.8484497,-0.48345947,1.34375,-0.171875,-0.140625
612,-0.1303711,-0.8545532,-0.49664307,2.078125,-1.875,0.0625
613,-0.119140625,-0.8623657,-0.5003052,1.0,-0.8125,-0.578125
614,-0.13085938,-0.8464966,-0.50250244,-0.171875,-0.09375,-0.390625
615,-0.1262207,-0.862854,-0.49420166,0.421875,-0.828125,-0.578125
616,-0.13500977,-0.8530884,-0.503479,-0.265625,-0.125,-0.484375
617,-0.12133789,-0.8567505,-0.51275635,-1.015625,0.0625,-0.390625
618,-0.13012695,-0.84381104,-0.48638916,0.296875,0.390625,0.03125
619,-0.12646484,-0.8442993,-0.5081177,3.1875,-1.390625,0.4375
620,-0.11376953,-0.85943604,-0.5315552,-1.125,0.828125,-0.84375
621,-0.1262207,-0.84210205,-0.49761963,0.484375,0.34375,-0.5625
622,-0.119384766,-0.8543091,-0.51446533,-1.234375,-0.21875,-1.453125
623,-0.13354492,-0.8442993,-0.5161743,0.28125,1.828125,-0.09375
624,-0.12695312,-0.8440552,-0.5137329,0.1875,-0.109375,0.28125
625,-0.13183594,-0.82525635,-0.51226807,1.0,0.21875,0.453125
626,-0.13110352,-0.8467407,-0.5003052,2.84375,-0.421875,0.78125
627,-0.12158203,-0.8362427,-0.5210571,0.875,-0.1875,0.203125
628,-0.12719727,-0.85284424,-0.50738525,3.53125,-0.375,0.078125
629,-0.13623047,-0.8394165,-0.51763916,1.421875,-0.625,0.8125
630,-0.12231445,-0.8364868,-0.51885986,2.765625,-0.609375,0.609375
631,-0.12792969,-0.8411255,-0.52471924,1.75,0.125,0.78125
632,-0.11743164,-0.8311157,-0.5352173,-0.109375,0.5,-0.1875
633,-0.122558594,-0.8452759,-0.52716064,2.890625,-0.21875,1.1875
634,-0.12109375,-0.8381958,-0.54766846,-1.375,0.953125,0.515625
635,-0.122558594,-0.8179321,-0.52838135,1.125,0.71875,0.859375
636,-0.11425781,-0.8518677,-0.5432739,-0.984375,2.0,-0.15625
637,-0.13574219,-0.82598877,-0.5298462,0.390625,1.15625,0.484375
638,-0.11816406,-0.83306885,-0.5342407,0.375,0.609375,0.640625
639,-0.11816406,-0.8352661,-0.5393677,-1.4375,2.21875,0.078125
640,-0.1262207,-0.83258057,-0.5315552,-1.9375,1.3125,-0.296875
641,-0.11352539,-0.82598877,-0.5305786,-0.90625,0.65625,0.140625
642,-0.11450195,-0.8352661,-0.5418091,-0.4375,0.671875,-0.21875
643,-0.13183594,-0.82696533,-0.53131104,-1.4375,1.9375,0.34375
644,-0.1159668,-0.84259033,-0.5261841,0.09375,0.703125,0.3125
645,-0.12670898,-0.8311157,-0.52471924,-0.25,1.609375,0.0625
646,-0.13500977,-0.8442993,-0.53790283,0.328125,1.546875,1.78125
647,-0.13183594,-0.8401489,-0.53253174,0.265625,1.109375,0.953125
648,-0.12646484,-0.83721924,-0.53131104,1.046875,0.265625,1.203125
649,-0.11987305,-0.82891846,-0.54351807,-0.1875,0.296875,0.9375
650,-0.118652344,-0.835022,-0.5420532,-0.8125,1.875,0.265625
651,-0.12231445,-0.82891846,-0.53741455,-1.5625,1.5625,0.609375
652,-0.12036133,-0.83013916,-0.52667236,1.84375,-0.015625,0.453125
653,-0.12475586,-0.83062744,-0.55133057,-1.5625,1.375,0.671875
654,-0.12158203,-0.819397,-0.5388794,-1.4375,1.828125,0.671875
655,-0.11206055,-0.83013916,-0.5317993,-0.828125,1.0625,0.03125
656,-0.1171875,-0.83551025,-0.55133057,-0.640625,1.078125,0.0
657,-0.119384766,-0.8250122,-0.5195923,-0.421875,2.1875,0.859375
658,-0.13085938,-0.83843994,-0.5252075,1.796875,0.578125,1.203125
659,-0.13085938,-0.8369751,-0.5498657,-0.140625,0.671875,1.3125
660,-0.11303711,-0.8272095,-0.5471802,-2.578125,1.84375,-0.734375
661,-0.14477539,-0.8208618,-0.53326416,-3.8125,2.28125,1.1875
662,-0.12426758,-0.8447876,-0.5215454,-0.484375,0.90625,0.0625
663,-0.12915039,-0.84576416,-0.53741455,-2.65625,0.6875,1.703125
664,-0.12402344,-0.8274536,-0.53302,-2.875,0.78125,-0.71875
665,-0.12036133,-0.82159424,-0.5010376,-0.46875,0.84375,1.5
666,-0.12939453,-0.8538208,-0.5244751,2.5625,-1.453125,2.03125
667,-0.10913086,-0.8435669,-0.5281372,-0.453125,0.125,0.15625
668,-0.11352539,-0.8399048,-0.5183716,-1.0625,0.1875,1.046875
669,-0.11303711,-0.835022,-0.53741455,-1.9375,0.625,-0.078125
670,-0.114990234,-0.83795166,-0.52545166,-1.5625,1.15625,0.1875
671,-0.122802734,-0.83428955,-0.5195923,-2.5625,2.6875,0.296875
672,-0.123535156,-0.84869385,-0.5264282,-0.3125,-0.375,-0.046875
673,-0.12402344,-0.84088135,-0.5261841,-2.3125,1.640625,0.234375
674,-0.11401367,-0.85479736,-0.51641846,-4.21875,2.265625,-0.625
675,-0.13793945,-0.8381958,-0.4961548,-1.078125,0.578125,0.046875
676,-0.12182617,-0.8501587,-0.52008057,-3.34375,1.234375,0.125
677,-0.12597656,-0.8423462,-0.5232544,-1.953125,1.1875,1.640625
678,-0.12158203,-0.8533325,-0.52911377,-7.515625,3.53125,-0.203125
679,-0.1237793,-0.83258057,-0.47296143,-2.578125,1.390625,0.21875
680,-0.140625,-0.8689575,-0.49224854,0.84375,-0.375,-0.625
681,-0.12988281,-0.85406494,-0.4985962,-1.703125,0.140625,0.953125
682,-0.11010742,-0.8596802,-0.50323486,-1.796875,-0.125,0.328125
683,-0.118652344,-0.848938,-0.48931885,-0.859375,1.203125,0.453125
684,-0.118652344,-0.86187744,-0.50250244,-2.4375,2.171875,0.015625
685,-0.12695312,-0.8440552,-0.47979736,-0.484375,1.390625,0.515625
686,-0.13598633,-0.8665161,-0.50128174,0.8125,1.203125,1.625
687,-0.123046875,-0.85601807,-0.49224854,-0.09375,0.953125,0.875
688,-0.12475586,-0.8550415,-0.4968872,-2.453125,1.671875,-0.84375
689,-0.12695312,-0.84625244,-0.49468994,-3.3125,1.53125,-0.796875
690,-0.13427734,-0.85772705,-0.48468018,-3.578125,2.0,-0.34375
691,-0.12548828,-0.86505127,-0.49371338,-3.03125,1.5,0.515625
692,-0.13134766,-0.86553955,-0.47491455,-3.546875,1.46875,-0.15625
693,-0.13598633,-0.8484497,-0.46270752,-0.953125,1.0625,-0.03125
694,-0.12011719,-0.88409424,-0.48394775,-0.390625,-0.59375,-0.1875
695,-0.1315918,-0.8567505,-0.47613525,1.875,1.359375,0.8125
696,-0.13989258,-0.88116455,-0.4824829,-2.546875,1.703125,-0.390625
697,-0.13061523,-0.8526001,-0.47491455,0.84375,0.4375,0.03125
698,-0.13647461,-0.8718872,-0.4788208,-1.109375,0.890625,0.375
699,-0.14624023,-0.8579712,-0.46270752,2.6875,-0.15625,0.515625
700,-0.1459961,-0.8833618,-0.49102783,1.65625,-0.71875,1.171875
701,-0.123046875,-0.8538208,-0.4758911,0.140625,0.109375,0.015625
702,-0.1381836,-0.86798096,-0.47906494,4.265625,-1.734375,1.0625
703,-0.1237793,-0.86676025,-0.5120239,0.9375,-0.09375,-0.546875
704,-0.11816406,-0.84161377,-0.49273682,0.25,0.34375,0.609375
705,-0.12036133,-0.8579712,-0.4981079,-1.0,0.65625,-0.59375
706,-0.12646484,-0.8562622,-0.5015259,2.140625,0.0625,0.796875
707,-0.12719727,-0.8521118,-0.5059204,0.015625,-0.375,-0.296875
708,-0.118652344,-0.8530884,-0.49591064,-0.6875,0.234375,-0.25
709,-0.12719727,-0.8530884,-0.49908447,-2.46875,1.078125,-0.84375
710,-0.1237793,-0.8557739,-0.5064087,-1.421875,-0.640625,-0.34375
711,-0.12768555,-0.85284424,-0.4800415,-0.546875,0.28125,-0.578125
712,-0.13867188,-0.8550415,-0.4981079,0.078125,-0.3125,0.140625
713,-0.12084961,-0.8562622,-0.50738525,-0.171875,-0.453125,-0.0625
714,-0.12060547,-0.8530884,-0.4932251,0.515625,1.09375,0.265625
715,-0.12841797,-0.8557739,-0.49884033,-0.484375,0.59375,0.109375
716,-0.14111328,-0.86138916,-0.49176025,2.21875,-0.9375,0.921875
717,-0.12084961,-0.86920166,-0.5154419,0.71875,0.546875,0.71875
718,-0.11767578,-0.8401489,-0.49127197,0.46875,0.96875,0.203125
719,-0.119628906,-0.85601807,-0.5029907,-0.421875,0.546875,-0.578125
720,-0.12792969,-0.85235596,-0.5064087,0.421875,-0.078125,-0.125
721,-0.12451172,-0.8501587,-0.51568604,0.484375,0.46875,0.125
722,-0.107666016,-0.835022,-0.51031494,-0.703125,0.859375,0.625
723,-0.12817383,-0.85357666,-0.51397705,-1.65625,1.125,0.09375
724,-0.1171875,-0.8518677,-0.5071411,-0.515625,0.703125,0.21875
725,-0.12158203,-0.8491821,-0.50128174,-1.8125,1.6875,-0.59375
726,-0.13012695,-0.8496704,-0.49786377,-1.578125,1.5625,-0.09375
727,-0.12939453,-0.8538208,-0.4907837,-0.828125,1.421875,0.328125
728,-0.14160156,-0.8587036,-0.5010376,-0.375,0.625,0.734375
729,-0.12963867,-0.85821533,-0.49786377,-0.59375,1.546875,0.875
730,-0.125,-0.8477173,-0.49664307,-1.21875,1.546875,0.4375
731,-0.1418457,-0.84747314,-0.4883423,2.46875,1.078125,0.875
732,-0.13549805,-0.864563,-0.51153564,-0.828125,0.625,0.84375
733,-0.11376953,-0.8406372,-0.5071411,0.328125,-0.03125,0.25
734,-0.12426758,-0.8723755,-0.5083618,-3.609375,3.0625,-1.34375
735,-0.1274414,-0.8335571,-0.4788208,-0.953125,1.6875,0.1875
736,-0.1352539,-0.8687134,-0.50372314,-0.109375,0.375,0.421875
737,-0.12939453,-0.84820557,-0.5010376,-0.453125,1.3125,0.875
738,-0.12841797,-0.8545532,-0.49884033,-0.3125,1.28125,1.078125
739,-0.13598633,-0.84552,-0.49664307,0.046875,1.203125,0.0625
740,-0.12695312,-0.86676025,-0.505188,-0.25,-0.1875,-0.203125
741,-0.12792969,-0.85821533,-0.4993286,-2.109375,1.453125,0.28125
742,-0.12963867,-0.86187744,-0.49224854,0.546875,0.359375,0.4375
743,-0.1352539,-0.847229,-0.49591064,-0.65625,0.703125,0.796875
744,-0.12670898,-0.8604126,-0.50567627,-1.5,0.234375,0.4375
745,-0.1262207,-0.8591919,-0.4973755,-1.875,1.78125,-0.515625
746,-0.13964844,-0.8518677,-0.48980713,-0.5,1.265625,0.515625
747,-0.12475586,-0.86724854,-0.5046997,-2.015625,1.1875,-0.09375
748,-0.1340332,-0.84454346,-0.4866333,-1.09375,1.53125,0.03125
749,-0.14160156,-0.8726196,-0.5042114,-5.421875,2.28125,-1.140625
750,-0.13305664,-0.8491821,-0.49005127,-3.734375,2.328125,-0.140625
751,-0.15332031,-0.8633423,-0.47198486,0.109375,0.796875,0.875
752,-0.14282227,-0.85406494,-0.47906494,-1.5625,1.203125,1.296875
753,-0.12231445,-0.8792114,-0.4968872,-0.765625,0.40625,0.171875
754,-0.14086914,-0.8501587,-0.48321533,-2.5,1.609375,-0.03125
755,-0.1340332,-0.8623657,-0.48614502,-0.734375,0.484375,0.03125
756,-0.13256836,-0.8687134,-0.47833252,-2.75,1.4375,0.234375
757,-0.13842773,-0.8648071,-0.46221924,-1.421875,1.71875,1.046875
758,-0.13964844,-0.8731079,-0.4644165,-0.65625,0.28125,1.125
759,-0.14282227,-0.8665161,-0.4727173,0.5625,0.125,0.84375
