sample_no,accel_x,accel_y,accel_z,gyro_x,gyro_y,gyro_z
0,-0.7961426,-0.45733643,-0.4138794,-1.25,2.53125,-0.8125
1,-0.8046875,-0.4602661,-0.40826416,-1.625,3.75,-1.09375
2,-0.80200195,-0.4595337,-0.40582275,-0.78125,1.921875,-0.375
3,-0.7998047,-0.45587158,-0.40338135,-0.484375,2.09375,-0.296875
4,-0.7937012,-0.45220947,-0.40411377,-0.296875,0.609375,0.453125
5,-0.80566406,-0.45367432,-0.41656494,0.234375,0.015625,0.640625
6,-0.8022461,-0.46343994,-0.41046143,0.296875,0.25,0.71875
7,-0.8010254,-0.45465088,-0.40777588,0.25,0.859375,0.21875
8,-0.8017578,-0.46466064,-0.4199829,-0.515625,1.1875,0.0625
9,-0.8022461,-0.4578247,-0.4043579,-0.125,1.078125,0.40625
10,-0.7956543,-0.46148682,-0.4109497,0.359375,1.09375,-0.03125
11,-0.79125977,-0.45587158,-0.40924072,-0.125,0.90625,0.484375
12,-0.80493164,-0.45562744,-0.40875244,-0.046875,0.6875,0.453125
13,-0.7988281,-0.4512329,-0.40899658,0.03125,0.375,0.5625
14,-0.7976074,-0.4602661,-0.41973877,-1.09375,1.546875,0.234375
15,-0.80126953,-0.46099854,-0.40679932,-0.671875,1.609375,0.140625
16,-0.7976074,-0.4517212,-0.4138794,-0.203125,0.6875,0.109375
17,-0.7963867,-0.4649048,-0.41705322,-0.40625,0.921875,0.234375
18,-0.8005371,-0.46270752,-0.4036255,-0.1875,1.140625,0.296875
19,-0.795166,-0.46002197,-0.41778564,-0.484375,1.296875,0.078125
20,-0.79467773,-0.45684814,-0.41070557,-0.28125,0.90625,0.328125
21,-0.8039551,-0.45977783,-0.4109497,-0.34375,1.625,0.28125
22,-0.795166,-0.46392822,-0.40753174,-0.625,0.875,0.328125
23,-0.7976074,-0.45562744,-0.4109497,-0.421875,0.78125,0.265625
24,-0.8059082,-0.45465088,-0.4102173,-0.390625,1.375,0.28125
25,-0.7993164,-0.46392822,-0.41436768,-0.3125,1.203125,0.078125
26,-0.79345703,-0.45465088,-0.4085083,-0.171875,1.40625,0.078125
27,-0.8005371,-0.46417236,-0.41436768,-0.234375,0.921875,0.296875
28,-0.798584,-0.4644165,-0.41705322,-0.59375,1.140625,0.375
29,-0.79541016,-0.4590454,-0.40704346,-0.578125,1.171875,0.578125
30,-0.79418945,-0.46051025,-0.40631104,-0.4375,1.015625,0.21875
31,-0.7988281,-0.46417236,-0.41070557,-0.078125,0.609375,0.53125
32,-0.8000488,-0.46539307,-0.41851807,-0.234375,0.796875,-0.078125
33,-0.7770996,-0.46392822,-0.41412354,-1.5625,2.046875,-0.703125
34,-0.79907227,-0.45855713,-0.40020752,-4.21875,5.140625,-2.28125
35,-0.8100586,-0.4668579,-0.39727783,-1.5625,2.203125,-1.34375
36,-0.81469727,-0.4595337,-0.39556885,0.21875,1.453125,-1.015625
37,-0.8161621,-0.45733643,-0.40045166,0.0,0.390625,-0.328125
38,-0.80078125,-0.4500122,-0.39752197,0.40625,-0.09375,-0.171875
39,-0.80859375,-0.45635986,-0.4048462,-0.0625,1.234375,-0.390625
40,-0.8017578,-0.4570923,-0.40093994,-0.03125,-0.46875,0.234375
41,-0.8027344,-0.4602661,-0.40826416,0.75,-0.8125,0.5625
42,-0.80249023,-0.4505005,-0.40924072,0.171875,-0.5,0.90625
43,-0.7956543,-0.46051025,-0.40631104,-0.59375,0.796875,0.921875
44,-0.79248047,-0.46295166,-0.41070557,0.25,-0.578125,1.453125
45,-0.80615234,-0.45880127,-0.40899658,0.6875,-0.78125,1.4375
46,-0.7907715,-0.46368408,-0.4121704,0.171875,1.140625,0.125
47,-0.8029785,-0.45855713,-0.41168213,-0.9375,1.78125,0.03125
48,-0.7988281,-0.46099854,-0.41046143,-0.515625,1.5625,0.1875
49,-0.80126953,-0.4529419,-0.4055786,0.0,1.078125,0.0625
50,-0.7980957,-0.46392822,-0.4126587,-0.109375,0.6875,0.421875
51,-0.798584,-0.46636963,-0.41314697,-0.625,1.15625,0.09375
52,-0.7961426,-0.45489502,-0.40460205,-0.21875,0.78125,0.21875
53,-0.7932129,-0.45733643,-0.41290283,-0.234375,0.4375,0.359375
54,-0.7849121,-0.46124268,-0.41314697,-0.28125,1.4375,-0.0625
55,-0.7890625,-0.46099854,-0.4109497,-0.65625,1.515625,-0.34375
56,-0.79345703,-0.4668579,-0.4175415,-2.484375,4.28125,-1.671875
57,-0.7939453,-0.45855713,-0.3970337,-2.96875,5.171875,-2.390625
58,-0.82250977,-0.46661377,-0.39483643,-0.234375,0.90625,-0.640625
59,-0.81103516,-0.4602661,-0.39752197,0.703125,0.34375,-0.25
60,-0.8105469,-0.45465088,-0.4036255,0.453125,-0.21875,0.046875
61,-0.8041992,-0.45855713,-0.40631104,0.28125,-0.03125,0.375
62,-0.7998047,-0.45635986,-0.40264893,0.078125,-0.15625,0.890625
63,-0.7973633,-0.45098877,-0.40411377,0.375,-0.921875,1.6875
64,-0.7998047,-0.4680786,-0.4024048,0.953125,-1.390625,1.84375
65,-0.79174805,-0.46221924,-0.4282837,0.578125,-0.21875,1.046875
66,-0.8046875,-0.45806885,-0.42266846,-0.203125,1.84375,-0.015625
67,-0.8059082,-0.4590454,-0.41973877,-0.3125,1.0625,0.296875
68,-0.8015137,-0.46002197,-0.409729,0.03125,1.09375,0.015625
69,-0.796875,-0.45391846,-0.40509033,-0.3125,1.609375,-0.15625
70,-0.7944336,-0.46051025,-0.41656494,-0.75,1.6875,-0.265625
71,-0.79345703,-0.46221924,-0.41192627,-0.796875,1.5625,-0.109375
72,-0.7932129,-0.4578247,-0.40777588,-0.4375,0.78125,0.40625
73,-0.80688477,-0.46514893,-0.41851807,-0.546875,1.265625,0.40625
74,-0.7949219,-0.46270752,-0.40704346,-0.21875,0.4375,0.5
75,-0.80078125,-0.45855713,-0.41363525,0.5625,0.28125,0.640625
76,-0.7932129,-0.45343018,-0.41949463,0.0,1.21875,0.015625
77,-0.796875,-0.4602661,-0.4163208,-0.78125,1.640625,0.015625
78,-0.79785156,-0.47174072,-0.41827393,-0.734375,2.046875,-0.078125
79,-0.7937012,-0.45465088,-0.40460205,-0.203125,1.484375,0.0
80,-0.8029785,-0.46832275,-0.41607666,-0.328125,0.71875,0.3125
81,-0.80078125,-0.45684814,-0.41070557,-0.21875,0.703125,0.4375
82,-0.8046875,-0.46221924,-0.411438,-0.390625,0.984375,0.59375
83,-0.7944336,-0.4631958,-0.409729,-0.78125,1.546875,0.34375
84,-0.79418945,-0.46514893,-0.41241455,0.0,0.3125,0.59375
85,-0.7902832,-0.4631958,-0.41949463,-0.34375,1.328125,-0.125
86,-0.79248047,-0.46368408,-0.409729,-0.734375,1.296875,0.171875
87,-0.79589844,-0.4680786,-0.41314697,-0.390625,0.859375,0.328125
88,-0.80029297,-0.46051025,-0.41119385,-0.140625,1.078125,0.171875
89,-0.79248047,-0.45220947,-0.41046143,-0.328125,1.390625,0.0
90,-0.7976074,-0.45635986,-0.40704346,-0.25,0.875,0.359375
91,-0.7939453,-0.46270752,-0.41583252,-0.96875,1.6875,0.03125
92,-0.7922363,-0.46246338,-0.4085083,-0.71875,0.609375,0.515625
93,-0.79296875,-0.4590454,-0.41119385,-0.015625,0.375,0.546875
94,-0.798584,-0.46905518,-0.4133911,-0.40625,1.171875,0.375
95,-0.79663086,-0.4697876,-0.41656494,-0.5625,1.625,-0.03125
96,-0.79541016,-0.46392822,-0.40875244,-0.46875,1.390625,0.109375
97,-0.79003906,-0.4697876,-0.40753174,-0.265625,1.078125,0.109375
98,-0.7956543,-0.4649048,-0.4072876,-0.25,0.78125,0.421875
99,-0.79125977,-0.4668579,-0.41168213,-0.453125,0.828125,0.28125
100,-0.7949219,-0.46905518,-0.41729736,-0.25,1.0,0.28125
101,-0.8000488,-0.46002197,-0.40655518,0.015625,0.90625,0.265625
102,-0.7897949,-0.4607544,-0.41436768,-0.078125,0.890625,0.265625
103,-0.79956055,-0.46661377,-0.41461182,-0.421875,1.390625,0.0
104,-0.79711914,-0.46099854,-0.409729,-0.359375,0.984375,0.171875
105,-0.79907227,-0.46636963,-0.40802002,-0.15625,1.15625,0.21875
106,-0.7937012,-0.46246338,-0.41241455,-0.359375,1.265625,0.109375
107,-0.7858887,-0.4697876,-0.41705322,-0.75,0.9375,-0.03125
108,-0.79785156,-0.46661377,-0.40777588,-0.21875,1.34375,0.09375
109,-0.7919922,-0.46343994,-0.41656494,-0.34375,1.859375,-0.21875
110,-0.79418945,-0.46099854,-0.40826416,-0.59375,1.125,0.28125
111,-0.7944336,-0.4644165,-0.41070557,-0.515625,1.1875,0.3125
112,-0.7890625,-0.4656372,-0.41192627,-0.3125,1.109375,0.21875
113,-0.79833984,-0.46295166,-0.40142822,-0.40625,1.3125,0.25
114,-0.7963867,-0.4644165,-0.41119385,-0.40625,1.265625,-0.0625
115,-0.8015137,-0.4668579,-0.40826416,-0.140625,1.265625,-0.015625
116,-0.7963867,-0.46783447,-0.411438,-0.40625,0.828125,0.40625
117,-0.7883301,-0.46417236,-0.4133911,-0.296875,1.046875,0.203125
118,-0.7949219,-0.4680786,-0.40899658,-0.59375,0.65625,0.765625
119,-0.7890625,-0.46246338,-0.40924072,-0.03125,1.015625,0.375
120,-0.79052734,-0.45806885,-0.40093994,-0.046875,1.234375,0.46875
121,-0.7976074,-0.47149658,-0.41973877,-0.40625,1.375,0.265625
122,-0.7937012,-0.47442627,-0.41290283,-0.453125,1.625,0.09375
123,-0.7976074,-0.46783447,-0.40509033,-0.21875,1.296875,0.234375
124,-0.7944336,-0.4649048,-0.40679932,-0.171875,1.0,0.0625
125,-0.7878418,-0.46881104,-0.4138794,-0.640625,1.390625,-0.03125
126,-0.79833984,-0.4590454,-0.4024048,-0.515625,1.09375,-0.15625
127,-0.7961426,-0.46954346,-0.4109497,-0.96875,2.078125,-0.171875
128,-0.80493164,-0.47003174,-0.4055786,-0.453125,1.515625,0.1875
129,-0.79467773,-0.4673462,-0.40338135,-0.203125,1.390625,0.0625
130,-0.7973633,-0.46832275,-0.40386963,-0.171875,0.765625,0.1875
131,-0.80249023,-0.4661255,-0.41119385,-0.15625,1.1875,0.0625
132,-0.79589844,-0.46417236,-0.4060669,-0.171875,1.15625,0.53125
133,-0.79541016,-0.46954346,-0.4036255,-0.03125,0.984375,0.484375
134,-0.7963867,-0.4680786,-0.4060669,-0.3125,1.1875,0.40625
135,-0.79907227,-0.46588135,-0.40826416,-0.421875,0.9375,0.515625
136,-0.7980957,-0.46661377,-0.40679932,-0.390625,1.484375,0.015625
137,-0.8022461,-0.46661377,-0.40679932,-0.328125,1.328125,-0.046875
138,-0.79174805,-0.4644165,-0.40118408,-0.328125,1.203125,0.265625
139,-0.78393555,-0.46832275,-0.4043579,-0.3125,1.515625,0.28125
140,-0.79589844,-0.46221924,-0.4036255,-0.296875,1.171875,0.359375
141,-0.79663086,-0.4644165,-0.40338135,-0.46875,0.984375,0.796875
142,-0.796875,-0.47564697,-0.40924072,-0.71875,1.3125,-0.015625
143,-0.7915039,-0.47027588,-0.40802002,-1.359375,1.828125,-0.640625
144,-0.7932129,-0.46514893,-0.39996338,-2.984375,4.921875,-2.359375
145,-0.79663086,-0.46783447,-0.39923096,-4.96875,5.9375,-3.328125
146,-0.8222656,-0.46417236,-0.3718872,-1.609375,4.015625,-2.796875
147,-0.8125,-0.4710083,-0.38580322,0.0625,1.4375,-1.515625
148,-0.8198242,-0.46368408,-0.3887329,0.03125,-0.09375,-0.578125
149,-0.8149414,-0.45684814,-0.38702393,0.703125,-0.90625,-0.1875
150,-0.81030273,-0.45440674,-0.38653564,0.546875,-0.5,-0.453125
151,-0.8066406,-0.46759033,-0.40142822,0.234375,-0.890625,0.15625
152,-0.81030273,-0.4590454,-0.40631104,0.78125,-2.140625,0.9375
153,-0.80371094,-0.45977783,-0.4060669,1.109375,-2.015625,1.375
154,-0.7988281,-0.46417236,-0.41412354,-0.109375,-1.453125,1.9375
155,-0.79956055,-0.45025635,-0.380188,1.25,-0.828125,2.109375
156,-0.7858887,-0.4673462,-0.41534424,1.546875,-2.9375,2.78125
157,-0.7819824,-0.458313,-0.42608643,-0.234375,2.3125,-0.421875
158,-0.8125,-0.46710205,-0.41461182,-1.078125,2.296875,0.234375
159,-0.8039551,-0.46954346,-0.41363525,-0.359375,1.453125,0.1875
160,-0.79541016,-0.46588135,-0.4121704,-0.203125,0.703125,0.078125
161,-0.79296875,-0.456604,-0.40924072,-0.375,0.859375,0.140625
162,-0.7873535,-0.45733643,-0.41558838,-0.640625,1.5,0.0625
163,-0.7932129,-0.45855713,-0.4024048,-0.65625,1.0,0.421875
164,-0.7956543,-0.46002197,-0.41119385,-0.4375,1.015625,0.25
165,-0.80029297,-0.4602661,-0.40753174,-0.09375,0.90625,0.734375
166,-0.79833984,-0.46221924,-0.41485596,-0.21875,0.71875,0.890625
167,-0.7939453,-0.46173096,-0.41241455,-0.5,0.96875,0.59375
168,-0.79589844,-0.4685669,-0.409729,-0.734375,1.71875,-0.09375
169,-0.798584,-0.46124268,-0.40875244,-0.921875,1.3125,0.28125
170,-0.7890625,-0.4619751,-0.4055786,-0.421875,1.109375,0.4375
171,-0.78881836,-0.4680786,-0.39874268,-0.46875,0.703125,0.734375
172,-0.7932129,-0.46246338,-0.4109497,-0.546875,1.515625,-0.015625
173,-0.7937012,-0.46636963,-0.40386963,-0.140625,0.3125,0.765625
174,-0.7988281,-0.4656372,-0.41290283,0.15625,1.078125,0.359375
175,-0.79589844,-0.47003174,-0.41436768,-0.484375,1.53125,0.046875
176,-0.7939453,-0.46124268,-0.40875244,-1.03125,1.578125,0.0625
177,-0.7910156,-0.472229,-0.4121704,-0.84375,0.9375,0.375
178,-0.7976074,-0.47027588,-0.4043579,-0.15625,0.859375,0.296875
179,-0.7980957,-0.46759033,-0.42144775,-0.484375,1.140625,-0.015625
180,-0.79345703,-0.46661377,-0.4060669,-0.4375,1.28125,0.078125
181,-0.8000488,-0.46905518,-0.40460205,-0.390625,1.171875,-0.078125
182,-0.7937012,-0.46759033,-0.40509033,-0.53125,1.21875,0.203125
183,-0.79663086,-0.46539307,-0.40679932,-0.3125,0.796875,0.203125
184,-0.7980957,-0.4727173,-0.41046143,-0.546875,0.921875,0.375
185,-0.79589844,-0.46881104,-0.40948486,-0.6875,1.515625,0.328125
186,-0.7890625,-0.46148682,-0.4031372,-0.140625,0.515625,0.609375
187,-0.7944336,-0.47149658,-0.41534424,-0.65625,1.015625,0.171875
188,-0.79052734,-0.47003174,-0.409729,-0.625,1.28125,-0.0625
189,-0.7878418,-0.46929932,-0.41656494,-0.828125,2.359375,-0.734375
190,-0.7824707,-0.4668579,-0.409729,-2.53125,3.59375,-1.71875
191,-0.79663086,-0.46051025,-0.38824463,-3.4375,7.09375,-3.71875
192,-0.82470703,-0.47540283,-0.39849854,-1.90625,3.171875,-2.0
193,-0.8117676,-0.46221924,-0.3862915,0.390625,1.84375,-1.3125
194,-0.8166504,-0.46710205,-0.3826294,0.71875,-0.78125,0.234375
195,-0.8039551,-0.45928955,-0.394104,0.921875,-0.5,-0.46875
196,-0.8066406,-0.4602661,-0.40338135,1.265625,-2.140625,0.671875
197,-0.8041992,-0.4631958,-0.4006958,0.078125,0.03125,0.453125
198,-0.79785156,-0.46661377,-0.4085083,-0.34375,-1.796875,1.625
199,-0.80737305,-0.4578247,-0.38238525,1.046875,-1.1875,2.359375
200,-0.7890625,-0.46710205,-0.41949463,1.671875,-3.40625,2.734375
201,-0.78222656,-0.47125244,-0.42559814,0.03125,1.5625,-0.046875
202,-0.8046875,-0.46636963,-0.42315674,-0.890625,1.625,0.171875
203,-0.80322266,-0.47369385,-0.4187622,-0.78125,0.859375,0.296875
204,-0.7919922,-0.46368408,-0.4031372,-0.1875,0.953125,0.296875
205,-0.7932129,-0.46759033,-0.4085083,0.03125,0.53125,0.3125
206,-0.78930664,-0.472229,-0.4187622,-0.203125,0.828125,0.125
207,-0.7927246,-0.4649048,-0.41412354,-0.53125,0.984375,0.265625
208,-0.7866211,-0.4727173,-0.41729736,-0.625,1.453125,0.0625
209,-0.79541016,-0.47296143,-0.4126587,-0.890625,1.078125,0.125
210,-0.79248047,-0.45977783,-0.40899658,-0.46875,0.78125,0.28125
211,-0.7944336,-0.46588135,-0.41607666,-0.34375,1.15625,0.09375
212,-0.7885742,-0.4649048,-0.40045166,-0.671875,1.796875,-0.03125
213,-0.7897949,-0.46783447,-0.4024048,-0.34375,0.890625,0.15625
214,-0.79467773,-0.4727173,-0.41119385,-0.46875,1.75,-0.09375
215,-0.79345703,-0.46002197,-0.40704346,-0.421875,0.78125,-0.03125
216,-0.7961426,-0.46466064,-0.41461182,-0.265625,0.640625,0.28125
217,-0.79589844,-0.46221924,-0.41046143,-0.359375,0.59375,0.46875
218,-0.7919922,-0.46929932,-0.41119385,-0.203125,1.34375,-0.046875
219,-0.79956055,-0.47174072,-0.41046143,-0.828125,1.4375,0.046875
220,-0.7919922,-0.46905518,-0.40777588,-0.3125,1.5625,0.0
221,-0.79125977,-0.4644165,-0.4138794,-0.609375,1.375,-0.0625
222,-0.7944336,-0.46661377,-0.39874268,-0.21875,1.0625,0.234375
223,-0.7919922,-0.46783447,-0.4138794,-0.125,0.5,0.46875
224,-0.798584,-0.46417236,-0.40899658,-0.25,1.25,0.109375
225,-0.7939453,-0.45928955,-0.40924072,-0.75,0.921875,0.40625
226,-0.7944336,-0.47125244,-0.41070557,-0.421875,1.15625,0.3125
227,-0.7988281,-0.47149658,-0.41778564,-0.390625,1.390625,-0.09375
228,-0.7976074,-0.47125244,-0.4126587,-0.5,0.765625,0.171875
229,-0.80126953,-0.47052002,-0.41168213,-0.03125,0.828125,0.109375
230,-0.7878418,-0.4685669,-0.4006958,-0.34375,0.890625,0.203125
231,-0.7927246,-0.4656372,-0.41363525,-0.84375,1.46875,0.03125
232,-0.7907715,-0.47174072,-0.40460205,-1.953125,3.359375,-1.09375
233,-0.7944336,-0.46832275,-0.40582275,-3.140625,4.5,-1.96875
234,-0.8149414,-0.46905518,-0.3953247,-1.75,4.359375,-2.0
235,-0.8105469,-0.47052002,-0.39678955,-0.328125,1.96875,-1.328125
236,-0.81103516,-0.46173096,-0.39483643,0.21875,0.296875,-0.25
237,-0.80981445,-0.4595337,-0.4031372,0.5625,0.0625,-0.25
238,-0.7956543,-0.45684814,-0.40167236,0.828125,-1.546875,0.640625
239,-0.8027344,-0.45562744,-0.4121704,0.1875,-1.140625,0.984375
240,-0.7937012,-0.4602661,-0.40386963,-0.5,-0.328125,1.375
241,-0.79907227,-0.46636963,-0.39727783,0.4375,-0.71875,1.859375
242,-0.7944336,-0.4727173,-0.4126587,1.421875,-3.15625,2.578125
243,-0.79541016,-0.46710205,-0.42315674,0.125,1.953125,-0.296875
244,-0.8027344,-0.46710205,-0.4151001,-1.109375,2.09375,-0.09375
245,-0.7963867,-0.47491455,-0.411438,-0.4375,1.546875,-0.140625
246,-0.7932129,-0.46710205,-0.4085083,-0.3125,1.0,0.0
247,-0.7932129,-0.46221924,-0.4031372,-0.40625,0.640625,0.25
248,-0.7922363,-0.46514893,-0.42022705,-0.375,0.34375,0.546875
249,-0.7902832,-0.4607544,-0.40704346,-0.625,0.984375,0.671875
250,-0.79345703,-0.4697876,-0.41314697,-0.203125,0.875,0.46875
251,-0.79711914,-0.46221924,-0.4192505,-0.265625,1.28125,-0.140625
252,-0.80078125,-0.47369385,-0.4133911,-0.265625,0.6875,0.171875
253,-0.8005371,-0.46710205,-0.41656494,-0.046875,2.34375,-0.40625
254,-0.7961426,-0.46588135,-0.40533447,-0.484375,1.59375,-0.171875
255,-0.79003906,-0.47076416,-0.40875244,-0.3125,0.90625,0.328125
256,-0.78881836,-0.46343994,-0.40802002,-0.484375,0.921875,0.15625
257,-0.7883301,-0.47296143,-0.4102173,-0.71875,0.953125,0.421875
258,-0.79418945,-0.46710205,-0.41656494,-0.359375,1.125,0.234375
259,-0.78881836,-0.47003174,-0.41485596,-0.28125,0.71875,0.375
260,-0.79345703,-0.4734497,-0.42144775,-0.28125,1.1875,0.109375
261,-0.79296875,-0.46832275,-0.40899658,-0.421875,1.3125,0.078125
262,-0.7895508,-0.46929932,-0.4060669,-0.234375,1.390625,0.0625
263,-0.78808594,-0.46881104,-0.40802002,-0.3125,1.15625,-0.0625
264,-0.79248047,-0.4631958,-0.41436768,-0.53125,0.984375,-0.03125
265,-0.79711914,-0.4668579,-0.40899658,-0.28125,0.984375,0.265625
266,-0.7980957,-0.4661255,-0.4109497,-0.5,1.765625,0.296875
267,-0.7956543,-0.472229,-0.41046143,-0.421875,1.0625,0.25
268,-0.796875,-0.46881104,-0.40753174,-0.328125,1.328125,-0.078125
269,-0.79541016,-0.4656372,-0.40704346,-0.46875,1.3125,-0.09375
270,-0.7944336,-0.46588135,-0.4085083,-0.4375,1.609375,0.171875
271,-0.79663086,-0.46636963,-0.40997314,-0.671875,1.234375,0.15625
272,-0.7895508,-0.46588135,-0.40118408,-0.296875,1.25,0.34375
273,-0.7944336,-0.47003174,-0.40655518,-0.21875,0.96875,0.421875
274,-0.7915039,-0.47125244,-0.40948486,-0.4375,1.15625,0.109375
275,-0.8000488,-0.47198486,-0.411438,-0.21875,0.8125,0.28125
276,-0.79541016,-0.4578247,-0.40826416,-0.390625,1.203125,0.1875
277,-0.79174805,-0.46270752,-0.4024048,-0.34375,0.8125,0.203125
278,-0.78759766,-0.4680786,-0.4199829,-0.234375,0.96875,0.125
279,-0.79125977,-0.4644165,-0.4055786,-0.6875,1.28125,0.421875
280,-0.7910156,-0.472229,-0.4024048,-0.40625,0.75,0.609375
281,-0.7883301,-0.473938,-0.40997314,-0.296875,1.53125,-0.109375
282,-0.79248047,-0.4656372,-0.4048462,-0.6875,1.75,0.125
283,-0.7910156,-0.46636963,-0.40386963,-0.53125,1.484375,0.015625
284,-0.79589844,-0.46710205,-0.40826416,-0.34375,1.421875,0.125
285,-0.8010254,-0.47076416,-0.41046143,-0.625,1.234375,0.078125
286,-0.79663086,-0.46636963,-0.40411377,0.046875,1.5,0.015625
287,-0.79711914,-0.46759033,-0.41534424,0.421875,1.4375,0.828125
288,-0.79785156,-0.46099854,-0.394104,0.109375,1.4375,0.453125
289,-0.79663086,-0.47174072,-0.40655518,-0.34375,1.171875,0.328125
290,-0.7988281,-0.46905518,-0.4055786,-0.3125,1.015625,0.28125
291,-0.798584,-0.46466064,-0.40802002,-0.25,0.84375,0.453125
292,-0.7949219,-0.46392822,-0.40631104,-0.28125,1.03125,0.484375
293,-0.79541016,-0.47442627,-0.41070557,-0.328125,0.703125,0.265625
294,-0.7944336,-0.46954346,-0.40386963,-0.265625,1.03125,-0.078125
295,-0.7932129,-0.46514893,-0.40826416,-0.4375,0.46875,0.171875
296,-0.798584,-0.47003174,-0.4036255,-0.3125,0.96875,0.125
297,-0.7895508,-0.46905518,-0.4121704,-0.328125,1.359375,-0.0625
298,-0.79711914,-0.46881104,-0.40899658,-0.5625,0.890625,0.09375
299,-0.79052734,-0.47003174,-0.4055786,-0.125,0.9375,0.078125
300,-0.79296875,-0.4746704,-0.40386963,-0.234375,1.109375,0.25
301,-0.78808594,-0.47076416,-0.41241455,-0.859375,2.046875,-0.234375
302,-0.79052734,-0.46636963,-0.40533447,-0.78125,1.625,0.234375
303,-0.7998047,-0.4710083,-0.40631104,-1.078125,1.828125,0.140625
304,-0.7919922,-0.46588135,-0.38970947,-0.25,1.703125,0.1875
305,-0.7922363,-0.4734497,-0.40924072,-0.484375,0.734375,0.3125
306,-0.79956055,-0.47198486,-0.40655518,-0.5625,1.640625,0.453125
307,-0.7988281,-0.46954346,-0.4055786,-0.109375,0.515625,0.78125
308,-0.78393555,-0.47076416,-0.40216064,-0.1875,0.984375,0.59375
309,-0.79003906,-0.46636963,-0.40045166,0.28125,0.453125,0.765625
310,-0.7939453,-0.4697876,-0.4048462,-0.203125,0.921875,0.390625
311,-0.79711914,-0.47613525,-0.40582275,-0.25,1.0,0.203125
312,-0.7973633,-0.47564697,-0.411438,-0.21875,1.234375,0.0625
313,-0.8010254,-0.46759033,-0.40020752,0.25,1.46875,0.171875
314,-0.79345703,-0.46832275,-0.3977661,-0.078125,0.859375,0.53125
315,-0.7993164,-0.4697876,-0.40655518,-0.328125,1.140625,0.375
316,-0.7956543,-0.4776001,-0.40118408,-0.21875,1.09375,0.15625
317,-0.79711914,-0.47149658,-0.395813,-0.21875,0.96875,0.171875
318,-0.7956543,-0.4734497,-0.40460205,-0.65625,0.796875,0.21875
319,-0.7944336,-0.47125244,-0.40167236,-0.59375,1.125,-0.0625
320,-0.79833984,-0.4776001,-0.41046143,-0.375,1.578125,-0.34375
321,-0.7944336,-0.46661377,-0.41192627,-0.578125,2.515625,-0.34375
322,-0.79174805,-0.47003174,-0.40338135,-0.703125,1.859375,0.171875
323,-0.7961426,-0.47540283,-0.39971924,-0.484375,1.359375,0.109375
324,-0.78930664,-0.47247314,-0.40338135,-0.578125,1.46875,0.265625
325,-0.7961426,-0.47076416,-0.4019165,-0.546875,1.546875,0.375
326,-0.79956055,-0.47027588,-0.39898682,-0.4375,1.4375,0.046875
327,-0.80200195,-0.47784424,-0.4019165,-0.15625,1.078125,0.328125
328,-0.79663086,-0.472229,-0.40631104,-0.21875,0.921875,0.28125
329,-0.79345703,-0.4697876,-0.39971924,-0.234375,1.1875,0.1875
330,-0.7932129,-0.4685669,-0.39483643,-0.359375,0.734375,0.421875
331,-0.7949219,-0.472229,-0.39752197,0.015625,1.34375,0.375
332,-0.7963867,-0.4746704,-0.40167236,-0.15625,0.984375,0.59375
333,-0.7963867,-0.47955322,-0.40118408,-0.296875,1.875,0.390625
334,-0.80493164,-0.47198486,-0.40093994,-0.15625,1.09375,0.328125
335,-0.7871094,-0.47857666,-0.4055786,-1.9375,2.53125,-0.90625
336,-0.78808594,-0.4661255,-0.3965454,-4.8125,5.96875,-3.515625
337,-0.82177734,-0.47076416,-0.37628174,-3.15625,4.109375,-2.359375
338,-0.81884766,-0.47296143,-0.3682251,0.453125,1.46875,-1.59375
339,-0.8120117,-0.47125244,-0.39019775,0.46875,-1.390625,0.71875
340,-0.8063965,-0.47003174,-0.38238525,1.390625,-1.59375,0.328125
341,-0.8034668,-0.46881104,-0.39312744,1.125,-2.4375,0.78125
342,-0.8015137,-0.4649048,-0.40777588,0.203125,-1.515625,1.40625
343,-0.79125977,-0.47174072,-0.39556885,-0.8125,0.015625,1.3125
344,-0.7939453,-0.4668579,-0.38409424,0.109375,0.359375,1.359375
345,-0.8000488,-0.4763794,-0.40167236,0.15625,-0.421875,1.328125
346,-0.79711914,-0.47979736,-0.40411377,0.578125,-1.375,1.59375
347,-0.7919922,-0.47784424,-0.411438,-0.28125,1.046875,0.515625
348,-0.7907715,-0.47857666,-0.39923096,-0.53125,1.4375,0.40625
349,-0.78515625,-0.4673462,-0.3970337,0.015625,1.046875,0.15625
350,-0.7939453,-0.47613525,-0.4031372,-0.34375,0.6875,0.625
351,-0.7949219,-0.47711182,-0.40338135,-0.375,0.53125,0.84375
352,-0.79418945,-0.4805298,-0.4048462,-0.28125,0.0,0.90625
353,-0.78930664,-0.4837036,-0.4060669,-0.21875,0.203125,1.046875
354,-0.78686523,-0.48077393,-0.41168213,-0.484375,0.75,0.09375
355,-0.782959,-0.47735596,-0.4133911,-1.296875,2.390625,-1.0
356,-0.7807617,-0.46881104,-0.40338135,-3.015625,5.65625,-2.890625
357,-0.8076172,-0.47833252,-0.38482666,-3.625,6.953125,-3.734375
358,-0.8144531,-0.4668579,-0.37823486,-0.515625,1.90625,-1.640625
359,-0.8220215,-0.47686768,-0.3875122,0.765625,0.28125,-0.6875
360,-0.8120117,-0.472229,-0.39337158,1.015625,-1.03125,-0.296875
361,-0.8000488,-0.46343994,-0.39678955,1.265625,-1.78125,0.40625
362,-0.79663086,-0.46295166,-0.40142822,1.015625,-1.765625,0.984375
363,-0.80322266,-0.4668579,-0.40826416,0.109375,-2.078125,2.25
364,-0.78344727,-0.46417236,-0.38189697,0.53125,-0.734375,2.46875
365,-0.7858887,-0.47369385,-0.41485596,1.359375,-3.421875,2.6875
366,-0.77734375,-0.48321533,-0.43658447,0.0,1.734375,-0.203125
367,-0.8017578,-0.46783447,-0.41070557,-0.734375,1.515625,0.203125
368,-0.7919922,-0.4805298,-0.4133911,-0.65625,1.828125,0.03125
369,-0.79174805,-0.46881104,-0.4048462,-0.15625,1.609375,-0.21875
370,-0.7885742,-0.46954346,-0.4072876,-0.234375,0.765625,0.484375
371,-0.78515625,-0.4656372,-0.40753174,-0.25,0.765625,0.078125
372,-0.78637695,-0.47296143,-0.4109497,-0.40625,1.46875,0.109375
373,-0.79125977,-0.4751587,-0.41241455,-0.34375,0.9375,0.15625
374,-0.7949219,-0.4776001,-0.4199829,-0.546875,1.578125,0.015625
375,-0.78564453,-0.46759033,-0.41046143,-0.203125,0.796875,0.125
376,-0.7902832,-0.46929932,-0.41241455,0.171875,0.28125,0.28125
377,-0.7858887,-0.47076416,-0.41461182,-0.09375,1.078125,-0.03125
378,-0.79052734,-0.46710205,-0.41046143,-0.609375,1.515625,-0.015625
379,-0.79589844,-0.47613525,-0.4060669,-0.625,0.859375,0.453125
380,-0.79125977,-0.4710083,-0.4036255,-0.3125,1.484375,0.15625
381,-0.78808594,-0.47955322,-0.40875244,-0.9375,1.125,0.5
382,-0.7932129,-0.47149658,-0.40826416,-0.1875,0.953125,0.296875
383,-0.79125977,-0.47784424,-0.41656494,-0.1875,0.671875,0.3125
384,-0.78759766,-0.4734497,-0.40899658,-0.125,1.34375,0.0
385,-0.7844238,-0.47808838,-0.4109497,-0.03125,0.8125,0.234375
386,-0.7866211,-0.4746704,-0.41412354,-0.203125,0.65625,0.265625
387,-0.7885742,-0.4763794,-0.40704346,-0.40625,1.34375,0.265625
388,-0.79296875,-0.47613525,-0.4187622,-0.8125,1.328125,0.171875
389,-0.7849121,-0.48077393,-0.41607666,-0.8125,0.703125,0.34375
390,-0.78930664,-0.46905518,-0.40460205,-0.140625,0.96875,-0.015625
391,-0.7861328,-0.4788208,-0.4216919,-0.75,1.859375,-0.328125
392,-0.7763672,-0.47320557,-0.41314697,-2.40625,3.578125,-1.703125
393,-0.78881836,-0.47174072,-0.38897705,-3.65625,7.125,-3.78125
394,-0.8183594,-0.4751587,-0.3965454,-0.640625,2.90625,-2.234375
395,-0.8173828,-0.47052002,-0.39337158,0.9375,0.328125,-0.40625
396,-0.798584,-0.46051025,-0.3994751,0.78125,-0.765625,0.484375
397,-0.7976074,-0.4619751,-0.39923096,0.828125,-0.796875,0.640625
398,-0.7907715,-0.46783447,-0.41070557,0.0,-1.65625,1.71875
399,-0.7878418,-0.46661377,-0.39678955,0.015625,-0.796875,1.703125
400,-0.79174805,-0.47711182,-0.40704346,0.421875,-2.265625,2.78125
401,-0.7766113,-0.47808838,-0.4187622,0.96875,-0.640625,0.828125
402,-0.7922363,-0.4697876,-0.42266846,-0.0625,0.84375,0.15625
403,-0.79711914,-0.4746704,-0.42144775,-0.609375,1.890625,-0.09375
404,-0.7910156,-0.4788208,-0.40509033,-0.625,2.015625,-0.21875
405,-0.78637695,-0.46881104,-0.41168213,-0.109375,1.125,0.15625
406,-0.77978516,-0.4649048,-0.40338135,-0.265625,1.15625,-0.15625
407,-0.7883301,-0.4697876,-0.4060669,-0.265625,0.8125,0.390625
408,-0.7878418,-0.47564697,-0.4187622,-0.5625,1.265625,0.4375
409,-0.78930664,-0.4746704,-0.4192505,-0.328125,0.265625,0.734375
410,-0.7919922,-0.47003174,-0.41558838,-0.1875,1.453125,-0.1875
411,-0.795166,-0.473938,-0.42095947,-0.609375,1.390625,0.0
412,-0.78564453,-0.46710205,-0.41680908,-0.578125,2.21875,-0.140625
413,-0.7883301,-0.47979736,-0.41363525,-0.484375,1.453125,0.09375
414,-0.78686523,-0.47125244,-0.40679932,-0.5,1.28125,0.1875
415,-0.7800293,-0.46929932,-0.40875244,-0.09375,0.5,0.390625
416,-0.796875,-0.4763794,-0.4138794,-0.265625,0.375,0.65625
417,-0.7844238,-0.47906494,-0.4187622,-0.078125,-0.09375,0.65625
418,-0.7883301,-0.47540283,-0.4212036,-0.078125,1.03125,-0.140625
419,-0.78881836,-0.473938,-0.4133911,-0.34375,1.015625,0.109375
420,-0.7861328,-0.47198486,-0.41192627,-0.609375,1.46875,0.3125
421,-0.7841797,-0.47979736,-0.4163208,-0.578125,1.296875,0.265625
422,-0.7885742,-0.4776001,-0.41583252,-0.578125,0.859375,0.375
423,-0.78759766,-0.47857666,-0.4151001,-0.46875,0.90625,0.40625
424,-0.79052734,-0.47784424,-0.41314697,-0.5,0.96875,0.25
425,-0.79418945,-0.4727173,-0.4212036,-0.640625,1.265625,0.015625
426,-0.7817383,-0.47686768,-0.40802002,-0.640625,1.3125,0.09375
427,-0.78515625,-0.4697876,-0.40826416,-0.265625,1.34375,0.046875
428,-0.7841797,-0.47735596,-0.41192627,-0.421875,1.109375,0.359375
429,-0.7841797,-0.47784424,-0.41583252,-0.390625,1.4375,0.09375
430,-0.7902832,-0.4812622,-0.4138794,-0.65625,1.5625,0.03125
431,-0.7885742,-0.48492432,-0.41168213,-0.625,1.75,-0.109375
432,-0.7883301,-0.4829712,-0.4109497,-0.375,0.546875,0.28125
433,-0.78930664,-0.48028564,-0.41778564,-0.40625,0.6875,0.25
434,-0.78100586,-0.47833252,-0.409729,-0.34375,0.84375,0.46875
435,-0.7819824,-0.4710083,-0.40777588,-0.28125,0.671875,0.140625
436,-0.7824707,-0.4734497,-0.40704346,0.0,0.40625,0.40625
437,-0.78393555,-0.48150635,-0.41583252,-0.546875,1.078125,0.359375
438,-0.7890625,-0.48394775,-0.42315674,-0.640625,0.796875,0.3125
439,-0.7949219,-0.4805298,-0.4126587,-0.453125,1.125,0.609375
440,-0.7878418,-0.47930908,-0.40655518,-0.203125,1.28125,0.09375
441,-0.77978516,-0.47979736,-0.40802002,-0.125,1.265625,-0.140625
442,-0.7849121,-0.47540283,-0.40875244,-0.359375,1.171875,0.0
443,-0.7885742,-0.47979736,-0.41485596,-0.546875,1.75,0.046875
444,-0.7895508,-0.47296143,-0.41827393,-0.796875,0.59375,0.4375
445,-0.7866211,-0.48150635,-0.40802002,-0.015625,1.03125,0.203125
446,-0.7890625,-0.4812622,-0.4133911,-0.421875,0.9375,0.296875
447,-0.77978516,-0.47930908,-0.41046143,-0.234375,1.203125,0.125
448,-0.78686523,-0.47613525,-0.41119385,-0.71875,1.265625,0.15625
449,-0.79248047,-0.4727173,-0.4019165,-0.453125,1.59375,0.03125
450,-0.7854004,-0.48028564,-0.41314697,-0.328125,0.984375,0.234375
451,-0.7922363,-0.4746704,-0.4036255,-0.4375,1.265625,0.296875
452,-0.78515625,-0.4817505,-0.4138794,-0.296875,0.859375,0.328125
453,-0.7902832,-0.4763794,-0.40655518,-0.171875,1.015625,0.0625
454,-0.7866211,-0.48272705,-0.4151001,-0.203125,0.65625,0.3125
455,-0.7878418,-0.48028564,-0.41290283,-0.28125,1.265625,0.0625
456,-0.7878418,-0.47711182,-0.40704346,-0.40625,0.96875,0.265625
457,-0.7910156,-0.47711182,-0.40631104,-0.4375,1.0625,0.203125
458,-0.79003906,-0.4776001,-0.41168213,-0.125,1.171875,0.046875
459,-0.7832031,-0.47808838,-0.41705322,-0.84375,1.0625,-0.03125
460,-0.7866211,-0.48516846,-0.4072876,-0.4375,1.1875,0.25
461,-0.7871094,-0.47955322,-0.41436768,-0.625,1.421875,0.203125
462,-0.7858887,-0.47784424,-0.4133911,-0.6875,1.109375,-0.03125
463,-0.7897949,-0.4788208,-0.40386963,-0.125,1.375,-0.234375
464,-0.7902832,-0.4883423,-0.41436768,-0.671875,1.03125,0.21875
465,-0.78686523,-0.47955322,-0.41436768,-0.671875,1.296875,0.15625
466,-0.78515625,-0.48077393,-0.41192627,-0.546875,1.234375,0.03125
467,-0.78759766,-0.48199463,-0.40679932,-0.1875,0.890625,0.25
468,-0.7883301,-0.47808838,-0.40948486,0.15625,0.359375,0.53125
469,-0.7885742,-0.4800415,-0.40753174,-0.09375,0.84375,0.421875
470,-0.7854004,-0.48492432,-0.4121704,-0.296875,0.71875,0.078125
471,-0.78125,-0.48394775,-0.41558838,-0.296875,1.09375,0.265625
472,-0.7841797,-0.48223877,-0.40509033,-0.265625,0.390625,0.5625
473,-0.79052734,-0.48077393,-0.41363525,-0.375,1.125,0.109375
474,-0.78686523,-0.4824829,-0.41412354,-0.296875,1.1875,-0.015625
475,-0.7890625,-0.4776001,-0.40460205,-0.453125,1.609375,0.15625
476,-0.78686523,-0.4854126,-0.4138794,-0.515625,1.1875,0.0
477,-0.7866211,-0.47955322,-0.4133911,-0.46875,0.875,0.078125
478,-0.7897949,-0.47735596,-0.40118408,-0.15625,1.484375,0.09375
479,-0.7841797,-0.4800415,-0.41070557,-0.578125,1.671875,0.140625
480,-0.78637695,-0.4841919,-0.40924072,-0.4375,2.046875,0.703125
481,-0.7832031,-0.4841919,-0.39971924,0.1875,2.484375,1.203125
482,-0.7902832,-0.4800415,-0.4036255,-0.09375,1.046875,0.515625
483,-0.78686523,-0.48858643,-0.41119385,-0.390625,1.15625,0.453125
484,-0.7878418,-0.4854126,-0.4036255,-0.265625,1.765625,0.125
485,-0.7873535,-0.47833252,-0.40264893,-0.1875,1.15625,0.328125
486,-0.7849121,-0.48321533,-0.41168213,-0.03125,1.03125,0.328125
487,-0.7883301,-0.48687744,-0.40777588,-0.234375,1.03125,0.421875
488,-0.78271484,-0.48809814,-0.40386963,-0.46875,1.3125,0.484375
489,-0.77856445,-0.4866333,-0.40948486,0.015625,1.484375,0.5625
490,-0.7824707,-0.4883423,-0.40289307,0.296875,0.984375,0.84375
491,-0.7919922,-0.48272705,-0.4138794,-0.21875,1.578125,0.09375
492,-0.7866211,-0.489563,-0.4036255,0.109375,1.609375,0.265625
493,-0.78930664,-0.487854,-0.40216064,0.28125,1.734375,0.046875
494,-0.7907715,-0.48150635,-0.40899658,0.046875,1.28125,-0.265625
495,-0.78393555,-0.47955322,-0.411438,-0.578125,1.84375,-0.21875
496,-0.7949219,-0.4758911,-0.39605713,-0.078125,2.125,0.34375
497,-0.7861328,-0.48223877,-0.4043579,-0.1875,2.65625,0.859375
498,-0.78808594,-0.47930908,-0.40264893,0.390625,1.78125,1.0
499,-0.7932129,-0.48394775,-0.39434814,0.03125,1.453125,0.109375
500,-0.79248047,-0.48590088,-0.40924072,0.140625,1.328125,0.4375
501,-0.7927246,-0.48223877,-0.4019165,0.078125,1.6875,0.15625
502,-0.7961426,-0.48223877,-0.3945923,0.03125,1.671875,0.390625
503,-0.7871094,-0.4824829,-0.39556885,0.234375,1.875,0.234375
504,-0.78881836,-0.48565674,-0.4031372,0.015625,0.84375,0.453125
505,-0.7949219,-0.4854126,-0.3965454,-0.203125,1.5625,0.0
506,-0.79418945,-0.487854,-0.40411377,-0.25,1.28125,0.34375
507,-0.7878418,-0.4758911,-0.4036255,-0.140625,1.53125,0.125
508,-0.7824707,-0.4829712,-0.3928833,0.359375,1.0625,0.375
509,-0.78881836,-0.4763794,-0.40582275,0.265625,2.171875,0.203125
510,-0.7866211,-0.48150635,-0.3945923,0.78125,1.453125,0.34375
511,-0.7902832,-0.4829712,-0.40142822,0.203125,1.3125,-0.046875
512,-0.7858887,-0.47808838,-0.40093994,-1.921875,3.25,-1.734375
513,-0.78149414,-0.47857666,-0.39508057,-5.796875,6.0625,-4.796875
514,-0.82470703,-0.4734497,-0.37921143,-1.265625,1.84375,-2.875
515,-0.795166,-0.48223877,-0.39312744,-1.3125,0.625,-1.609375
516,-0.8063965,-0.47198486,-0.37091064,-1.625,-0.1875,-2.21875
517,-0.79589844,-0.47955322,-0.38580322,-1.859375,0.5625,-2.65625
518,-0.8198242,-0.47906494,-0.39727783,-1.0625,-1.421875,-2.453125
519,-0.81396484,-0.46881104,-0.39971924,0.140625,-2.03125,-0.9375
520,-0.80737305,-0.47052002,-0.39605713,1.46875,-2.515625,0.53125
521,-0.7961426,-0.4685669,-0.40289307,1.234375,-3.828125,1.578125
522,-0.7907715,-0.456604,-0.4024048,0.234375,-1.984375,1.65625
523,-0.79345703,-0.46588135,-0.3982544,0.0,-0.859375,2.578125
524,-0.7919922,-0.4841919,-0.41680908,1.21875,-2.703125,3.09375
525,-0.78515625,-0.47296143,-0.42388916,0.078125,0.84375,0.3125
526,-0.79663086,-0.47613525,-0.4199829,-0.65625,1.171875,0.40625
527,-0.7937012,-0.47369385,-0.41534424,-0.3125,1.515625,0.171875
528,-0.78881836,-0.47149658,-0.40338135,0.015625,0.609375,0.3125
529,-0.78637695,-0.47052002,-0.41046143,0.078125,0.96875,0.0625
530,-0.78686523,-0.47052002,-0.4043579,-0.140625,1.0625,-0.046875
531,-0.7844238,-0.47930908,-0.4126587,-0.28125,0.90625,0.265625
532,-0.7858887,-0.47174072,-0.41607666,-0.734375,1.109375,0.421875
533,-0.7885742,-0.47808838,-0.41607666,-0.40625,0.78125,0.453125
534,-0.78808594,-0.4817505,-0.42218018,-0.15625,0.921875,0.109375
535,-0.78686523,-0.48150635,-0.4187622,-0.609375,1.515625,0.125
536,-0.7871094,-0.47613525,-0.4102173,-0.609375,1.53125,0.34375
537,-0.7858887,-0.4751587,-0.40899658,-0.28125,0.859375,0.453125
538,-0.78515625,-0.4697876,-0.40460205,0.15625,0.609375,0.515625
539,-0.7910156,-0.47442627,-0.40899658,-0.234375,0.5625,0.609375
540,-0.7885742,-0.47784424,-0.4163208,-0.265625,1.078125,0.46875
541,-0.78393555,-0.48101807,-0.41973877,-0.34375,1.015625,0.0625
542,-0.7819824,-0.47369385,-0.41363525,-0.1875,1.328125,0.09375
543,-0.78271484,-0.47198486,-0.41119385,-0.25,1.28125,0.28125
544,-0.7824707,-0.47808838,-0.41680908,-0.5,1.265625,0.015625
545,-0.7780762,-0.47149658,-0.41680908,-0.25,1.0,0.09375
546,-0.7902832,-0.4788208,-0.41412354,-0.453125,1.078125,0.21875
547,-0.7907715,-0.4763794,-0.41168213,-0.453125,1.71875,-0.25
548,-0.79541016,-0.4763794,-0.41900635,-0.234375,0.96875,0.28125
549,-0.78466797,-0.47564697,-0.40948486,-0.640625,2.15625,-0.171875
550,-0.7841797,-0.47320557,-0.4151001,-0.484375,1.078125,0.515625
551,-0.7817383,-0.47247314,-0.41827393,-0.328125,0.796875,0.234375
552,-0.7734375,-0.48101807,-0.41851807,-1.46875,2.140625,-0.515625
553,-0.7805176,-0.4746704,-0.4019165,-4.3125,6.71875,-3.65625
554,-0.82006836,-0.48590088,-0.39239502,-3.125,5.65625,-2.34375
555,-0.80981445,-0.47027588,-0.39483643,0.71875,-0.484375,-0.140625
556,-0.7998047,-0.47369385,-0.39849854,1.28125,-1.671875,0.828125
557,-0.78564453,-0.46368408,-0.40386963,0.859375,-1.328125,0.921875
558,-0.7878418,-0.4697876,-0.39874268,0.109375,-0.0625,0.984375
559,-0.7805176,-0.46221924,-0.39971924,0.171875,-0.71875,1.890625
560,-0.79541016,-0.48028564,-0.41241455,0.75,-1.203125,1.890625
561,-0.7907715,-0.4776001,-0.4126587,0.0625,-0.296875,1.109375
562,-0.78393555,-0.48565674,-0.4282837,-0.046875,0.3125,0.34375
563,-0.7961426,-0.4734497,-0.42340088,-0.484375,1.21875,0.265625
564,-0.7824707,-0.4776001,-0.40704346,-0.28125,1.828125,-0.078125
565,-0.7807617,-0.46246338,-0.41192627,-0.265625,1.1875,0.328125
566,-0.7783203,-0.4727173,-0.39923096,-0.140625,0.796875,0.5625
567,-0.7819824,-0.47247314,-0.4121704,-0.296875,0.625,0.25
568,-0.78808594,-0.47906494,-0.42144775,-0.703125,1.078125,0.453125
569,-0.78930664,-0.4800415,-0.4204712,-1.109375,1.9375,0.234375
570,-0.77734375,-0.48199463,-0.40875244,-0.4375,0.8125,0.234375
571,-0.78637695,-0.48101807,-0.40997314,0.015625,1.015625,0.265625
572,-0.782959,-0.47662354,-0.4204712,-0.09375,0.765625,0.234375
573,-0.7871094,-0.4758911,-0.40948486,-0.65625,1.1875,0.375
574,-0.78466797,-0.4751587,-0.41729736,-0.65625,0.515625,0.59375
575,-0.78637695,-0.4902954,-0.41607666,-0.59375,1.046875,0.265625
576,-0.7858887,-0.47564697,-0.40899658,-0.28125,0.734375,0.421875
577,-0.7832031,-0.47979736,-0.4199829,-0.28125,0.90625,0.390625
578,-0.7866211,-0.47979736,-0.41949463,-0.1875,0.8125,0.3125
579,-0.78100586,-0.48443604,-0.41534424,-0.296875,0.34375,0.6875
580,-0.782959,-0.47833252,-0.409729,-0.046875,1.015625,0.0625
581,-0.7788086,-0.4776001,-0.41412354,-0.6875,1.390625,-0.375
582,-0.7883301,-0.4763794,-0.41534424,-0.734375,1.28125,-0.015625
583,-0.78466797,-0.48223877,-0.4133911,-0.46875,1.65625,-0.015625
584,-0.7890625,-0.4758911,-0.41290283,-0.453125,0.9375,0.28125
585,-0.78466797,-0.4763794,-0.4175415,-0.421875,1.0625,0.0625
586,-0.7819824,-0.47930908,-0.41485596,-0.53125,1.359375,0.265625
587,-0.78686523,-0.48028564,-0.40802002,-0.4375,1.0625,0.171875
588,-0.7800293,-0.48272705,-0.4192505,-0.5,0.96875,0.140625
589,-0.78808594,-0.48321533,-0.4204712,-0.34375,0.546875,0.609375
590,-0.78393555,-0.48687744,-0.41119385,-0.140625,0.53125,0.4375
591,-0.7819824,-0.4824829,-0.4138794,-0.5,1.125,0.125
592,-0.78027344,-0.48272705,-0.40924072,-0.546875,1.03125,0.0625
593,-0.7915039,-0.47930908,-0.41827393,-0.3125,0.921875,0.03125
594,-0.7792969,-0.47979736,-0.4199829,-0.25,1.203125,0.015625
595,-0.78515625,-0.48809814,-0.4126587,-0.53125,1.328125,0.5
596,-0.7819824,-0.47833252,-0.40679932,-0.34375,0.953125,0.625
597,-0.7858887,-0.47857666,-0.41461182,-0.390625,0.90625,0.328125
598,-0.78125,-0.48687744,-0.41436768,-0.21875,0.75,-0.171875
599,-0.7854004,-0.4763794,-0.41656494,-0.265625,1.0,-0.03125
600,-0.78222656,-0.47564697,-0.42388916,-0.6875,2.046875,-0.046875
601,-0.77685547,-0.4837036,-0.4031372,-0.796875,1.21875,0.359375
602,-0.7800293,-0.4812622,-0.41314697,-0.28125,1.375,0.046875
603,-0.78637695,-0.47662354,-0.4102173,-0.53125,1.734375,0.109375
604,-0.78930664,-0.47857666,-0.4151001,-0.65625,1.296875,0.265625
605,-0.7841797,-0.48687744,-0.4109497,-0.21875,1.484375,0.375
606,-0.7919922,-0.48883057,-0.40753174,-0.21875,0.8125,0.375
607,-0.7824707,-0.47979736,-0.4055786,0.046875,0.484375,0.375
608,-0.7783203,-0.47955322,-0.41192627,-0.25,0.984375,0.546875
609,-0.7780762,-0.4883423,-0.40631104,0.078125,0.921875,0.234375
610,-0.7841797,-0.48565674,-0.41119385,-0.109375,0.71875,0.15625
611,-0.7841797,-0.48736572,-0.41070557,0.0,0.640625,0.25
612,-0.7824707,-0.4841919,-0.41778564,-0.59375,1.453125,0.0
613,-0.7807617,-0.4824829,-0.4102173,-0.453125,1.546875,-0.203125
614,-0.7890625,-0.47784424,-0.40997314,-0.25,1.296875,-0.34375
615,-0.7844238,-0.48614502,-0.41119385,-0.359375,0.71875,0.1875
616,-0.78100586,-0.4837036,-0.40777588,-0.21875,0.625,0.359375
617,-0.7871094,-0.4824829,-0.4109497,-0.96875,1.875,-0.171875
618,-0.7858887,-0.48223877,-0.409729,-0.953125,1.734375,0.1875
619,-0.78344727,-0.4866333,-0.4102173,-0.015625,1.359375,-0.09375
620,-0.78686523,-0.48345947,-0.41705322,-0.046875,1.4375,-0.15625
621,-0.7873535,-0.48443604,-0.41290283,-0.09375,2.265625,-0.21875
622,-0.7866211,-0.47979736,-0.4043579,-0.0625,1.8125,0.015625
623,-0.78808594,-0.47662354,-0.40118408,0.015625,1.6875,0.15625
624,-0.7854004,-0.487854,-0.41192627,-0.40625,1.65625,0.203125
625,-0.7854004,-0.47930908,-0.40289307,-0.203125,1.0625,0.65625
626,-0.78564453,-0.48028564,-0.40753174,-0.53125,1.171875,0.421875
627,-0.7844238,-0.47711182,-0.40899658,-0.515625,0.96875,0.84375
628,-0.78466797,-0.48321533,-0.41412354,0.03125,1.75,0.390625
629,-0.78881836,-0.47808838,-0.39215088,0.765625,1.28125,0.75
630,-0.7910156,-0.4817505,-0.41119385,-0.421875,1.359375,0.0
631,-0.78759766,-0.47833252,-0.40631104,-0.1875,1.421875,-0.015625
632,-0.79345703,-0.48443604,-0.39996338,-0.0625,1.328125,0.140625
633,-0.79052734,-0.47979736,-0.40020752,-0.078125,1.25,0.203125
634,-0.7858887,-0.48199463,-0.41046143,-1.21875,2.09375,-0.828125
635,-0.7871094,-0.47784424,-0.40020752,-2.78125,4.515625,-2.21875
636,-0.79663086,-0.47979736,-0.395813,-1.0,2.1875,-1.640625
637,-0.7932129,-0.4837036,-0.3970337,-0.875,3.0,-1.96875
638,-0.80078125,-0.46929932,-0.38897705,-1.328125,0.484375,-0.921875
639,-0.8015137,-0.46905518,-0.38970947,-0.421875,0.8125,-1.34375
640,-0.79467773,-0.47125244,-0.39019775,-1.1875,0.65625,-1.859375
641,-0.8027344,-0.47930908,-0.40264893,-0.75,-1.046875,-0.078125
642,-0.80566406,-0.47613525,-0.39678955,0.796875,-1.375,0.546875
643,-0.7949219,-0.47369385,-0.39215088,1.140625,-2.625,1.3125
644,-0.78881836,-0.47906494,-0.42486572,0.390625,-2.609375,1.515625
645,-0.7885742,-0.47052002,-0.39630127,0.09375,-0.640625,1.84375
646,-0.7780762,-0.47930908,-0.39971924,0.671875,-0.78125,2.078125
647,-0.78808594,-0.47833252,-0.42388916,1.21875,-1.625,1.875
648,-0.77441406,-0.48101807,-0.43341064,-0.265625,1.375,-0.203125
649,-0.7819824,-0.4812622,-0.4212036,-0.703125,1.65625,0.40625
650,-0.79541016,-0.47955322,-0.41192627,-0.453125,0.9375,0.28125
651,-0.7836914,-0.47491455,-0.41314697,0.0625,0.546875,0.4375
652,-0.7746582,-0.47418213,-0.41436768,-0.359375,0.6875,0.40625
653,-0.7770996,-0.47662354,-0.41241455,-0.296875,0.984375,0.171875
654,-0.7770996,-0.48223877,-0.4192505,-0.6875,1.03125,0.46875
655,-0.77905273,-0.48468018,-0.41949463,-0.875,0.71875,0.390625
656,-0.7883301,-0.48638916,-0.41900635,0.28125,0.53125,0.265625
657,-0.7800293,-0.47930908,-0.4187622,-0.25,0.890625,0.109375
658,-0.7770996,-0.48345947,-0.42364502,-0.34375,1.140625,0.046875
659,-0.7783203,-0.4837036,-0.42315674,-0.4375,1.640625,-0.1875
660,-0.7780762,-0.47540283,-0.41070557,-0.171875,0.9375,0.3125
661,-0.77563477,-0.4837036,-0.40924072,-0.40625,0.875,0.578125
662,-0.7832031,-0.4829712,-0.42095947,-0.65625,0.859375,0.71875
663,-0.78027344,-0.49224854,-0.4216919,-0.109375,0.359375,0.609375
664,-0.7854004,-0.48077393,-0.42071533,-0.078125,0.921875,0.03125
665,-0.78271484,-0.47540283,-0.4229126,-0.296875,1.0625,0.421875
666,-0.77612305,-0.48272705,-0.4192505,-0.46875,1.125,0.171875
667,-0.7780762,-0.47979736,-0.41534424,-0.546875,1.03125,0.546875
668,-0.7836914,-0.47906494,-0.42974854,-0.46875,0.8125,0.484375
669,-0.7685547,-0.48272705,-0.4180298,-0.234375,1.53125,-0.1875
670,-0.77734375,-0.4890747,-0.41168213,-0.5,1.171875,0.109375
671,-0.78271484,-0.4890747,-0.42559814,-0.546875,2.34375,-0.296875
672,-0.77490234,-0.4866333,-0.4175415,-0.453125,1.21875,0.03125
673,-0.78759766,-0.47076416,-0.4175415,-0.078125,1.0,0.109375
674,-0.7817383,-0.48150635,-0.4187622,-0.09375,1.234375,0.234375
675,-0.779541,-0.47808838,-0.4138794,-0.53125,1.171875,0.140625
676,-0.77490234,-0.4837036,-0.42071533,-0.625,1.03125,0.1875
677,-0.7824707,-0.4758911,-0.40582275,-0.25,1.25,0.109375
678,-0.7775879,-0.4817505,-0.41656494,-0.609375,1.0,0.3125
679,-0.78222656,-0.47711182,-0.4109497,-0.546875,1.78125,0.203125
680,-0.77856445,-0.48468018,-0.41778564,-0.265625,0.828125,0.265625
681,-0.77856445,-0.48883057,-0.41900635,-0.1875,0.828125,0.109375
682,-0.78271484,-0.4788208,-0.41778564,-0.0625,0.890625,-0.078125
683,-0.7766113,-0.4841919,-0.42266846,-0.328125,1.140625,-0.015625
684,-0.77246094,-0.48638916,-0.41949463,-0.4375,1.375,-0.03125
685,-0.78222656,-0.49005127,-0.4138794,-0.5,0.5625,0.4375
686,-0.7824707,-0.48516846,-0.42437744,-0.25,1.109375,0.4375
687,-0.78125,-0.487854,-0.4307251,-0.703125,1.6875,0.046875
688,-0.7783203,-0.48492432,-0.4180298,-0.4375,1.140625,0.15625
689,-0.7844238,-0.4841919,-0.40753174,-0.234375,1.734375,-0.125
690,-0.7709961,-0.48883057,-0.41851807,-0.46875,0.9375,0.234375
691,-0.7819824,-0.4854126,-0.41558838,-0.390625,0.890625,0.171875
692,-0.7792969,-0.4883423,-0.41949463,-0.28125,1.203125,-0.015625
693,-0.77856445,-0.48590088,-0.41949463,-0.21875,1.234375,-0.109375
694,-0.78222656,-0.48394775,-0.41363525,-0.265625,1.625,-0.0625
695,-0.78564453,-0.47784424,-0.41900635,-0.4375,1.125,0.296875
696,-0.7817383,-0.48223877,-0.41046143,-0.625,1.203125,0.21875
697,-0.77734375,-0.48590088,-0.41705322,-0.296875,1.328125,0.484375
698,-0.7800293,-0.48614502,-0.41241455,-0.296875,1.125,0.15625
699,-0.7807617,-0.48394775,-0.41314697,0.09375,1.5,0.234375
700,-0.779541,-0.48223877,-0.41558838,-0.390625,1.484375,0.171875
701,-0.779541,-0.48468018,-0.41412354,0.09375,1.484375,0.046875
702,-0.7805176,-0.48443604,-0.42266846,-0.703125,1.890625,0.046875
703,-0.7854004,-0.47564697,-0.4085083,-0.4375,1.828125,0.4375
704,-0.78466797,-0.48394775,-0.4024048,-0.09375,1.765625,0.0625
705,-0.78808594,-0.4883423,-0.4204712,-0.4375,1.96875,-0.328125
706,-0.78393555,-0.48223877,-0.4060669,-0.234375,1.78125,-0.15625
707,-0.78564453,-0.48468018,-0.4151001,-0.28125,2.421875,0.046875
708,-0.78344727,-0.48443604,-0.40924072,-0.40625,1.1875,-0.015625
709,-0.7824707,-0.48590088,-0.41046143,-0.078125,1.546875,-0.125
710,-0.782959,-0.47857666,-0.40679932,-0.265625,1.3125,0.078125
711,-0.7819824,-0.4837036,-0.4102173,-0.09375,2.0,0.390625
712,-0.7858887,-0.48516846,-0.4031372,-0.328125,1.84375,0.484375
713,-0.79296875,-0.48565674,-0.41729736,0.265625,1.1875,0.640625
714,-0.79052734,-0.48223877,-0.4151001,1.546875,2.140625,1.046875
715,-0.78393555,-0.4763794,-0.4024048,0.40625,1.703125,0.453125
716,-0.78393555,-0.48443604,-0.4043579,0.3125,1.765625,0.34375
717,-0.7844238,-0.47857666,-0.40045166,0.609375,1.625,0.3125
718,-0.7861328,-0.48468018,-0.4133911,-0.15625,1.359375,0.28125
719,-0.7832031,-0.48468018,-0.4102173,0.015625,1.671875,0.1875
720,-0.78564453,-0.47857666,-0.4019165,0.328125,1.84375,0.25
721,-0.79541016,-0.48345947,-0.40386963,-0.234375,1.421875,0.109375
722,-0.78759766,-0.48614502,-0.4085083,-0.4375,1.703125,-0.171875
723,-0.7766113,-0.48394775,-0.41436768,-1.890625,2.046875,-1.25
724,-0.7890625,-0.47003174,-0.37799072,-3.375,6.234375,-3.78125
725,-0.8125,-0.49273682,-0.40997314,-3.1875,1.75,-2.109375
726,-0.8071289,-0.4776001,-0.3809204,-0.484375,1.015625,-2.15625
727,-0.798584,-0.472229,-0.3821411,-1.265625,-0.28125,-1.21875
728,-0.8071289,-0.46539307,-0.39434814,-0.515625,-1.875,-0.296875
729,-0.7976074,-0.47174072,-0.39849854,0.15625,-1.96875,0.328125
730,-0.79589844,-0.4734497,-0.3970337,0.484375,-2.171875,0.984375
731,-0.78759766,-0.47808838,-0.41119385,-0.21875,-1.859375,1.484375
732,-0.78515625,-0.4829712,-0.4085083,-0.203125,0.078125,1.546875
733,-0.77734375,-0.4758911,-0.4024048,0.6875,-0.78125,2.015625
734,-0.7788086,-0.47198486,-0.40533447,0.53125,-1.53125,1.78125
735,-0.7858887,-0.49761963,-0.43023682,-0.21875,-1.8125,1.265625
736,-0.77783203,-0.4776001,-0.41314697,-0.828125,-1.875,1.59375
737,-0.78808594,-0.49371338,-0.43170166,-0.1875,-0.6875,0.984375
738,-0.7832031,-0.4829712,-0.41973877,-0.046875,1.203125,0.4375
739,-0.7722168,-0.48101807,-0.4133911,-0.046875,0.875,0.1875
740,-0.7619629,-0.4805298,-0.4282837,-0.484375,0.0625,0.40625
741,-0.7766113,-0.4829712,-0.4290161,-0.203125,0.484375,0.359375
742,-0.77612305,-0.48492432,-0.43463135,-0.5625,1.015625,0.328125
743,-0.7722168,-0.48883057,-0.42095947,-0.9375,1.5,0.09375
744,-0.7775879,-0.48223877,-0.4187622,0.109375,1.53125,-0.125
745,-0.7788086,-0.489563,-0.42193604,-0.6875,1.640625,-0.046875
746,-0.78100586,-0.48321533,-0.41778564,-0.421875,1.65625,-0.09375
747,-0.7766113,-0.48516846,-0.42144775,-0.5,1.046875,0.390625
748,-0.7792969,-0.48199463,-0.40899658,-0.703125,1.265625,0.4375
749,-0.7775879,-0.49639893,-0.4229126,-0.640625,0.328125,0.6875
750,-0.7727051,-0.4866333,-0.41973877,-1.0,1.0625,0.359375
751,-0.7661133,-0.4907837,-0.42144775,-1.859375,2.03125,-0.53125
752,-0.76220703,-0.4800415,-0.41119385,-4.046875,6.921875,-4.234375
753,-0.8000488,-0.48150635,-0.39996338,-1.3125,3.28125,-2.328125
754,-0.7907715,-0.4812622,-0.40899658,0.546875,0.921875,-1.125
