sample_no,accel_x,accel_y,accel_z,gyro_x,gyro_y,gyro_z
0,0.5422363,0.028503418,-0.7932739,0.28125,-0.265625,-0.265625
1,0.5419922,0.02142334,-0.7769165,0.359375,-0.203125,-0.234375
2,0.5461426,0.019714355,-0.7949829,-0.125,0.265625,-0.265625
3,0.5480957,0.023620605,-0.7871704,0.3125,0.015625,-0.078125
4,0.546875,0.018981934,-0.7979126,0.71875,-0.0625,0.21875
5,0.53808594,0.020690918,-0.7854614,1.625,-1.140625,0.40625
6,0.5505371,0.03753662,-0.78912354,1.109375,-1.0,0.15625
7,0.55566406,0.034362793,-0.78912354,-0.03125,-0.25,-0.375
8,0.5473633,0.024108887,-0.7876587,-0.1875,0.203125,-0.5
9,0.545166,0.024597168,-0.7842407,-0.046875,0.5,-0.1875
10,0.5461426,0.028503418,-0.7774048,0.40625,0.109375,-0.078125
11,0.546875,0.022399902,-0.7810669,0.609375,0.015625,0.0625
12,0.55566406,0.0289917,-0.7991333,0.640625,0.28125,-0.03125
13,0.55126953,0.029724121,-0.788147,0.375,-0.15625,-0.34375
14,0.5517578,0.028503418,-0.7942505,0.03125,0.109375,-0.4375
15,0.54711914,0.032165527,-0.78326416,0.25,0.15625,-0.1875
16,0.54467773,0.028503418,-0.78497314,0.25,0.0,-0.1875
17,0.54467773,0.028015137,-0.78985596,0.296875,-0.203125,-0.0625
18,0.5527344,0.026794434,-0.8023071,-0.15625,-0.078125,-0.328125
19,0.5480957,0.035827637,-0.7949829,0.34375,-0.71875,-0.421875
20,0.54907227,0.022155762,-0.7786255,1.171875,-1.90625,-0.171875
21,0.5522461,0.02947998,-0.77960205,1.15625,-0.984375,-0.09375
22,0.5566406,0.03338623,-0.77960205,0.765625,-0.6875,-0.03125
23,0.5563965,0.03729248,-0.788147,0.375,-0.484375,-0.3125
24,0.55981445,0.03387451,-0.78570557,0.203125,-0.203125,-0.4375
25,0.5593262,0.028503418,-0.78302,0.203125,0.203125,-0.359375
26,0.55078125,0.03289795,-0.7776489,0.921875,-0.1875,0.0625
27,0.55981445,0.04144287,-0.78448486,0.59375,-0.09375,-0.078125
28,0.56274414,0.03363037,-0.79107666,0.453125,-0.1875,-0.140625
29,0.56347656,0.035583496,-0.7854614,0.609375,-0.546875,-0.359375
30,0.5576172,0.040222168,-0.7793579,0.265625,-0.25,-0.4375
31,0.5541992,0.039489746,-0.77667236,0.390625,-0.328125,-0.453125
32,0.55810547,0.03729248,-0.7749634,0.703125,-0.515625,-0.3125
33,0.55810547,0.035095215,-0.78326416,0.4375,-0.28125,-0.125
34,0.5578613,0.03338623,-0.784729,0.21875,-0.265625,-0.328125
35,0.5632324,0.03338623,-0.7798462,-0.09375,-0.15625,-0.515625
36,0.548584,0.04119873,-0.7703247,0.3125,-0.625,-0.46875
37,0.5554199,0.0368042,-0.7715454,0.609375,-0.640625,0.015625
38,0.5690918,0.036071777,-0.77838135,0.140625,-0.390625,-0.140625
39,0.5720215,0.04119873,-0.784729,-0.015625,-0.4375,-0.375
40,0.55810547,0.03656006,-0.7822876,0.015625,-0.046875,-0.328125
41,0.5644531,0.034606934,-0.772522,0.375,0.03125,-0.265625
42,0.56469727,0.034118652,-0.77960205,0.25,-0.015625,-0.078125
43,0.5671387,0.039733887,-0.7781372,0.125,0.203125,-0.359375
44,0.56811523,0.03778076,-0.77716064,0.171875,0.21875,-0.140625
45,0.564209,0.038269043,-0.78375244,-0.0625,-0.0625,-0.296875
46,0.5656738,0.03753662,-0.7749634,0.109375,0.171875,-0.359375
47,0.56640625,0.039733887,-0.7798462,0.359375,0.15625,-0.1875
48,0.55908203,0.034118652,-0.772522,0.40625,-0.015625,-0.265625
49,0.5734863,0.03729248,-0.7732544,0.28125,0.0,-0.25
50,0.5629883,0.04559326,-0.7732544,0.1875,-0.015625,-0.1875
51,0.5593262,0.035583496,-0.77667236,0.140625,0.0625,-0.296875
52,0.56469727,0.031921387,-0.7737427,-0.078125,0.0,-0.4375
53,0.56518555,0.042175293,-0.7683716,0.203125,0.015625,-0.09375
54,0.5722656,0.039489746,-0.770813,0.0625,0.890625,-0.34375
55,0.56689453,0.03729248,-0.77349854,-0.703125,2.046875,-0.375
56,0.5625,0.043151855,-0.78253174,-0.828125,1.78125,-0.453125
57,0.5666504,0.03778076,-0.7908325,-1.4375,1.859375,-0.84375
58,0.5583496,0.029724121,-0.7661743,-1.234375,3.234375,-0.296875
59,0.5498047,0.028259277,-0.78302,-0.78125,3.203125,0.109375
60,0.5527344,0.028015137,-0.78790283,-0.734375,3.015625,-0.109375
61,0.5559082,0.032409668,-0.7930298,-1.578125,2.71875,-0.28125
62,0.5407715,0.030944824,-0.7876587,-1.375,2.234375,-0.609375
63,0.5463867,0.026062012,-0.7962036,-1.8125,1.859375,-0.78125
64,0.54052734,0.023376465,-0.79815674,-1.34375,1.265625,-0.484375
65,0.5395508,0.0289917,-0.7920532,-0.875,1.140625,-0.40625
66,0.54785156,0.02142334,-0.7962036,-1.28125,0.875,-0.515625
67,0.545166,0.018493652,-0.79693604,-0.8125,0.46875,-0.1875
68,0.5373535,0.024108887,-0.803772,-0.484375,0.078125,-0.265625
69,0.54296875,0.022155762,-0.79229736,-0.59375,-0.890625,-0.34375
70,0.5422363,0.015319824,-0.79571533,-0.34375,-0.921875,-0.265625
71,0.52734375,0.014587402,-0.767395,1.8125,-0.953125,0.828125
72,0.5415039,0.018737793,-0.7854614,2.375,-1.09375,1.09375
73,0.5576172,0.031188965,-0.802063,0.734375,-0.421875,0.0
74,0.5510254,0.034362793,-0.80596924,-0.125,0.171875,-0.484375
75,0.54833984,0.023132324,-0.7835083,-0.28125,0.046875,-0.390625
76,0.5463867,0.02166748,-0.7918091,0.515625,0.234375,-0.03125
77,0.5332031,0.014587402,-0.78448486,1.3125,0.234375,0.28125
78,0.5419922,0.026794434,-0.7871704,0.671875,0.171875,0.0
79,0.5476074,0.026794434,-0.8008423,0.0625,0.234375,-0.421875
80,0.5456543,0.038024902,-0.798645,-0.28125,0.125,-0.421875
81,0.53564453,0.028015137,-0.7905884,0.21875,-0.015625,-0.046875
82,0.5473633,0.02532959,-0.7937622,0.84375,-0.296875,0.1875
83,0.5344238,0.020690918,-0.7810669,0.96875,0.203125,0.203125
84,0.5522461,0.030456543,-0.7918091,0.078125,-0.03125,-0.25
85,0.5480957,0.035095215,-0.78790283,-0.234375,-0.234375,-0.546875
86,0.5402832,0.022644043,-0.78009033,0.671875,-0.515625,-0.125
87,0.55200195,0.03778076,-0.78863525,0.71875,-0.359375,0.0
88,0.55029297,0.03338623,-0.7932739,0.8125,-0.078125,0.109375
89,0.55493164,0.024841309,-0.78790283,0.296875,0.328125,-0.078125
90,0.54541016,0.026794434,-0.7876587,0.265625,0.171875,-0.171875
91,0.5402832,0.03314209,-0.77716064,0.4375,-0.0625,-0.125
92,0.5432129,0.03729248,-0.7764282,0.1875,-0.140625,-0.375
93,0.5534668,0.032409668,-0.7974243,0.046875,0.265625,-0.296875
94,0.5554199,0.028259277,-0.7959595,0.203125,-0.109375,-0.375
95,0.5493164,0.03729248,-0.79815674,0.1875,0.125,-0.140625
96,0.5456543,0.03338623,-0.7839966,0.125,-0.0625,-0.234375
97,0.5444336,0.04071045,-0.7842407,-0.03125,-0.03125,-0.234375
98,0.548584,0.029968262,-0.78692627,-0.03125,-0.453125,-0.359375
99,0.54785156,0.032165527,-0.7962036,0.125,-0.09375,-0.34375
100,0.5510254,0.029968262,-0.77838135,0.734375,-0.375,-0.09375
101,0.5529785,0.04046631,-0.7920532,0.53125,-0.53125,-0.125
102,0.5566406,0.042175293,-0.788147,0.46875,-0.203125,0.140625
103,0.5539551,0.04559326,-0.786438,-0.0625,0.265625,-0.234375
104,0.5551758,0.034606934,-0.78302,-0.203125,0.15625,-0.390625
105,0.5463867,0.035339355,-0.7793579,-0.1875,0.03125,-0.40625
106,0.5588379,0.03289795,-0.7815552,0.21875,0.203125,0.015625
107,0.55371094,0.030700684,-0.7901001,0.703125,-0.125,0.015625
108,0.55737305,0.043884277,-0.7893677,0.71875,-0.3125,0.1875
109,0.55908203,0.038757324,-0.78790283,-0.09375,0.0625,-0.28125
110,0.5500488,0.03704834,-0.79034424,-0.296875,0.078125,-0.390625
111,0.55322266,0.038024902,-0.7752075,0.21875,-0.1875,-0.171875
112,0.5559082,0.03729248,-0.78692627,0.203125,-0.09375,-0.359375
113,0.55078125,0.034118652,-0.7852173,0.234375,-0.3125,-0.09375
114,0.55859375,0.038024902,-0.7842407,0.328125,-0.140625,-0.34375
115,0.55908203,0.038024902,-0.7893677,0.265625,-0.125,-0.28125
116,0.5473633,0.035339355,-0.77789307,0.46875,-0.421875,-0.265625
117,0.55688477,0.039978027,-0.78204346,0.609375,-0.578125,-0.171875
118,0.54956055,0.03704834,-0.7805786,1.640625,-1.53125,0.015625
119,0.56152344,0.040222168,-0.78082275,1.1875,-1.734375,-0.296875
120,0.5722656,0.03729248,-0.7839966,0.296875,-0.9375,-0.484375
121,0.5632324,0.04071045,-0.78253174,0.203125,-0.328125,-0.359375
122,0.5605469,0.038513184,-0.7764282,0.71875,-0.25,-0.09375
123,0.5722656,0.04876709,-0.7776489,0.65625,-0.015625,-0.078125
124,0.57128906,0.04876709,-0.7827759,0.25,-0.03125,-0.3125
125,0.56640625,0.047058105,-0.7764282,0.109375,-0.28125,-0.359375
126,0.56762695,0.047790527,-0.7781372,-0.140625,-0.140625,-0.359375
127,0.5632324,0.043151855,-0.77227783,-0.125,0.109375,-0.375
128,0.5637207,0.039245605,-0.7761841,0.109375,0.03125,-0.328125
129,0.56518555,0.039245605,-0.7749634,0.3125,0.171875,-0.25
130,0.564209,0.043151855,-0.77960205,-0.03125,0.125,-0.375
131,0.5698242,0.043884277,-0.78204346,-0.234375,0.046875,-0.4375
132,0.56152344,0.04168701,-0.77423096,0.296875,0.125,-0.140625
133,0.5605469,0.044128418,-0.7737427,0.359375,0.078125,-0.078125
134,0.560791,0.046081543,-0.77789307,0.40625,0.046875,-0.21875
135,0.57421875,0.043884277,-0.78131104,-0.078125,-0.140625,-0.484375
136,0.57006836,0.042419434,-0.78570557,-0.046875,-0.125,-0.46875
137,0.5656738,0.038757324,-0.7666626,0.109375,-0.484375,-0.328125
138,0.5546875,0.038757324,-0.76153564,0.78125,0.265625,0.015625
139,0.5654297,0.04901123,-0.77789307,0.5625,0.109375,0.0
140,0.57373047,0.053894043,-0.78082275,0.375,0.265625,-0.375
141,0.57055664,0.039245605,-0.79156494,-0.296875,0.03125,-0.484375
142,0.5632324,0.04534912,-0.7737427,-0.09375,0.125,-0.171875
143,0.5629883,0.042175293,-0.7739868,0.03125,0.265625,-0.359375
144,0.5708008,0.042175293,-0.7786255,0.21875,0.359375,-0.1875
145,0.56225586,0.038269043,-0.78082275,0.046875,-0.03125,-0.234375
146,0.5683594,0.047058105,-0.7732544,0.21875,0.03125,-0.234375
147,0.56274414,0.035827637,-0.7788696,-0.109375,0.28125,-0.3125
148,0.5629883,0.038757324,-0.76568604,-0.125,0.859375,-0.453125
149,0.56689453,0.042907715,-0.7737427,-0.53125,1.640625,-0.4375
150,0.5583496,0.036315918,-0.772522,0.203125,2.3125,-0.0625
151,0.57055664,0.04046631,-0.7715454,-0.34375,4.03125,-0.0625
152,0.5554199,0.04168701,-0.7803345,-0.734375,4.203125,-0.15625
153,0.5517578,0.03704834,-0.78619385,-0.546875,3.875,-0.15625
154,0.54174805,0.03753662,-0.7925415,-0.734375,3.484375,-0.0625
155,0.5344238,0.03265381,-0.79156494,-0.453125,3.53125,0.296875
156,0.5395508,0.040222168,-0.7905884,-0.703125,3.171875,-0.125
157,0.5361328,0.0368042,-0.8015747,-1.09375,2.578125,-0.328125
158,0.532959,0.039978027,-0.8008423,-1.328125,1.921875,-0.46875
159,0.5341797,0.03753662,-0.8101196,-1.53125,1.625,-0.484375
160,0.5288086,0.034362793,-0.8010864,-1.703125,1.015625,-0.46875
161,0.53125,0.01751709,-0.81329346,-1.265625,0.796875,-0.609375
162,0.53149414,0.027770996,-0.79351807,-1.078125,-0.328125,-0.5625
163,0.5366211,0.027770996,-0.7949829,-0.71875,0.0,-0.421875
164,0.52783203,0.028503418,-0.798645,-0.84375,-0.296875,-0.53125
165,0.5300293,0.024108887,-0.80059814,-0.640625,-0.09375,-0.578125
166,0.529541,0.030456543,-0.80255127,-0.359375,-0.8125,-0.40625
167,0.53515625,0.02532959,-0.80792236,-0.4375,-0.4375,-0.171875
168,0.5241699,0.019470215,-0.78863525,0.796875,-0.71875,0.3125
169,0.5292969,0.022155762,-0.77960205,1.828125,-1.328125,0.828125
170,0.5422363,0.02947998,-0.79888916,1.546875,-0.734375,0.59375
171,0.5498047,0.04071045,-0.81695557,0.234375,-0.234375,-0.21875
172,0.53881836,0.034606934,-0.8093872,-0.234375,0.328125,-0.421875
173,0.53637695,0.034606934,-0.7998657,-0.125,0.734375,-0.046875
174,0.52124023,0.023620605,-0.7866821,0.71875,0.4375,0.0625
175,0.52905273,0.02923584,-0.7876587,0.3125,0.515625,-0.03125
176,0.5395508,0.03387451,-0.7971802,0.28125,0.265625,-0.0625
177,0.53759766,0.03387451,-0.7996216,0.109375,-0.125,-0.25
178,0.5390625,0.032409668,-0.8076782,0.0625,0.09375,-0.375
179,0.5344238,0.028503418,-0.8057251,0.4375,-0.046875,0.03125
180,0.5324707,0.03753662,-0.7908325,0.703125,-0.234375,0.265625
181,0.54541016,0.03387451,-0.8010864,0.078125,0.03125,-0.34375
182,0.52612305,0.03289795,-0.7822876,-0.140625,-0.3125,-0.390625
183,0.5292969,0.025817871,-0.7835083,0.28125,-0.140625,0.015625
184,0.532959,0.034362793,-0.79522705,0.359375,-0.109375,-0.140625
185,0.54125977,0.039978027,-0.8052368,0.0625,-0.375,-0.203125
186,0.5397949,0.038513184,-0.80303955,-0.3125,-0.03125,-0.453125
187,0.53564453,0.029724121,-0.7942505,0.078125,0.15625,-0.359375
188,0.53125,0.031433105,-0.78692627,0.296875,0.203125,-0.21875
189,0.53881836,0.034606934,-0.7901001,0.453125,-0.0625,0.015625
190,0.5419922,0.031921387,-0.80352783,0.28125,-0.0625,-0.234375
191,0.5522461,0.030456543,-0.80548096,-0.046875,-0.0625,-0.375
192,0.5476074,0.034606934,-0.8052368,-0.125,0.046875,-0.265625
193,0.532959,0.029724121,-0.79473877,0.171875,-0.390625,-0.265625
194,0.5307617,0.04071045,-0.78790283,0.265625,-0.296875,-0.234375
195,0.54174805,0.035095215,-0.79229736,0.5,-0.265625,-0.09375
196,0.54785156,0.04095459,-0.7984009,0.484375,-0.59375,-0.109375
197,0.5437012,0.02923584,-0.7996216,0.5625,-0.984375,-0.140625
198,0.53759766,0.034606934,-0.7901001,0.671875,-0.96875,-0.34375
199,0.5505371,0.034851074,-0.79644775,0.578125,-0.640625,-0.25
200,0.5378418,0.038024902,-0.7859497,0.640625,-0.234375,0.0625
201,0.5461426,0.04046631,-0.79400635,0.046875,0.40625,-0.3125
202,0.545166,0.03656006,-0.7962036,-0.234375,0.109375,-0.5
203,0.54541016,0.031921387,-0.788147,-0.28125,-0.046875,-0.421875
204,0.5419922,0.036315918,-0.78741455,0.1875,-0.109375,-0.28125
205,0.5427246,0.03363037,-0.786438,1.109375,-0.625,-0.015625
206,0.5476074,0.039245605,-0.7859497,1.296875,-1.0625,-0.078125
207,0.55981445,0.043640137,-0.7918091,0.421875,-0.53125,-0.171875
208,0.54956055,0.04510498,-0.7913208,-0.125,-0.203125,-0.484375
209,0.54589844,0.035827637,-0.7866821,-0.25,-0.078125,-0.390625
210,0.5444336,0.035827637,-0.7805786,-0.203125,-0.28125,-0.3125
211,0.5480957,0.034362793,-0.7854614,-0.09375,-0.140625,-0.28125
212,0.5563965,0.042419434,-0.79351807,-0.078125,-0.265625,-0.328125
213,0.5500488,0.04168701,-0.7883911,0.234375,-0.796875,-0.375
214,0.5527344,0.035339355,-0.77911377,0.21875,-0.9375,-0.296875
215,0.5498047,0.039978027,-0.78375244,0.203125,-0.21875,-0.34375
216,0.54541016,0.03387451,-0.7756958,0.078125,-0.1875,-0.296875
217,0.5571289,0.03363037,-0.788147,-0.046875,-0.234375,-0.40625
218,0.55615234,0.03387451,-0.7859497,-0.25,-0.390625,-0.484375
219,0.55371094,0.035095215,-0.77911377,-0.109375,-0.09375,-0.421875
220,0.55371094,0.035095215,-0.78009033,0.578125,-0.15625,-0.109375
221,0.5554199,0.04071045,-0.7835083,0.546875,-0.1875,-0.21875
222,0.5551758,0.0446167,-0.78692627,0.140625,-0.375,-0.203125
223,0.5554199,0.031921387,-0.77593994,0.109375,-0.296875,-0.3125
224,0.55737305,0.04071045,-0.77593994,-0.03125,-0.15625,-0.1875
225,0.56030273,0.035827637,-0.78375244,-0.3125,-0.015625,-0.4375
226,0.55566406,0.030212402,-0.7761841,0.015625,-0.296875,-0.328125
227,0.56103516,0.03265381,-0.784729,-0.078125,-0.046875,-0.328125
228,0.5546875,0.03704834,-0.78375244,0.15625,0.015625,-0.3125
229,0.5605469,0.03704834,-0.7793579,0.0625,-0.078125,-0.421875
230,0.55615234,0.039001465,-0.7720337,-0.15625,-0.046875,-0.40625
231,0.5605469,0.035339355,-0.77789307,0.453125,0.03125,-0.15625
232,0.55859375,0.035827637,-0.78082275,0.21875,0.296875,-0.1875
233,0.56152344,0.043884277,-0.7854614,-0.015625,0.046875,-0.265625
234,0.56518555,0.04168701,-0.7815552,-0.171875,-0.078125,-0.234375
235,0.5539551,0.03656006,-0.7720337,0.0,0.015625,-0.28125
236,0.5588379,0.034118652,-0.7761841,0.328125,-0.046875,-0.078125
237,0.56225586,0.039978027,-0.7842407,0.53125,-0.078125,-0.09375
238,0.5637207,0.041931152,-0.78326416,0.28125,0.0625,-0.234375
239,0.5654297,0.03387451,-0.7839966,-0.140625,0.15625,-0.4375
240,0.5686035,0.039978027,-0.78131104,-0.265625,0.1875,-0.34375
241,0.5578613,0.040222168,-0.7695923,-0.140625,0.484375,-0.265625
242,0.56640625,0.043640137,-0.7942505,-0.015625,0.53125,-0.296875
243,0.55322266,0.034851074,-0.77716064,0.21875,-0.109375,-0.125
244,0.56030273,0.035095215,-0.7786255,0.328125,0.078125,-0.0625
245,0.5554199,0.039978027,-0.7756958,0.28125,-0.078125,-0.109375
246,0.5654297,0.04046631,-0.78082275,0.1875,-0.65625,-0.171875
247,0.560791,0.04510498,-0.7749634,0.40625,-0.015625,-0.171875
248,0.5649414,0.039733887,-0.7871704,0.03125,0.046875,-0.09375
249,0.564209,0.0368042,-0.78253174,-0.0625,0.234375,-0.375
250,0.5620117,0.039001465,-0.7793579,-0.296875,0.15625,-0.375
251,0.55688477,0.03753662,-0.77593994,-0.046875,0.078125,-0.171875
252,0.560791,0.03338623,-0.7737427,0.234375,-0.0625,0.0
253,0.56152344,0.04046631,-0.78302,0.265625,0.1875,-0.125
254,0.56469727,0.039001465,-0.78863525,0.234375,0.28125,-0.140625
255,0.5629883,0.030212402,-0.78692627,0.09375,0.3125,-0.171875
256,0.5620117,0.04071045,-0.77593994,0.09375,0.34375,-0.171875
257,0.5541992,0.036315918,-0.77423096,-0.0625,-0.03125,-0.3125
258,0.5600586,0.035827637,-0.7822876,-0.21875,0.25,-0.28125
259,0.5593262,0.038269043,-0.7786255,0.0625,0.171875,-0.265625
260,0.5629883,0.03778076,-0.7764282,0.0625,0.3125,-0.203125
261,0.5683594,0.03387451,-0.7788696,-0.03125,0.28125,-0.25
262,0.56591797,0.04046631,-0.7798462,0.078125,0.421875,-0.3125
263,0.5617676,0.04095459,-0.77960205,0.15625,0.203125,-0.40625
264,0.55810547,0.035339355,-0.7859497,0.15625,0.03125,-0.296875
265,0.5617676,0.043151855,-0.78253174,0.046875,-0.0625,-0.34375
266,0.5683594,0.031188965,-0.78009033,-0.015625,0.03125,-0.375
267,0.5571289,0.039733887,-0.77911377,0.078125,0.203125,-0.21875
268,0.5617676,0.0368042,-0.7788696,0.15625,-0.015625,-0.296875
269,0.56591797,0.036071777,-0.78912354,-0.515625,0.796875,-0.375
270,0.55810547,0.036315918,-0.7683716,-0.421875,0.484375,-0.34375
271,0.5576172,0.03265381,-0.78619385,-0.171875,1.140625,-0.109375
272,0.5649414,0.042663574,-0.78448486,-0.203125,1.109375,-0.34375
273,0.5578613,0.038757324,-0.77960205,-0.546875,2.046875,-0.328125
274,0.5576172,0.032409668,-0.7720337,-0.953125,3.34375,-0.453125
275,0.55688477,0.04437256,-0.78863525,-1.109375,3.890625,-0.140625
276,0.54174805,0.027038574,-0.77423096,-1.390625,4.109375,-0.3125
277,0.54174805,0.030700684,-0.8062134,-1.8125,3.765625,-0.59375
278,0.54711914,0.027526855,-0.8106079,-1.75,2.890625,-0.6875
279,0.53881836,0.024108887,-0.803772,-1.84375,2.140625,-0.734375
280,0.5300293,0.031188965,-0.7949829,-1.828125,1.671875,-0.984375
281,0.5341797,0.023376465,-0.7905884,-1.546875,1.28125,-0.71875
282,0.5371094,0.01727295,-0.80841064,-1.46875,0.546875,-0.859375
283,0.5317383,0.018249512,-0.7959595,-0.3125,0.359375,-0.28125
284,0.53686523,0.014587402,-0.7942505,-0.171875,0.0,-0.15625
285,0.5371094,0.018249512,-0.8074341,-0.09375,-0.71875,0.09375
286,0.5373535,0.01776123,-0.80255127,0.40625,-1.34375,0.28125
287,0.5217285,0.015808105,-0.788147,1.6875,-2.296875,0.859375
288,0.53393555,0.024597168,-0.78326416,2.46875,-1.53125,0.921875
289,0.55200195,0.038757324,-0.80474854,1.265625,-1.25,0.171875
290,0.55029297,0.03338623,-0.80303955,0.359375,-0.109375,-0.140625
291,0.54052734,0.024597168,-0.80133057,0.109375,0.453125,-0.328125
292,0.5378418,0.026550293,-0.7991333,0.359375,0.390625,0.046875
293,0.529541,0.019226074,-0.784729,0.4375,-0.0625,0.15625
294,0.5358887,0.022644043,-0.79156494,-0.0625,0.203125,-0.359375
295,0.54296875,0.025817871,-0.7937622,0.109375,0.03125,-0.125
296,0.5432129,0.03265381,-0.7959595,0.078125,-0.03125,-0.140625
297,0.5427246,0.03778076,-0.79400635,0.25,-0.1875,-0.03125
298,0.5517578,0.031188965,-0.80426025,0.5,0.3125,0.125
299,0.5473633,0.026794434,-0.78741455,0.71875,-0.171875,-0.015625
300,0.5366211,0.030212402,-0.78912354,-0.171875,-0.4375,-0.375
301,0.5383301,0.027526855,-0.7908325,-0.1875,-0.203125,-0.46875
302,0.5361328,0.029724121,-0.7913208,0.171875,-0.390625,-0.1875
303,0.545166,0.029724121,-0.79937744,0.390625,0.0625,0.015625
304,0.5456543,0.0289917,-0.798645,0.15625,0.109375,-0.09375
305,0.54663086,0.031677246,-0.79937744,-0.171875,0.1875,-0.46875
306,0.5366211,0.022644043,-0.79571533,0.078125,-0.4375,-0.390625
307,0.5397949,0.02923584,-0.76885986,0.703125,-0.28125,-0.03125
308,0.53808594,0.031677246,-0.7876587,0.5625,-0.140625,-0.03125
309,0.5419922,0.030700684,-0.7854614,0.5625,-0.0625,0.015625
310,0.5529785,0.027770996,-0.8052368,0.453125,0.046875,-0.265625
311,0.54907227,0.035583496,-0.79766846,0.265625,-0.421875,-0.21875
312,0.5419922,0.03314209,-0.788147,0.125,-0.21875,-0.390625
313,0.5456543,0.034851074,-0.7835083,0.375,-0.65625,-0.203125
314,0.545166,0.030456543,-0.78692627,0.484375,-1.09375,-0.265625
315,0.55444336,0.030212402,-0.78741455,0.578125,-1.4375,-0.203125
316,0.55859375,0.03363037,-0.78863525,0.171875,-1.1875,-0.328125
317,0.5515137,0.035339355,-0.7822876,0.5625,-0.8125,-0.171875
318,0.55200195,0.043884277,-0.78375244,0.484375,-0.21875,-0.203125
319,0.5554199,0.036315918,-0.7888794,0.171875,0.0,-0.109375
320,0.5527344,0.039489746,-0.78985596,-0.1875,0.265625,-0.46875
321,0.55371094,0.03289795,-0.7793579,-0.359375,0.03125,-0.40625
322,0.5432129,0.032165527,-0.7774048,0.03125,-0.0625,-0.203125
323,0.5578613,0.028503418,-0.7859497,0.3125,0.0625,-0.203125
324,0.5546875,0.030456543,-0.7908325,0.40625,-0.109375,-0.125
325,0.5612793,0.028259277,-0.7908325,0.328125,-0.0625,-0.109375
326,0.5625,0.03704834,-0.7827759,0.59375,-0.125,-0.203125
327,0.5617676,0.036071777,-0.7883911,0.015625,0.15625,-0.265625
328,0.5539551,0.03314209,-0.7803345,-0.046875,-0.078125,-0.328125
329,0.55126953,0.03338623,-0.77716064,0.375,-0.078125,-0.390625
330,0.5566406,0.035827637,-0.7852173,0.40625,0.046875,-0.03125
331,0.55126953,0.03753662,-0.7835083,0.21875,0.328125,-0.140625
332,0.5583496,0.043640137,-0.7781372,0.265625,0.203125,-0.203125
333,0.55371094,0.03656006,-0.7822876,0.234375,-0.28125,-0.03125
334,0.5534668,0.042907715,-0.7822876,0.625,-0.578125,0.03125
335,0.56225586,0.04046631,-0.7793579,0.203125,-0.390625,-0.390625
336,0.5571289,0.039489746,-0.7835083,0.3125,-0.390625,-0.078125
337,0.56347656,0.034118652,-0.7817993,0.3125,-0.453125,-0.15625
338,0.56152344,0.036071777,-0.7905884,0.40625,-0.359375,-0.171875
339,0.5583496,0.038024902,-0.77301025,0.4375,-0.28125,-0.21875
340,0.56274414,0.039733887,-0.78253174,0.203125,0.078125,-0.328125
341,0.5605469,0.042419434,-0.78302,0.0625,-0.125,-0.265625
342,0.5617676,0.039733887,-0.7817993,0.0625,-0.15625,-0.375
343,0.560791,0.036071777,-0.78131104,0.234375,0.015625,-0.328125
344,0.55859375,0.04119873,-0.7786255,-0.03125,0.5,-0.078125
345,0.5644531,0.044128418,-0.78619385,0.15625,0.234375,-0.1875
346,0.5661621,0.04071045,-0.77593994,0.296875,0.265625,0.0625
347,0.5617676,0.0446167,-0.78204346,0.09375,-0.046875,-0.234375
348,0.5571289,0.042663574,-0.78082275,-0.140625,0.03125,-0.359375
349,0.5566406,0.03704834,-0.7737427,0.015625,-0.234375,-0.140625
350,0.5612793,0.04534912,-0.77960205,0.3125,0.125,-0.359375
351,0.56103516,0.042419434,-0.77545166,0.328125,0.03125,-0.140625
352,0.55737305,0.045837402,-0.77960205,0.125,0.0,-0.21875
353,0.55615234,0.04168701,-0.7739868,0.015625,0.109375,-0.296875
354,0.5563965,0.039001465,-0.7764282,0.15625,0.1875,-0.234375
355,0.5632324,0.046081543,-0.7822876,0.171875,0.140625,-0.296875
356,0.5605469,0.040222168,-0.7827759,0.546875,-0.015625,0.0625
357,0.5637207,0.04486084,-0.7761841,0.171875,-0.015625,-0.03125
358,0.5666504,0.04168701,-0.786438,-0.15625,0.234375,-0.390625
359,0.5578613,0.03729248,-0.77471924,0.03125,-0.078125,-0.34375
360,0.56225586,0.036071777,-0.7786255,-0.046875,0.21875,-0.421875
361,0.55908203,0.04510498,-0.7769165,0.0,0.15625,-0.1875
362,0.5612793,0.039978027,-0.7786255,0.1875,0.125,-0.328125
363,0.5617676,0.04095459,-0.77423096,0.3125,0.0625,-0.21875
364,0.5629883,0.039245605,-0.7817993,0.1875,0.09375,-0.265625
365,0.55493164,0.042419434,-0.77593994,0.0,0.125,-0.390625
366,0.5588379,0.034362793,-0.7810669,0.046875,-0.046875,-0.34375
367,0.5588379,0.039001465,-0.7793579,0.0,0.03125,-0.203125
368,0.56030273,0.038757324,-0.7798462,-0.078125,0.09375,-0.21875
369,0.5620117,0.043151855,-0.77911377,-0.015625,0.03125,-0.203125
370,0.55737305,0.04071045,-0.78204346,-0.03125,0.078125,-0.140625
371,0.5595703,0.046081543,-0.7752075,0.015625,0.125,-0.28125
372,0.56933594,0.042175293,-0.78497314,-0.75,0.515625,-0.5625
373,0.56030273,0.039978027,-0.77301025,-0.78125,0.296875,-0.640625
374,0.56103516,0.035095215,-0.7786255,-0.984375,1.125,-0.6875
375,0.55908203,0.035339355,-0.78131104,-0.875,1.234375,-0.4375
376,0.5578613,0.035583496,-0.769104,-0.625,1.65625,-0.125
377,0.55908203,0.034118652,-0.77838135,-0.640625,2.140625,-0.3125
378,0.5551758,0.029968262,-0.78863525,-0.5625,2.109375,-0.21875
379,0.55126953,0.031188965,-0.77911377,-0.765625,1.90625,-0.25
380,0.55444336,0.030944824,-0.7962036,-1.078125,2.046875,-0.5
381,0.54907227,0.02947998,-0.79400635,-0.78125,1.59375,-0.53125
382,0.5476074,0.032409668,-0.7817993,-1.03125,2.03125,-0.53125
383,0.5456543,0.026794434,-0.7949829,-0.765625,1.421875,-0.40625
384,0.54907227,0.028747559,-0.79278564,-0.75,1.3125,-0.421875
385,0.54174805,0.029968262,-0.79644775,-0.375,0.53125,-0.1875
386,0.5463867,0.028259277,-0.7932739,-0.28125,-0.109375,-0.328125
387,0.53881836,0.02923584,-0.78863525,-0.234375,-0.25,-0.515625
388,0.5349121,0.017028809,-0.78448486,1.375,-1.625,0.390625
389,0.54833984,0.025817871,-0.7944946,1.3125,-2.015625,0.34375
390,0.5498047,0.03387451,-0.7815552,0.71875,-0.265625,0.0625
391,0.5576172,0.032409668,-0.803772,0.0,0.75,-0.296875
392,0.53808594,0.02947998,-0.7883911,0.21875,0.140625,-0.078125
393,0.54956055,0.031677246,-0.78692627,0.59375,0.21875,-0.015625
394,0.5402832,0.031677246,-0.78375244,0.609375,0.046875,0.140625
395,0.545166,0.035095215,-0.78302,0.484375,0.125,0.015625
396,0.55322266,0.03656006,-0.79473877,0.21875,0.125,-0.265625
397,0.55737305,0.031677246,-0.7979126,0.109375,0.28125,-0.15625
398,0.54467773,0.031433105,-0.79278564,0.109375,0.046875,-0.171875
399,0.54907227,0.028503418,-0.78326416,0.5625,-0.46875,0.140625
400,0.54003906,0.03314209,-0.78253174,0.765625,-0.46875,0.171875
401,0.54833984,0.03753662,-0.77960205,0.46875,-0.515625,-0.21875
402,0.5563965,0.039245605,-0.7815552,-0.328125,-0.28125,-0.40625
403,0.5488281,0.031921387,-0.7842407,0.125,-0.1875,-0.328125
404,0.5571289,0.02557373,-0.78912354,0.265625,0.125,-0.234375
405,0.5551758,0.032409668,-0.78790283,0.546875,-0.484375,-0.0625
406,0.5563965,0.039489746,-0.7913208,-0.015625,-0.0625,-0.375
407,0.54907227,0.034606934,-0.78326416,-0.03125,-0.078125,-0.234375
408,0.54467773,0.034606934,-0.78253174,0.359375,-0.484375,-0.203125
409,0.5559082,0.035827637,-0.7835083,0.390625,-0.40625,-0.125
410,0.56103516,0.03289795,-0.7893677,0.203125,-0.328125,-0.375
411,0.5583496,0.034362793,-0.7925415,0.296875,-0.28125,-0.296875
412,0.55371094,0.04486084,-0.78253174,0.359375,0.015625,-0.203125
413,0.55249023,0.03656006,-0.78497314,0.28125,-0.28125,-0.1875
414,0.55249023,0.038269043,-0.7786255,0.15625,-0.453125,-0.28125
415,0.5456543,0.027282715,-0.78009033,0.265625,-0.453125,-0.28125
416,0.55737305,0.03387451,-0.7854614,0.484375,-0.46875,0.0625
417,0.55688477,0.039245605,-0.79034424,0.453125,-0.078125,-0.046875
418,0.5595703,0.038269043,-0.7798462,0.484375,-0.078125,-0.03125
419,0.5515137,0.04095459,-0.7805786,0.28125,0.0625,-0.078125
420,0.5595703,0.039489746,-0.78497314,-0.140625,0.28125,-0.3125
421,0.5500488,0.039733887,-0.77960205,-0.125,0.125,-0.359375
422,0.5625,0.03729248,-0.77667236,-0.09375,0.015625,-0.28125
423,0.56225586,0.032165527,-0.78912354,0.265625,0.15625,-0.03125
424,0.56274414,0.039978027,-0.7905884,0.296875,0.21875,0.078125
425,0.5617676,0.04119873,-0.77960205,0.453125,0.046875,-0.078125
426,0.5649414,0.043395996,-0.7854614,0.09375,0.046875,-0.390625
427,0.5563965,0.04071045,-0.77911377,-0.140625,0.1875,-0.546875
428,0.5510254,0.038513184,-0.7749634,-0.171875,-0.109375,-0.46875
429,0.5566406,0.04168701,-0.7788696,0.046875,0.03125,-0.28125
430,0.56225586,0.038757324,-0.77838135,0.359375,0.125,0.078125
431,0.5515137,0.031188965,-0.7788696,0.46875,0.453125,-0.046875
432,0.55444336,0.042663574,-0.7810669,0.578125,0.265625,0.203125
433,0.5620117,0.046081543,-0.78253174,0.421875,0.0625,-0.078125
434,0.5566406,0.038024902,-0.77789307,0.15625,0.0,-0.1875
435,0.5551758,0.04168701,-0.78619385,0.078125,0.28125,-0.21875
436,0.5600586,0.039245605,-0.7786255,0.28125,0.0,-0.25
437,0.55908203,0.034851074,-0.7739868,0.265625,0.109375,-0.203125
438,0.56640625,0.038757324,-0.7842407,0.09375,0.125,-0.265625
439,0.5546875,0.044128418,-0.7739868,0.375,0.03125,-0.140625
440,0.5620117,0.04437256,-0.7859497,0.09375,0.28125,-0.28125
441,0.5505371,0.040222168,-0.7842407,0.296875,0.140625,-0.203125
442,0.5559082,0.03704834,-0.7815552,0.375,0.0625,-0.234375
443,0.5595703,0.039733887,-0.7805786,0.0625,0.03125,-0.3125
444,0.55908203,0.04168701,-0.78619385,0.046875,0.078125,-0.25
445,0.5571289,0.039245605,-0.7774048,0.046875,-0.25,-0.203125
446,0.56103516,0.035827637,-0.7810669,0.171875,-0.03125,-0.125
447,0.5578613,0.042419434,-0.78204346,-0.03125,-0.015625,-0.234375
448,0.55737305,0.039489746,-0.7737427,-0.078125,0.046875,-0.296875
449,0.55444336,0.039978027,-0.7793579,-0.09375,0.140625,-0.390625
450,0.5559082,0.04486084,-0.77545166,0.171875,-0.015625,-0.15625
451,0.5629883,0.04046631,-0.7739868,-0.09375,0.140625,-0.25
452,0.55859375,0.039978027,-0.7842407,0.09375,-0.03125,-0.265625
453,0.5605469,0.0368042,-0.77960205,0.140625,-0.390625,-0.234375
454,0.56591797,0.04486084,-0.78131104,0.203125,-0.609375,-0.34375
455,0.56396484,0.046325684,-0.7866821,0.34375,-0.828125,-0.21875
456,0.56396484,0.038757324,-0.78375244,0.5,-0.875,-0.265625
457,0.5690918,0.039733887,-0.7727661,0.46875,-0.828125,-0.1875
458,0.5686035,0.045837402,-0.7827759,0.03125,0.03125,-0.296875
459,0.5571289,0.038269043,-0.77178955,0.015625,-0.296875,-0.265625
460,0.5661621,0.038269043,-0.77911377,-0.28125,0.171875,-0.3125
461,0.56469727,0.04901123,-0.77667236,-0.140625,0.59375,-0.46875
462,0.56225586,0.043884277,-0.7793579,0.0,0.25,-0.3125
463,0.5654297,0.036071777,-0.7774048,0.078125,0.296875,-0.21875
464,0.57470703,0.030944824,-0.7822876,-0.265625,0.109375,-0.25
465,0.56030273,0.039733887,-0.7774048,-0.765625,0.796875,-0.453125
466,0.56811523,0.04119873,-0.77716064,-0.640625,0.765625,-0.484375
467,0.56347656,0.042907715,-0.77227783,-0.78125,0.984375,-0.296875
468,0.5563965,0.03387451,-0.76348877,-1.03125,2.71875,-0.34375
469,0.5488281,0.03753662,-0.78082275,-1.1875,3.671875,-0.21875
470,0.55029297,0.02947998,-0.7788696,-0.734375,4.453125,0.109375
471,0.5476074,0.031433105,-0.78912354,-1.140625,4.21875,-0.203125
472,0.54785156,0.030944824,-0.7920532,-1.21875,2.8125,-0.609375
473,0.53930664,0.02508545,-0.7944946,-1.40625,2.140625,-0.515625
474,0.5307617,0.035339355,-0.77301025,-1.59375,2.3125,-0.5
475,0.546875,0.026306152,-0.8086548,-2.4375,2.375,-0.796875
476,0.5371094,0.022888184,-0.79034424,-2.046875,1.734375,-0.8125
477,0.5341797,0.018249512,-0.8118286,-2.296875,1.734375,-0.765625
478,0.53515625,0.010681152,-0.80010986,-2.109375,1.140625,-0.8125
479,0.53100586,0.013366699,-0.8086548,-1.75,1.0,-0.671875
480,0.5317383,0.013122559,-0.79766846,-1.03125,0.578125,-0.453125
481,0.5292969,0.0045776367,-0.81256104,-0.828125,0.21875,-0.375
482,0.5305176,0.007507324,-0.80548096,-0.53125,-0.328125,-0.28125
483,0.53125,0.003112793,-0.81036377,-0.296875,-0.9375,-0.03125
484,0.53125,0.012390137,-0.7974243,0.53125,-0.28125,0.25
485,0.5136719,0.010925293,-0.78375244,2.046875,-1.0625,1.171875
486,0.54052734,0.010681152,-0.8045044,1.25,-0.890625,0.546875
487,0.5473633,0.024108887,-0.8115845,0.28125,-0.15625,-0.15625
488,0.5410156,0.014343262,-0.8106079,-0.0625,0.296875,-0.484375
489,0.5217285,0.012634277,-0.79156494,0.1875,0.625,-0.15625
490,0.5229492,0.011169434,-0.79229736,0.59375,0.390625,0.09375
491,0.51782227,0.008728027,-0.7913208,0.515625,0.1875,0.03125
492,0.53222656,0.014099121,-0.79278564,-0.265625,0.125,-0.4375
493,0.5361328,0.012634277,-0.8010864,-0.3125,0.28125,-0.484375
494,0.53759766,0.015319824,-0.8052368,0.109375,0.15625,-0.21875
495,0.5332031,0.015808105,-0.8049927,0.390625,0.0,0.03125
496,0.529541,0.0138549805,-0.7925415,0.796875,0.015625,0.21875
497,0.53100586,0.012634277,-0.802063,0.53125,0.046875,-0.09375
498,0.53515625,0.014831543,-0.7971802,-0.046875,-0.140625,-0.328125
499,0.5324707,0.022155762,-0.7859497,0.125,-0.296875,-0.21875
500,0.5275879,0.014099121,-0.79400635,0.359375,-0.234375,0.015625
501,0.54541016,0.016540527,-0.80255127,0.140625,0.046875,-0.140625
502,0.5419922,0.014831543,-0.8118286,-0.046875,0.234375,-0.28125
503,0.5305176,0.015319824,-0.79644775,0.265625,0.125,-0.03125
504,0.5280762,0.014587402,-0.7827759,0.421875,-0.046875,-0.015625
505,0.5324707,0.015563965,-0.80181885,0.0,-0.125,-0.203125
506,0.5361328,0.022888184,-0.802063,-0.03125,-0.1875,-0.5
507,0.5341797,0.015319824,-0.7984009,0.234375,-0.1875,-0.34375
508,0.545166,0.012390137,-0.81085205,-0.078125,0.09375,-0.21875
509,0.53271484,0.01776123,-0.79473877,0.15625,0.328125,-0.171875
510,0.53466797,0.018249512,-0.7932739,0.3125,0.15625,-0.03125
511,0.5336914,0.010192871,-0.79644775,0.453125,0.34375,0.015625
512,0.5361328,0.019714355,-0.7979126,0.359375,0.046875,0.015625
513,0.5344238,0.01776123,-0.7954712,0.6875,0.03125,0.03125
514,0.54418945,0.01751709,-0.79107666,1.203125,-0.28125,0.109375
515,0.54003906,0.027038574,-0.80010986,0.625,0.0625,-0.0625
516,0.5324707,0.022155762,-0.80133057,0.1875,0.21875,-0.140625
517,0.5410156,0.019226074,-0.80181885,-0.375,0.40625,-0.5
518,0.53759766,0.015808105,-0.7925415,-0.203125,0.25,-0.625
519,0.5283203,0.014587402,-0.79473877,-0.125,0.125,-0.375
520,0.5234375,0.02142334,-0.78619385,0.5,0.015625,0.03125
521,0.5476074,0.021911621,-0.8086548,0.421875,-0.09375,0.03125
522,0.5378418,0.02557373,-0.8010864,0.390625,0.109375,-0.171875
523,0.532959,0.02508545,-0.7998657,0.25,0.015625,-0.375
524,0.5361328,0.021911621,-0.7949829,-0.0625,-0.015625,-0.4375
525,0.5402832,0.019470215,-0.7942505,0.140625,0.21875,-0.34375
526,0.5371094,0.028503418,-0.80010986,0.09375,0.375,-0.15625
527,0.5344238,0.028259277,-0.7949829,0.46875,0.109375,0.140625
528,0.5366211,0.023864746,-0.79693604,0.53125,0.25,0.0625
529,0.5373535,0.0211792,-0.7962036,0.625,-0.078125,0.046875
530,0.5336914,0.02947998,-0.79522705,0.453125,-0.140625,-0.078125
531,0.5419922,0.029724121,-0.79522705,0.53125,-0.234375,-0.1875
532,0.5344238,0.028503418,-0.78863525,0.546875,-0.421875,-0.171875
533,0.53515625,0.02532959,-0.78985596,0.109375,-0.421875,-0.109375
534,0.53564453,0.023620605,-0.79937744,0.421875,-0.15625,-0.171875
535,0.53637695,0.020935059,-0.7876587,0.5625,-0.171875,-0.140625
536,0.54125977,0.026306152,-0.7979126,0.359375,0.078125,-0.171875
537,0.5402832,0.030944824,-0.7913208,0.4375,-0.125,-0.0625
538,0.54467773,0.0289917,-0.786438,0.0625,-0.28125,-0.125
539,0.5439453,0.027038574,-0.79278564,-0.015625,-0.015625,-0.265625
540,0.5373535,0.030456543,-0.7913208,-0.09375,-0.4375,-0.421875
541,0.54663086,0.026550293,-0.79766846,0.03125,-0.25,-0.3125
542,0.5437012,0.030944824,-0.7966919,0.203125,-0.203125,-0.328125
543,0.54174805,0.03289795,-0.7913208,0.484375,-0.296875,-0.125
544,0.5395508,0.026062012,-0.7920532,0.515625,-0.515625,-0.1875
545,0.548584,0.026306152,-0.79571533,0.21875,-0.5,-0.359375
546,0.5463867,0.034851074,-0.7908325,0.5,-0.46875,-0.328125
547,0.55200195,0.03704834,-0.78497314,0.421875,-0.453125,-0.25
548,0.54589844,0.034118652,-0.7893677,0.25,-0.203125,-0.21875
549,0.5473633,0.030944824,-0.79278564,0.265625,-0.359375,-0.25
550,0.5510254,0.034362793,-0.7932739,0.078125,-0.046875,-0.28125
551,0.545166,0.03314209,-0.78082275,0.015625,0.078125,-0.21875
552,0.5480957,0.031433105,-0.78619385,0.359375,-0.09375,0.03125
553,0.5505371,0.02947998,-0.7876587,0.4375,0.1875,-0.21875
554,0.5510254,0.026794434,-0.78741455,0.15625,0.015625,-0.28125
555,0.5498047,0.031921387,-0.7932739,-0.03125,0.21875,-0.375
556,0.54956055,0.03704834,-0.7896118,0.0625,0.109375,-0.1875
557,0.5449219,0.03363037,-0.788147,-0.015625,0.09375,-0.265625
558,0.5505371,0.025817871,-0.78692627,0.15625,-0.03125,-0.03125
559,0.5578613,0.028503418,-0.78985596,0.125,0.0,-0.265625
560,0.5522461,0.034362793,-0.7888794,-0.125,0.09375,-0.328125
561,0.54956055,0.031921387,-0.78985596,-0.171875,-0.015625,-0.421875
562,0.55029297,0.034606934,-0.79034424,-0.125,0.0625,-0.40625
563,0.55249023,0.030212402,-0.7871704,-0.234375,0.453125,-0.515625
564,0.5541992,0.030456543,-0.7896118,-0.4375,0.765625,-0.5
565,0.5515137,0.03265381,-0.7876587,-0.90625,1.125,-0.625
566,0.5444336,0.026794434,-0.78131104,-0.484375,1.59375,-0.5
567,0.55126953,0.026062012,-0.8010864,-1.5,1.453125,-1.0625
568,0.5427246,0.022888184,-0.7871704,-1.25,2.46875,-0.609375
569,0.53393555,0.016296387,-0.79522705,-0.984375,2.296875,-0.421875
570,0.5371094,0.025817871,-0.7866821,-0.90625,1.9375,-0.09375
571,0.5395508,0.019226074,-0.80255127,-1.640625,1.5,-0.609375
572,0.5373535,0.0119018555,-0.80303955,-1.375,1.390625,-0.640625
573,0.54248047,0.018493652,-0.79400635,-1.203125,1.265625,-0.71875
574,0.53759766,0.009460449,-0.8086548,-1.59375,1.328125,-0.765625
575,0.52856445,0.011657715,-0.78326416,-1.328125,1.046875,-0.625
576,0.5385742,0.006286621,-0.8206177,-1.359375,1.125,-0.75
577,0.5383301,0.010437012,-0.8057251,-0.9375,0.609375,-0.53125
578,0.52246094,0.008239746,-0.7979126,-0.96875,0.234375,-0.578125
579,0.5319824,0.007751465,-0.798645,-0.828125,0.078125,-0.625
580,0.5292969,0.0033569336,-0.80792236,-0.640625,-0.34375,-0.25
581,0.5307617,0.008972168,-0.8086548,-0.546875,-0.828125,-0.171875
582,0.52734375,-0.006652832,-0.7949829,0.9375,-0.234375,0.3125
583,0.5288086,0.0028686523,-0.7893677,1.984375,-1.0,1.03125
584,0.5410156,0.007019043,-0.7925415,1.546875,-1.0625,0.625
585,0.54174805,0.020202637,-0.8106079,0.28125,-0.21875,-0.15625
586,0.5332031,0.0067749023,-0.8076782,0.078125,0.359375,-0.265625
587,0.53100586,0.012390137,-0.7954712,0.53125,0.765625,-0.03125
588,0.52783203,0.007751465,-0.80010986,0.828125,0.5,0.109375
589,0.53466797,0.005065918,-0.7918091,0.453125,0.25,-0.015625
590,0.54052734,0.0079956055,-0.803772,0.21875,0.21875,-0.296875
591,0.5317383,0.01751709,-0.7991333,-0.28125,0.03125,-0.609375
592,0.532959,0.015563965,-0.802063,0.0625,0.078125,-0.25
593,0.53686523,0.020690918,-0.7996216,0.609375,0.046875,0.109375
594,0.5373535,0.01776123,-0.8074341,0.359375,0.28125,-0.015625
595,0.53100586,0.011413574,-0.7918091,0.578125,0.0,0.09375
596,0.54345703,0.012390137,-0.79815674,-0.4375,-0.1875,-0.46875
597,0.5241699,0.020202637,-0.7908325,-0.109375,0.109375,-0.390625
598,0.5354004,0.019470215,-0.8010864,0.484375,-0.421875,0.109375
599,0.53930664,0.016296387,-0.8088989,0.75,-0.5,0.25
600,0.5419922,0.019226074,-0.80181885,0.578125,-0.40625,0.03125
601,0.5456543,0.01751709,-0.7998657,0.234375,0.109375,-0.296875
602,0.5371094,0.0138549805,-0.78790283,0.078125,0.046875,-0.28125
603,0.53564453,0.014587402,-0.7930298,0.5,-0.265625,-0.03125
604,0.53125,0.012634277,-0.79644775,0.859375,-0.171875,0.171875
605,0.5517578,0.016784668,-0.8069458,0.546875,-0.078125,-0.109375
606,0.5439453,0.016296387,-0.8032837,0.3125,0.15625,-0.140625
607,0.54589844,0.02166748,-0.7962036,0.171875,0.109375,-0.328125
608,0.53930664,0.024353027,-0.78692627,0.265625,-0.09375,-0.34375
609,0.53100586,0.018981934,-0.7905884,0.265625,-0.234375,-0.203125
610,0.5419922,0.022155762,-0.79034424,0.65625,-0.46875,-0.015625
611,0.54541016,0.023864746,-0.8010864,0.515625,-0.578125,0.109375
612,0.5456543,0.021911621,-0.7962036,0.625,-0.703125,-0.046875
613,0.55200195,0.023132324,-0.79400635,0.015625,-0.125,-0.234375
614,0.54052734,0.023376465,-0.78692627,0.375,-0.125,-0.203125
615,0.5378418,0.028015137,-0.7835083,0.515625,-0.078125,0.09375
616,0.548584,0.026062012,-0.7966919,-0.515625,0.234375,-0.328125
617,0.54956055,0.022399902,-0.7905884,-0.453125,0.375,-0.609375
618,0.54418945,0.022155762,-0.7852173,-0.359375,0.40625,-0.484375
619,0.5354004,0.014831543,-0.79229736,0.140625,0.34375,-0.015625
620,0.5439453,0.018493652,-0.7959595,0.609375,0.171875,-0.015625
621,0.5427246,0.022888184,-0.78790283,0.96875,-0.21875,0.265625
622,0.55322266,0.02532959,-0.80670166,-0.125,0.265625,-0.296875
623,0.54467773,0.027282715,-0.79229736,0.0,-0.09375,-0.296875
624,0.5463867,0.02166748,-0.79693604,0.03125,-0.03125,-0.3125
625,0.5415039,0.018981934,-0.79351807,0.3125,-0.0625,-0.09375
626,0.54296875,0.020690918,-0.79278564,0.328125,0.109375,-0.140625
627,0.55126953,0.022888184,-0.78985596,0.453125,-0.0625,-0.0625
628,0.5510254,0.028015137,-0.79693604,0.09375,0.09375,-0.171875
629,0.5410156,0.020690918,-0.7893677,0.3125,-0.140625,-0.1875
630,0.5410156,0.023864746,-0.78375244,0.578125,-0.484375,-0.125
631,0.55444336,0.026550293,-0.7998657,0.203125,0.109375,-0.171875
632,0.54467773,0.027526855,-0.788147,0.125,-0.28125,-0.21875
633,0.5432129,0.022644043,-0.79644775,-0.109375,-0.15625,-0.484375
634,0.5493164,0.027526855,-0.7908325,0.015625,0.078125,-0.234375
635,0.53515625,0.032409668,-0.7859497,0.4375,-0.09375,-0.171875
636,0.54663086,0.024353027,-0.7876587,0.859375,-0.3125,-0.015625
637,0.54541016,0.025817871,-0.80059814,0.125,-0.09375,-0.21875
638,0.5554199,0.03314209,-0.79351807,0.015625,-0.078125,-0.421875
639,0.5432129,0.027526855,-0.7930298,0.03125,-0.09375,-0.28125
640,0.5493164,0.030944824,-0.7817993,0.265625,-0.0625,-0.359375
641,0.546875,0.026550293,-0.7893677,0.203125,0.0,-0.3125
642,0.54589844,0.026062012,-0.7871704,0.25,-0.140625,-0.15625
643,0.55126953,0.031921387,-0.7876587,0.21875,-0.3125,-0.265625
644,0.546875,0.030456543,-0.78692627,-0.046875,0.078125,-0.203125
645,0.5473633,0.030456543,-0.78570557,0.203125,0.078125,-0.203125
646,0.54833984,0.026794434,-0.78570557,0.328125,-0.15625,-0.0625
647,0.5500488,0.023376465,-0.78863525,0.359375,-0.015625,-0.1875
648,0.5517578,0.030212402,-0.7932739,-0.078125,-0.234375,-0.296875
649,0.55126953,0.03289795,-0.7901001,-0.265625,-0.296875,-0.4375
650,0.5493164,0.02557373,-0.78497314,0.15625,-0.15625,-0.171875
651,0.55200195,0.019714355,-0.78326416,0.421875,0.046875,0.09375
652,0.5527344,0.027770996,-0.7901001,0.296875,-0.0625,-0.046875
653,0.5566406,0.03338623,-0.7971802,-0.421875,-0.640625,-0.328125
654,0.5551758,0.034606934,-0.7896118,-0.484375,-0.046875,-0.671875
655,0.5493164,0.027526855,-0.7774048,-0.1875,0.40625,-0.359375
656,0.54907227,0.0289917,-0.7710571,0.28125,0.21875,-0.171875
657,0.55371094,0.029724121,-0.78204346,0.09375,0.296875,-0.140625
658,0.548584,0.029968262,-0.78375244,0.203125,-0.03125,-0.078125
659,0.5515137,0.029968262,-0.78570557,-0.09375,0.171875,-0.296875
660,0.55078125,0.024108887,-0.78375244,0.125,0.125,-0.171875
661,0.54956055,0.026062012,-0.78302,0.453125,-0.046875,0.078125
662,0.55200195,0.031188965,-0.78302,0.28125,-0.09375,-0.125
663,0.5534668,0.026550293,-0.7908325,0.1875,-0.15625,-0.21875
664,0.55981445,0.028015137,-0.7893677,-0.0625,-0.015625,-0.328125
665,0.548584,0.03387451,-0.78790283,-0.21875,-0.03125,-0.46875
666,0.54907227,0.029724121,-0.7739868,0.140625,0.046875,-0.296875
667,0.5515137,0.02532959,-0.788147,0.234375,0.171875,-0.015625
668,0.5493164,0.032165527,-0.78497314,0.53125,0.09375,-0.046875
669,0.55615234,0.034362793,-0.7817993,0.3125,0.0,-0.125
670,0.5539551,0.028015137,-0.7769165,0.234375,-0.03125,-0.296875
671,0.55493164,0.029724121,-0.78497314,-0.03125,0.359375,-0.296875
672,0.5498047,0.031188965,-0.78302,0.1875,0.03125,-0.25
673,0.5571289,0.035339355,-0.78692627,0.25,0.046875,-0.125
674,0.55810547,0.0289917,-0.784729,0.125,0.25,-0.25
675,0.55126953,0.02923584,-0.78570557,0.046875,0.078125,-0.234375
676,0.5517578,0.036315918,-0.78570557,0.28125,0.203125,-0.1875
677,0.5517578,0.032165527,-0.788147,0.015625,-0.109375,-0.21875
678,0.5515137,0.032409668,-0.78692627,0.203125,0.109375,-0.34375
679,0.5588379,0.02923584,-0.78375244,0.171875,0.046875,-0.15625
680,0.5566406,0.031188965,-0.7852173,0.4375,-0.140625,-0.171875
681,0.55200195,0.03753662,-0.7788696,0.46875,-0.015625,-0.265625
682,0.5551758,0.030456543,-0.7839966,0.3125,0.015625,-0.140625
683,0.5588379,0.03289795,-0.78326416,0.265625,-0.078125,-0.046875
684,0.5617676,0.031677246,-0.7893677,0.328125,-0.21875,-0.09375
685,0.5578613,0.035095215,-0.78912354,0.28125,-0.09375,-0.328125
686,0.5517578,0.034851074,-0.7786255,0.171875,-0.125,-0.203125
687,0.5571289,0.030212402,-0.7776489,0.203125,-0.046875,0.03125
688,0.56347656,0.03338623,-0.78985596,-0.125,0.140625,-0.328125
689,0.5534668,0.032165527,-0.7793579,-0.078125,0.390625,-0.453125
690,0.56152344,0.032409668,-0.7859497,-0.890625,0.984375,-0.625
691,0.5505371,0.031921387,-0.78253174,-0.5,1.375,-0.359375
692,0.5571289,0.030456543,-0.78253174,-0.625,1.3125,-0.453125
693,0.5534668,0.02947998,-0.7815552,-1.046875,3.015625,-0.5625
694,0.5422363,0.0289917,-0.7827759,-0.6875,2.890625,-0.359375
695,0.5444336,0.020690918,-0.7805786,-0.9375,4.171875,-0.1875
696,0.5422363,0.026794434,-0.7769165,-1.1875,3.453125,0.015625
697,0.54467773,0.020446777,-0.81036377,-1.71875,1.921875,-0.46875
698,0.5354004,0.022155762,-0.80133057,-1.859375,1.28125,-0.390625
699,0.53686523,0.020446777,-0.8010864,-2.0625,1.46875,-0.78125
700,0.529541,0.012634277,-0.80059814,-1.703125,1.46875,-0.765625
701,0.53125,0.012145996,-0.79278564,-1.359375,1.125,-0.609375
702,0.5319824,0.01727295,-0.79937744,-1.203125,0.6875,-0.5625
703,0.52783203,0.009216309,-0.8045044,-1.078125,0.578125,-0.5
704,0.53808594,0.007507324,-0.81573486,-0.90625,0.296875,-0.640625
705,0.53100586,0.007019043,-0.7979126,-0.6875,-0.203125,-0.734375
706,0.5373535,0.008972168,-0.80792236,-0.671875,-0.40625,-0.453125
707,0.53930664,0.0048217773,-0.8074341,-0.640625,-0.671875,-0.53125
708,0.5395508,0.008483887,-0.8008423,-0.125,-0.875,0.09375
709,0.5197754,0.0018920898,-0.7876587,1.796875,-2.25,1.109375
710,0.5349121,0.0053100586,-0.78497314,2.296875,-2.296875,1.234375
711,0.55029297,0.0138549805,-0.7971802,0.828125,-0.8125,0.046875
712,0.54907227,0.010925293,-0.80059814,0.1875,-0.0625,-0.28125
713,0.54418945,0.01776123,-0.7971802,0.359375,0.40625,-0.203125
714,0.53344727,0.022155762,-0.7852173,0.796875,0.453125,0.296875
715,0.54003906,0.0079956055,-0.784729,0.546875,0.34375,0.15625
716,0.5402832,0.012878418,-0.79522705,0.25,0.09375,-0.09375
717,0.53808594,0.0138549805,-0.7959595,0.03125,-0.1875,-0.1875
718,0.54418945,0.016052246,-0.802063,0.140625,-0.125,-0.125
719,0.54589844,0.022644043,-0.7966919,0.515625,0.03125,0.171875
720,0.5432129,0.015075684,-0.7949829,0.921875,-0.1875,0.125
721,0.54541016,0.018249512,-0.79937744,-0.078125,0.0,-0.390625
722,0.53759766,0.019958496,-0.78790283,-0.328125,0.15625,-0.46875
723,0.532959,0.018737793,-0.7793579,0.203125,-0.234375,-0.0625
724,0.5473633,0.0119018555,-0.78326416,0.328125,0.1875,-0.171875
725,0.5456543,0.023620605,-0.8008423,0.078125,0.078125,-0.1875
726,0.54785156,0.018249512,-0.8098755,-0.015625,0.25,-0.328125
727,0.5378418,0.015563965,-0.7893677,0.28125,-0.078125,-0.171875
728,0.5317383,0.018493652,-0.78009033,0.65625,0.046875,-0.078125
729,0.5410156,0.016052246,-0.78692627,0.46875,-0.125,-0.015625
730,0.5427246,0.016052246,-0.79351807,0.390625,-0.265625,-0.09375
731,0.5493164,0.024841309,-0.7991333,0.265625,0.078125,-0.15625
732,0.5444336,0.02947998,-0.79400635,0.328125,0.03125,-0.171875
733,0.5476074,0.020202637,-0.80255127,0.046875,-0.078125,-0.296875
734,0.5407715,0.023864746,-0.7786255,0.453125,-0.78125,-0.25
735,0.54125977,0.022155762,-0.80059814,0.015625,-0.25,-0.234375
736,0.54663086,0.016052246,-0.7876587,0.3125,-0.828125,-0.28125
737,0.5461426,0.02166748,-0.7883911,0.25,-0.75,-0.390625
738,0.55322266,0.018737793,-0.7896118,-0.140625,-0.59375,-0.53125
739,0.5439453,0.019470215,-0.7798462,0.359375,-0.046875,0.046875
740,0.5551758,0.022644043,-0.79400635,0.09375,0.0625,-0.125
741,0.5498047,0.022155762,-0.79107666,-0.125,0.53125,-0.328125
742,0.54711914,0.024108887,-0.7803345,-0.34375,0.28125,-0.421875
743,0.54785156,0.02557373,-0.7810669,-0.1875,0.234375,-0.5
744,0.5439453,0.017028809,-0.79107666,0.234375,0.265625,-0.234375
745,0.5422363,0.023620605,-0.7883911,0.53125,0.171875,0.078125
746,0.54833984,0.026306152,-0.79278564,0.46875,0.09375,0.03125
747,0.5500488,0.02532959,-0.7971802,0.0,0.375,-0.265625
748,0.54711914,0.023376465,-0.7866821,0.015625,0.0,-0.171875
749,0.5444336,0.016296387,-0.78326416,-0.046875,0.0625,-0.296875
750,0.5473633,0.020690918,-0.78131104,0.0625,-0.234375,-0.203125
751,0.5551758,0.018005371,-0.79888916,0.109375,0.125,-0.1875
752,0.5488281,0.023864746,-0.79229736,0.21875,-0.171875,-0.296875
753,0.55200195,0.023620605,-0.7908325,0.390625,-0.109375,-0.21875
754,0.54663086,0.019470215,-0.79400635,0.015625,-0.0625,-0.421875
