sample_no,accel_x,accel_y,accel_z,gyro_x,gyro_y,gyro_z
0,-0.0690918,-0.9092407,0.3912964,-1.015625,0.03125,-0.015625
1,-0.072509766,-0.9067993,0.38885498,-0.875,-0.640625,-0.328125
2,-0.059570312,-0.9163208,0.3817749,-0.640625,-1.125,0.0
3,-0.07543945,-0.90753174,0.418396,2.03125,-0.890625,0.109375
4,-0.07397461,-0.9351196,0.40594482,-2.328125,0.859375,-0.6875
5,-0.068603516,-0.9126587,0.40423584,3.109375,-2.5,-0.609375
6,-0.0690918,-0.90045166,0.38372803,1.078125,-0.921875,-0.625
7,-0.06738281,-0.8838501,0.3776245,-1.3125,0.859375,-0.0625
8,-0.060791016,-0.9138794,0.38812256,-1.328125,-0.828125,0.09375
9,-0.07055664,-0.9258423,0.38031006,-3.25,-1.421875,-0.171875
10,-0.0703125,-0.91241455,0.38519287,-3.453125,-1.015625,-0.109375
11,-0.07006836,-0.8970337,0.3912964,-1.046875,-0.640625,0.21875
12,-0.080078125,-0.9241333,0.41986084,-1.171875,-0.46875,0.0625
13,-0.064453125,-0.91119385,0.39764404,-2.015625,-2.359375,-0.3125
14,-0.061767578,-0.89630127,0.3829956,-1.390625,-1.328125,-0.28125
15,-0.064941406,-0.9077759,0.3883667,-0.390625,-0.890625,0.015625
16,-0.07055664,-0.91412354,0.40789795,-0.25,-0.59375,0.234375
17,-0.06738281,-0.9168091,0.39593506,-1.25,-1.640625,-0.25
18,-0.064453125,-0.9163208,0.38031006,-1.046875,-2.234375,-0.0625
19,-0.06689453,-0.90167236,0.4130249,1.375,-1.671875,0.046875
20,-0.06542969,-0.9241333,0.39959717,-0.34375,-0.34375,-0.03125
21,-0.05834961,-0.90167236,0.3925171,-4.65625,-1.046875,-0.71875
22,-0.07543945,-0.9019165,0.41571045,1.09375,-1.390625,-0.0625
23,-0.060302734,-0.92022705,0.39520264,-0.421875,-1.328125,-0.28125
24,-0.068115234,-0.9043579,0.39471436,-1.96875,-0.640625,-0.3125
25,-0.08496094,-0.8960571,0.41693115,-0.1875,0.15625,0.140625
26,-0.072265625,-0.90997314,0.39569092,-1.5625,-0.53125,-0.203125
27,-0.07055664,-0.9182739,0.41375732,-0.1875,-0.046875,-0.0625
28,-0.072509766,-0.8999634,0.40130615,-0.96875,0.40625,0.1875
29,-0.068603516,-0.9065552,0.39788818,-0.890625,-0.3125,-0.09375
30,-0.07080078,-0.9089966,0.4052124,0.140625,-0.71875,-0.078125
31,-0.0690918,-0.91778564,0.39764404,-1.3125,-0.4375,-0.25
32,-0.07446289,-0.9048462,0.40081787,-1.53125,-0.40625,-0.09375
33,-0.07006836,-0.90631104,0.39520264,-0.53125,-0.671875,-0.046875
34,-0.06713867,-0.91412354,0.40423584,-0.125,0.015625,0.1875
35,-0.072509766,-0.90875244,0.40545654,-1.078125,-0.4375,-0.125
36,-0.076171875,-0.9053345,0.3973999,-1.375,-0.21875,-0.21875
37,-0.07128906,-0.90167236,0.40374756,-0.265625,-0.34375,-0.109375
38,-0.067871094,-0.8933716,0.4088745,-0.359375,-1.265625,0.296875
39,-0.08251953,-0.9085083,0.4364624,1.0625,1.703125,0.640625
40,-0.06640625,-0.9307251,0.39471436,-3.203125,0.1875,-0.265625
41,-0.064453125,-0.9006958,0.4142456,1.21875,-1.71875,0.109375
42,-0.064941406,-0.913147,0.4142456,3.34375,-0.515625,0.125
43,-0.060058594,-0.89923096,0.3805542,-1.171875,-0.890625,-0.046875
44,-0.06323242,-0.9067993,0.38031006,-1.09375,-0.53125,-0.03125
45,-0.07104492,-0.9194946,0.39642334,-0.90625,-0.8125,-0.15625
46,-0.061035156,-0.91534424,0.40301514,-2.234375,-0.75,-0.453125
47,-0.0690918,-0.91607666,0.39349365,-2.6875,-0.46875,-0.375
48,-0.06518555,-0.90289307,0.4225464,1.125,2.0625,0.375
49,-0.061523438,-0.90216064,0.40740967,-1.421875,0.46875,-0.046875
50,-0.06713867,-0.9053345,0.42010498,-1.34375,-0.734375,-0.390625
51,-0.064453125,-0.9038696,0.4118042,-0.703125,-0.796875,-0.640625
52,-0.06518555,-0.9121704,0.42425537,-0.421875,-0.21875,-0.390625
53,-0.059570312,-0.9116821,0.40008545,-2.15625,-1.046875,-0.265625
54,-0.060058594,-0.9092407,0.38885498,-1.03125,-0.828125,-0.015625
55,-0.060546875,-0.897522,0.3859253,-1.6875,-0.875,-0.21875
56,-0.061035156,-0.9116821,0.40570068,-1.109375,-1.296875,-0.078125
57,-0.08203125,-0.9092407,0.4274292,0.90625,-0.625,-0.03125
58,-0.07006836,-0.91485596,0.40423584,-1.984375,0.1875,-0.203125
59,-0.05493164,-0.89556885,0.39691162,-3.40625,-0.609375,-0.125
60,-0.06933594,-0.90216064,0.4303589,1.65625,-0.40625,0.03125
61,-0.064453125,-0.90948486,0.4100952,0.25,0.21875,0.15625
62,-0.059570312,-0.89678955,0.4147339,0.125,-0.09375,0.0
63,-0.064208984,-0.90802,0.40447998,0.921875,0.078125,0.359375
64,-0.06542969,-0.9168091,0.41375732,0.71875,-0.90625,0.375
65,-0.07543945,-0.93341064,0.41766357,0.109375,-0.6875,0.046875
66,-0.0637207,-0.9038696,0.416687,-0.234375,1.796875,-0.125
67,-0.06713867,-0.9043579,0.41375732,-0.359375,0.734375,-0.171875
68,-0.0546875,-0.9155884,0.40203857,-0.46875,-1.09375,-0.3125
69,-0.05908203,-0.9072876,0.401062,-1.984375,-0.265625,-0.234375
70,-0.06225586,-0.89434814,0.39691162,-1.5,-3.90625,-0.75
71,-0.060302734,-0.8989868,0.39959717,-0.453125,-3.671875,-0.546875
72,-0.06298828,-0.8960571,0.40081787,-0.3125,-1.796875,-0.25
73,-0.06640625,-0.89312744,0.3973999,-0.046875,-2.65625,-0.140625
74,-0.072021484,-0.9265747,0.39398193,1.140625,-0.546875,-0.421875
75,-0.0546875,-0.9163208,0.3710327,-4.296875,-1.328125,-0.75
76,-0.084472656,-0.9116821,0.41400146,2.25,-0.40625,0.59375
77,-0.080566406,-0.9151001,0.39056396,2.515625,-0.65625,0.75
78,-0.06298828,-0.9006958,0.37835693,-0.609375,-1.53125,0.171875
79,-0.07470703,-0.9209595,0.38812256,-0.484375,-0.296875,0.0625
80,-0.071777344,-0.92681885,0.38861084,-0.609375,0.265625,0.09375
81,-0.06225586,-0.90704346,0.39031982,-0.65625,-0.5625,-0.125
82,-0.064453125,-0.90875244,0.38983154,-2.90625,-0.25,-0.328125
83,-0.059570312,-0.9067993,0.3949585,-0.890625,-0.125,-0.0625
84,-0.06933594,-0.90826416,0.4015503,0.8125,-0.171875,0.21875
85,-0.0690918,-0.9116821,0.40374756,-0.484375,-0.875,-0.015625
86,-0.06616211,-0.91412354,0.3932495,-0.515625,-1.03125,0.078125
87,-0.05053711,-0.9043579,0.39227295,-0.1875,-2.015625,-0.25
88,-0.07397461,-0.9199829,0.39544678,-0.484375,-2.796875,-0.390625
89,-0.07080078,-0.9204712,0.38641357,-1.65625,-2.546875,-0.71875
90,-0.07299805,-0.9072876,0.3817749,-1.875,-3.75,-0.453125
91,-0.08227539,-0.91119385,0.3842163,-2.078125,-3.1875,-0.578125
92,-0.0769043,-0.9065552,0.3961792,2.078125,-2.046875,0.484375
93,-0.080078125,-0.9365845,0.39276123,-1.640625,-1.234375,-0.546875
94,-0.072021484,-0.9116821,0.39178467,-2.65625,-2.46875,-0.046875
95,-0.099609375,-0.91119385,0.41278076,2.09375,-2.328125,0.796875
96,-0.08569336,-0.92022705,0.3944702,0.125,0.375,0.640625
97,-0.08618164,-0.9126587,0.40008545,-1.0625,0.6875,0.578125
98,-0.072753906,-0.92071533,0.40545654,-0.859375,-0.8125,0.453125
99,-0.0871582,-0.90802,0.3991089,-2.640625,-0.34375,-0.078125
100,-0.068115234,-0.913147,0.37420654,-3.03125,0.453125,0.3125
101,-0.078125,-0.8897095,0.3768921,-2.046875,-0.03125,-0.609375
102,-0.055908203,-0.91290283,0.3973999,1.84375,0.09375,-0.203125
103,-0.084472656,-0.9348755,0.42816162,2.921875,1.5625,0.421875
104,-0.057617188,-0.913147,0.39276123,-1.34375,2.046875,0.390625
105,-0.056640625,-0.8989868,0.4003296,1.0,2.5625,0.5625
106,-0.055908203,-0.925354,0.39007568,1.796875,0.71875,0.3125
107,-0.07128906,-0.9187622,0.38739014,-0.21875,0.609375,0.0
108,-0.0703125,-0.92315674,0.40203857,0.359375,1.875,-0.234375
109,-0.064208984,-0.9265747,0.40911865,0.953125,-0.6875,-0.03125
110,-0.067871094,-0.92266846,0.40203857,1.0625,0.359375,0.578125
111,-0.06225586,-0.88946533,0.3649292,-1.671875,-1.40625,-0.1875
112,-0.072021484,-0.92315674,0.39178467,3.578125,-1.6875,0.203125
113,-0.072753906,-0.9241333,0.385437,-0.171875,-0.515625,-0.09375
114,-0.06542969,-0.92022705,0.38568115,-1.0,0.0625,0.1875
115,-0.07373047,-0.9146118,0.3991089,-0.203125,-1.09375,-0.125
116,-0.057373047,-0.9163208,0.3973999,-2.546875,-0.765625,-0.328125
117,-0.0637207,-0.91729736,0.401062,-3.703125,-1.046875,-0.421875
118,-0.05859375,-0.9089966,0.4118042,-1.546875,-0.484375,-0.203125
119,-0.057861328,-0.9126587,0.38861084,-2.609375,-1.09375,-0.5625
120,-0.05859375,-0.8989868,0.38739014,-2.421875,-1.359375,-0.609375
121,-0.072021484,-0.90704346,0.40570068,-0.453125,-0.25,-0.09375
122,-0.07788086,-0.9102173,0.41351318,0.65625,0.140625,0.390625
123,-0.07006836,-0.9077759,0.40618896,-0.171875,-0.609375,-0.234375
124,-0.07324219,-0.91412354,0.401062,0.0,0.953125,0.015625
125,-0.055908203,-0.90582275,0.37298584,-0.609375,-0.1875,0.046875
126,-0.072753906,-0.9065552,0.40545654,1.75,-0.8125,-0.125
127,-0.064208984,-0.93414307,0.3991089,1.0,0.0,0.0625
128,-0.059570312,-0.90631104,0.37445068,-4.578125,0.109375,-0.640625
129,-0.06738281,-0.9031372,0.3998413,1.9375,-0.734375,0.234375
130,-0.061767578,-0.92266846,0.39105225,0.0625,-0.46875,-0.046875
131,-0.06591797,-0.9060669,0.39959717,-0.71875,0.375,0.265625
132,-0.068359375,-0.9048462,0.41156006,-0.734375,0.765625,0.453125
133,-0.067871094,-0.9104614,0.3944702,-1.71875,1.21875,0.71875
134,-0.075683594,-0.9085083,0.40496826,-2.171875,-0.0625,0.078125
135,-0.06762695,-0.91070557,0.4154663,-1.890625,-0.625,-0.09375
136,-0.06201172,-0.9060669,0.40667725,-1.1875,-0.46875,-0.0625
137,-0.05517578,-0.9072876,0.3912964,-1.21875,-1.125,-0.296875
138,-0.061767578,-0.91070557,0.40350342,-0.890625,-1.015625,-0.140625
139,-0.06762695,-0.8977661,0.4093628,-1.5625,-0.765625,-0.5625
140,-0.075683594,-0.9085083,0.40545654,-1.578125,-1.9375,-0.28125
141,-0.059570312,-0.9221802,0.39398193,-2.03125,-2.734375,-0.875
142,-0.061035156,-0.89385986,0.40350342,0.109375,0.046875,-0.21875
143,-0.06958008,-0.90216064,0.43182373,1.578125,-0.671875,0.25
144,-0.0625,-0.927063,0.39691162,-2.109375,0.578125,0.109375
145,-0.053710938,-0.89434814,0.39276123,-4.03125,0.296875,-0.734375
146,-0.068359375,-0.8982544,0.41522217,2.171875,-1.015625,-0.125
147,-0.0625,-0.90167236,0.40447998,0.421875,-1.25,-0.53125
148,-0.068115234,-0.9024048,0.42034912,0.140625,0.859375,0.578125
149,-0.075683594,-0.91363525,0.4315796,0.09375,0.65625,0.75
150,-0.07373047,-0.9158325,0.41107178,-2.4375,-0.09375,-0.078125
151,-0.07495117,-0.91070557,0.40252686,-2.234375,-0.953125,0.0625
152,-0.07055664,-0.89849854,0.41741943,-0.421875,-0.65625,-0.5625
153,-0.064941406,-0.90338135,0.40496826,-0.390625,-0.03125,0.109375
154,-0.061767578,-0.91192627,0.40350342,-0.84375,-0.859375,0.0625
155,-0.05908203,-0.90460205,0.40789795,-1.34375,-0.75,-0.1875
156,-0.064453125,-0.90411377,0.41497803,-1.484375,-0.046875,-0.046875
157,-0.0546875,-0.9060669,0.41400146,-0.703125,0.5625,-0.015625
158,-0.064697266,-0.9043579,0.41571045,-0.734375,-0.015625,0.03125
159,-0.06640625,-0.9092407,0.40350342,-0.796875,-0.796875,-0.046875
160,-0.05493164,-0.91973877,0.3834839,-0.71875,-0.609375,0.109375
161,-0.076171875,-0.9006958,0.43304443,3.828125,-0.875,0.734375
162,-0.072509766,-0.9338989,0.44036865,3.171875,2.296875,0.4375
163,-0.056152344,-0.911438,0.3781128,-3.8125,0.265625,-0.46875
164,-0.059814453,-0.9019165,0.40496826,-3.25,-1.875,-0.34375
165,-0.07421875,-0.9024048,0.40838623,-1.40625,-2.140625,-0.203125
166,-0.07006836,-0.8977661,0.4220581,-1.25,-2.34375,-0.75
167,-0.06933594,-0.90093994,0.41253662,-0.078125,-3.0625,-0.265625
168,-0.075927734,-0.9038696,0.40667725,1.140625,-1.5,-0.015625
169,-0.07763672,-0.9053345,0.41253662,0.796875,-0.859375,0.125
170,-0.07543945,-0.90216064,0.40863037,0.609375,-1.46875,0.140625
171,-0.08203125,-0.913147,0.4171753,0.796875,-0.25,0.25
172,-0.079833984,-0.90802,0.4039917,0.03125,-0.21875,0.40625
173,-0.07006836,-0.90167236,0.39935303,0.5625,-0.203125,0.09375
174,-0.07055664,-0.9182739,0.40081787,1.03125,0.109375,0.03125
175,-0.06982422,-0.90216064,0.3920288,-0.3125,-2.0625,-0.109375
176,-0.07299805,-0.9011841,0.4088745,1.96875,-0.0625,0.40625
177,-0.064941406,-0.91363525,0.3756714,-2.1875,0.515625,0.046875
178,-0.0690918,-0.89434814,0.41766357,-2.328125,-0.71875,-0.453125
179,-0.08129883,-0.91973877,0.41571045,1.625,0.03125,0.625
180,-0.07421875,-0.9077759,0.3895874,-0.625,-0.21875,-0.109375
181,-0.07910156,-0.9053345,0.4081421,0.25,0.5,0.09375
182,-0.07861328,-0.9072876,0.41937256,1.203125,-0.375,0.078125
183,-0.06567383,-0.9121704,0.39007568,-1.609375,-1.015625,-0.390625
184,-0.07080078,-0.91778564,0.3986206,-1.875,-0.71875,-0.5625
185,-0.072753906,-0.9089966,0.39520264,-0.984375,-0.5,-0.28125
186,-0.07055664,-0.9053345,0.39886475,-0.1875,-0.703125,-0.015625
187,-0.07104492,-0.91412354,0.4022827,-0.234375,-0.1875,0.15625
188,-0.068115234,-0.9053345,0.401062,-1.328125,-0.234375,-0.09375
189,-0.07373047,-0.9116821,0.40325928,-0.765625,-0.953125,-0.171875
190,-0.07714844,-0.90753174,0.4171753,0.046875,-0.578125,-0.015625
191,-0.076416016,-0.90631104,0.39471436,-1.40625,-0.015625,-0.28125
192,-0.06982422,-0.90509033,0.3920288,-0.8125,-0.25,-0.1875
193,-0.076416016,-0.90045166,0.40472412,0.828125,-1.53125,0.09375
194,-0.07324219,-0.9192505,0.42352295,2.359375,0.203125,0.359375
195,-0.063964844,-0.9072876,0.37615967,-3.609375,-0.59375,-0.5625
196,-0.075683594,-0.9006958,0.4076538,0.578125,-0.765625,0.15625
197,-0.071777344,-0.91729736,0.40911865,2.375,-0.25,0.46875
198,-0.068603516,-0.90997314,0.39837646,-0.890625,0.890625,-0.109375
199,-0.07714844,-0.91363525,0.4076538,-0.8125,1.1875,0.234375
200,-0.07055664,-0.91119385,0.401062,-0.421875,0.0,-0.03125
201,-0.057128906,-0.9146118,0.39276123,-1.234375,0.0,-0.296875
202,-0.072509766,-0.91119385,0.4003296,-1.734375,0.296875,-0.109375
203,-0.06958008,-0.9038696,0.39764404,-0.15625,-0.890625,-0.25
204,-0.064453125,-0.90338135,0.40496826,-0.171875,-0.359375,-0.109375
205,-0.067871094,-0.9065552,0.39813232,-1.015625,0.078125,-0.015625
206,-0.07397461,-0.91534424,0.4064331,-0.734375,0.484375,0.296875
207,-0.06518555,-0.90289307,0.401062,-0.296875,-0.875,-0.234375
208,-0.07470703,-0.9204712,0.40350342,0.28125,-0.078125,0.03125
209,-0.06347656,-0.9055786,0.39227295,-0.171875,0.25,-0.0625
210,-0.07397461,-0.9168091,0.40325928,0.265625,-0.875,-0.34375
211,-0.064453125,-0.9011841,0.40081787,-0.546875,-2.578125,-0.234375
212,-0.06591797,-0.91534424,0.39959717,2.46875,2.234375,0.421875
213,-0.05883789,-0.9138794,0.37127686,-4.46875,1.96875,-0.328125
214,-0.0703125,-0.8970337,0.40374756,0.71875,-0.5,-0.296875
215,-0.06567383,-0.91778564,0.39520264,1.65625,-1.234375,-0.28125
216,-0.06518555,-0.9102173,0.41741943,0.3125,1.046875,0.359375
217,-0.075927734,-0.9077759,0.41278076,-0.671875,0.578125,0.25
218,-0.07446289,-0.91290283,0.39422607,-1.796875,-0.6875,-0.046875
219,-0.05859375,-0.91070557,0.39276123,-1.84375,-0.171875,-0.546875
220,-0.063964844,-0.91656494,0.3932495,-1.40625,-0.75,-0.375
221,-0.05859375,-0.9043579,0.39178467,-0.828125,-1.359375,-0.515625
222,-0.0637207,-0.90948486,0.40789795,0.3125,-0.65625,0.09375
223,-0.06201172,-0.9014282,0.38226318,-0.78125,-0.015625,0.03125
224,-0.06665039,-0.9109497,0.40716553,-0.078125,0.375,0.140625
225,-0.06665039,-0.9246216,0.40716553,-0.640625,-0.078125,-0.046875
226,-0.06738281,-0.90948486,0.40252686,-1.0,-0.125,0.0625
227,-0.06201172,-0.8960571,0.40325928,0.6875,0.5,-0.015625
228,-0.06542969,-0.9199829,0.39471436,0.625,0.109375,0.0
229,-0.05517578,-0.90460205,0.40008545,0.90625,-1.265625,0.171875
230,-0.06616211,-0.92144775,0.40667725,1.96875,0.5,0.171875
231,-0.05493164,-0.9102173,0.3661499,-3.28125,0.484375,-0.140625
232,-0.064208984,-0.8987427,0.39300537,2.65625,-0.078125,0.09375
233,-0.05810547,-0.9212036,0.3883667,2.078125,0.9375,0.140625
234,-0.05883789,-0.9143677,0.3937378,0.609375,0.828125,0.234375
235,-0.05810547,-0.91485596,0.3949585,0.296875,0.78125,0.1875
236,-0.068359375,-0.9221802,0.38446045,-0.75,0.34375,0.140625
237,-0.055908203,-0.9121704,0.39471436,-0.875,0.125,-0.171875
238,-0.05444336,-0.9158325,0.3866577,-0.953125,-0.578125,-0.125
239,-0.057128906,-0.91241455,0.39056396,0.1875,-0.71875,-0.078125
240,-0.057373047,-0.91729736,0.3944702,-0.734375,0.421875,0.1875
241,-0.0546875,-0.9204712,0.3834839,-1.375,0.21875,0.125
242,-0.060791016,-0.9182739,0.38128662,-0.90625,-0.671875,-0.109375
243,-0.056152344,-0.9175415,0.38519287,-0.84375,-0.640625,-0.234375
244,-0.061523438,-0.9199829,0.40960693,-0.140625,0.078125,0.109375
245,-0.05834961,-0.9151001,0.3883667,-1.4375,-0.453125,0.0
246,-0.049316406,-0.9168091,0.3776245,-1.78125,-1.109375,-0.171875
247,-0.07006836,-0.9155884,0.40057373,-0.359375,-1.828125,-0.21875
248,-0.068603516,-0.92437744,0.4196167,0.484375,-0.140625,0.078125
249,-0.047607422,-0.90460205,0.38226318,-1.65625,0.0,-0.25
250,-0.049804688,-0.92755127,0.3847046,2.046875,1.65625,0.1875
251,-0.044433594,-0.90826416,0.3703003,-0.75,0.359375,-0.078125
252,-0.056152344,-0.9104614,0.39056396,-0.59375,0.546875,0.109375
253,-0.052734375,-0.92974854,0.38763428,0.375,0.875,0.125
254,-0.059570312,-0.9224243,0.4088745,-0.03125,-0.1875,0.0
255,-0.05493164,-0.9192505,0.3847046,-2.25,-1.421875,-0.265625
256,-0.04711914,-0.9036255,0.37249756,-2.0,-0.796875,-0.203125
257,-0.047851562,-0.91851807,0.3895874,-1.15625,-0.984375,-0.21875
258,-0.052734375,-0.9307251,0.38909912,-2.984375,-2.359375,-0.140625
259,-0.05126953,-0.9204712,0.387146,-3.359375,-2.859375,-0.4375
260,-0.05029297,-0.9126587,0.3920288,-4.328125,-0.921875,-0.015625
261,-0.07104492,-0.90826416,0.43011475,-0.265625,-1.828125,0.015625
262,-0.063964844,-0.92388916,0.4069214,-2.15625,-2.203125,-0.390625
263,-0.061035156,-0.91119385,0.40960693,-1.390625,-0.796875,-0.234375
264,-0.053222656,-0.88775635,0.37860107,-1.625,-1.1875,-0.390625
265,-0.056396484,-0.8989868,0.4064331,0.125,2.1875,-0.125
266,-0.056884766,-0.90948486,0.39349365,-2.796875,-1.46875,-0.8125
267,-0.061523438,-0.9019165,0.40594482,1.453125,-3.359375,0.125
268,-0.046875,-0.90509033,0.37078857,0.0625,-2.140625,-0.25
269,-0.048828125,-0.8909302,0.3739624,1.140625,-1.0,-0.28125
270,-0.056884766,-0.927063,0.4069214,-1.9375,-3.140625,-0.296875
271,-0.072509766,-0.9043579,0.39056396,0.203125,-0.171875,-0.109375
272,-0.06347656,-0.9216919,0.40081787,1.421875,-0.28125,0.34375
273,-0.057373047,-0.92193604,0.39642334,-0.46875,-1.28125,0.109375
274,-0.064208984,-0.9092407,0.38690186,-0.859375,-1.46875,0.015625
275,-0.059570312,-0.91363525,0.38006592,-0.03125,-0.53125,0.125
276,-0.05859375,-0.9158325,0.38641357,-0.265625,-0.15625,0.0625
277,-0.0546875,-0.9290161,0.38006592,-0.75,-0.59375,0.171875
278,-0.06567383,-0.90460205,0.40423584,0.703125,-2.140625,-0.0625
279,-0.061767578,-0.92437744,0.4003296,0.421875,-0.421875,-0.34375
280,-0.057617188,-0.9089966,0.37445068,-4.25,0.21875,-0.421875
281,-0.0690918,-0.90460205,0.40374756,1.328125,-1.109375,0.0625
282,-0.06933594,-0.92193604,0.38812256,0.90625,-1.359375,0.03125
283,-0.063964844,-0.9048462,0.3908081,-0.625,0.421875,-0.0625
284,-0.072753906,-0.9138794,0.39837646,-0.390625,0.5,0.03125
285,-0.06323242,-0.92144775,0.3932495,-1.21875,-0.203125,-0.078125
286,-0.057128906,-0.91534424,0.39349365,-1.40625,-0.78125,-0.140625
287,-0.057861328,-0.9182739,0.3847046,-2.34375,-0.484375,-0.25
288,-0.06542969,-0.9031372,0.3859253,-0.34375,-0.890625,-0.078125
289,-0.060546875,-0.91778564,0.38763428,0.40625,-0.234375,-0.03125
290,-0.06201172,-0.91412354,0.3866577,-0.921875,0.046875,-0.0625
291,-0.0637207,-0.91363525,0.40472412,-0.734375,0.109375,0.015625
292,-0.07104492,-0.91070557,0.40008545,-0.21875,-0.515625,0.0
293,-0.064208984,-0.91656494,0.38494873,-0.921875,-0.296875,-0.0625
294,-0.068115234,-0.91192627,0.3847046,-0.796875,-0.90625,-0.0625
295,-0.07397461,-0.9151001,0.41693115,0.578125,-1.5625,-0.015625
296,-0.064208984,-0.9348755,0.4142456,0.1875,1.953125,0.734375
297,-0.064208984,-0.8987427,0.39178467,1.40625,-2.78125,-0.0625
298,-0.0703125,-0.928772,0.4022827,1.703125,-0.9375,-0.15625
299,-0.06713867,-0.9038696,0.40740967,-0.59375,0.421875,0.09375
300,-0.067871094,-0.90631104,0.4208374,-1.15625,-0.1875,0.265625
301,-0.07080078,-0.9126587,0.38909912,-2.203125,-0.4375,0.171875
302,-0.061279297,-0.9133911,0.39178467,-2.109375,0.140625,-0.390625
303,-0.06665039,-0.9092407,0.39764404,-1.21875,-0.65625,-0.421875
304,-0.061035156,-0.90411377,0.3920288,-0.234375,-1.40625,-0.421875
305,-0.060058594,-0.9024048,0.39154053,-0.125,-1.25,-0.328125
306,-0.06640625,-0.9168091,0.39837646,-0.828125,0.140625,0.109375
307,-0.07128906,-0.91241455,0.41815186,0.140625,0.734375,0.328125
308,-0.067871094,-0.91900635,0.40911865,-0.671875,-0.078125,-0.0625
309,-0.06542969,-0.9143677,0.40252686,-3.734375,-0.296875,-0.0625
310,-0.05517578,-0.8977661,0.3866577,-3.65625,-1.5625,0.15625
311,-0.068115234,-0.8928833,0.4118042,0.28125,-0.859375,0.4375
312,-0.061523438,-0.9182739,0.41644287,1.390625,-0.078125,0.3125
313,-0.05834961,-0.9048462,0.3944702,-1.75,0.0625,-0.46875
314,-0.068359375,-0.90631104,0.40838623,3.046875,-1.234375,0.125
315,-0.061279297,-0.9168091,0.39691162,1.3125,0.109375,0.203125
316,-0.055664062,-0.91363525,0.39422607,-1.46875,0.484375,0.15625
317,-0.06201172,-0.9089966,0.40252686,-1.59375,-0.25,-0.03125
318,-0.060546875,-0.91607666,0.39593506,-2.15625,-0.546875,-0.5
319,-0.06738281,-0.9146118,0.40911865,-0.6875,0.171875,-0.125
320,-0.0625,-0.9038696,0.40374756,-1.375,-0.28125,-0.46875
321,-0.06323242,-0.89849854,0.4022827,-0.484375,-0.15625,-0.171875
322,-0.052978516,-0.91241455,0.41448975,-0.15625,0.515625,0.3125
323,-0.064697266,-0.9053345,0.41033936,-0.65625,0.171875,-0.09375
324,-0.05883789,-0.9060669,0.40740967,-0.71875,-0.84375,-0.25
325,-0.05883789,-0.9067993,0.42303467,0.0625,0.140625,0.078125
326,-0.068603516,-0.91070557,0.41888428,-0.515625,0.15625,0.3125
327,-0.06713867,-0.9175415,0.41400146,-0.578125,-1.15625,0.5625
328,-0.060791016,-0.90997314,0.4003296,-2.578125,-3.71875,-0.5625
329,-0.06542969,-0.90582275,0.4364624,-0.578125,0.734375,-0.359375
330,-0.059570312,-0.9065552,0.4171753,-2.203125,-1.234375,-0.546875
331,-0.059326172,-0.89508057,0.40863037,-2.234375,-0.125,-0.625
332,-0.0625,-0.8862915,0.42132568,-1.984375,-0.484375,-0.21875
333,-0.067871094,-0.9038696,0.4130249,-2.5625,-0.0625,-0.15625
334,-0.07324219,-0.90631104,0.42791748,-2.25,-0.109375,-0.234375
335,-0.055419922,-0.88531494,0.4220581,-1.625,-1.140625,-0.578125
336,-0.06933594,-0.89630127,0.42425537,-0.109375,0.21875,0.078125
337,-0.053955078,-0.9055786,0.41864014,-0.734375,-2.484375,0.109375
338,-0.067871094,-0.92193604,0.4381714,0.90625,2.359375,0.65625
339,-0.056152344,-0.8897095,0.43426514,0.453125,-0.109375,0.21875
340,-0.061035156,-0.89263916,0.41741943,-0.21875,-1.921875,-0.484375
341,-0.051513672,-0.8899536,0.40667725,0.453125,-0.171875,0.03125
342,-0.06518555,-0.90704346,0.4328003,0.953125,2.984375,0.265625
343,-0.053710938,-0.92681885,0.38275146,-3.890625,-0.203125,-0.609375
344,-0.056640625,-0.9019165,0.4244995,1.265625,-1.234375,0.046875
345,-0.076171875,-0.90289307,0.4303589,0.328125,-0.453125,0.421875
346,-0.06762695,-0.90093994,0.434021,1.0625,0.0625,0.46875
347,-0.059326172,-0.9002075,0.41131592,-1.6875,-0.703125,-0.375
348,-0.068115234,-0.90826416,0.40374756,-2.078125,-1.6875,-0.5
349,-0.06298828,-0.90802,0.40570068,-1.03125,-1.6875,-0.453125
350,-0.057617188,-0.89630127,0.3991089,0.0625,-1.828125,-0.296875
351,-0.06347656,-0.9065552,0.40081787,-0.59375,-0.21875,0.078125
352,-0.059814453,-0.90093994,0.42767334,0.625,1.25,0.34375
353,-0.07861328,-0.9182739,0.4352417,1.046875,1.0,0.140625
354,-0.061279297,-0.89556885,0.40838623,-2.921875,0.625,-0.40625
355,-0.0637207,-0.8936157,0.3944702,-0.546875,-1.46875,-0.921875
356,-0.076416016,-0.8960571,0.42401123,1.765625,-0.90625,-0.28125
357,-0.07324219,-0.9043579,0.4381714,3.03125,1.1875,0.34375
358,-0.047851562,-0.9248657,0.38934326,-1.828125,-0.1875,0.109375
359,-0.06982422,-0.89849854,0.40325928,0.140625,-0.484375,0.21875
360,-0.06347656,-0.9085083,0.41815186,3.515625,-0.421875,0.421875
361,-0.05126953,-0.9109497,0.39935303,-0.59375,-0.171875,0.03125
362,-0.06665039,-0.9143677,0.41448975,-1.015625,-1.375,-0.203125
363,-0.0690918,-0.91534424,0.4064331,-1.765625,1.0625,-0.09375
364,-0.041992188,-0.89312744,0.40301514,-2.265625,2.078125,-0.1875
365,-0.08251953,-0.90802,0.40423584,-3.125,1.640625,-0.21875
366,-0.059570312,-0.90997314,0.41351318,-2.046875,1.921875,-0.125
367,-0.06347656,-0.90216064,0.41937256,-2.65625,0.484375,-0.71875
368,-0.055419922,-0.89556885,0.4003296,-4.375,0.03125,-0.671875
369,-0.04711914,-0.9038696,0.4130249,-2.421875,0.34375,-0.515625
370,-0.0625,-0.89678955,0.41448975,-3.28125,-0.546875,-0.46875
371,-0.048828125,-0.89190674,0.41278076,-2.28125,-1.234375,-0.609375
372,-0.06933594,-0.89190674,0.41741943,-0.53125,-1.953125,-0.390625
373,-0.06274414,-0.8982544,0.41253662,-0.203125,-2.6875,-0.140625
374,-0.06616211,-0.8987427,0.43206787,0.6875,-1.140625,-0.03125
375,-0.052001953,-0.89923096,0.3991089,-1.484375,-1.296875,-0.28125
376,-0.07763672,-0.9026489,0.44525146,1.125,-0.734375,0.125
377,-0.057861328,-0.8960571,0.41937256,1.40625,-1.40625,0.015625
378,-0.07006836,-0.89556885,0.42156982,0.84375,-0.6875,0.296875
379,-0.06518555,-0.89849854,0.42913818,0.75,0.96875,0.484375
380,-0.06738281,-0.90826416,0.43670654,0.40625,0.453125,0.0
381,-0.056640625,-0.9026489,0.42718506,-0.828125,-2.171875,-0.171875
382,-0.06518555,-0.8994751,0.4118042,-1.734375,-0.8125,-0.21875
383,-0.06616211,-0.8928833,0.4130249,2.296875,1.03125,0.078125
384,-0.053955078,-0.9002075,0.42034912,0.984375,1.140625,0.25
385,-0.057861328,-0.911438,0.42230225,0.25,0.4375,0.15625
386,-0.05029297,-0.90826416,0.41448975,-0.703125,-0.140625,0.125
387,-0.056396484,-0.9089966,0.41351318,0.203125,-1.328125,-0.140625
388,-0.0637207,-0.9109497,0.3991089,-1.03125,-0.953125,-0.28125
389,-0.059814453,-0.8994751,0.41082764,-0.59375,-0.046875,-0.265625
390,-0.06323242,-0.89971924,0.4076538,-0.421875,-1.859375,-0.125
391,-0.06591797,-0.9072876,0.41864014,2.46875,0.015625,-0.125
392,-0.045654297,-0.9104614,0.3859253,-2.0625,-0.28125,-0.3125
393,-0.07397461,-0.8999634,0.4118042,0.109375,0.046875,-0.09375
394,-0.061767578,-0.9146118,0.42596436,3.390625,0.53125,0.328125
395,-0.064453125,-0.90631104,0.41864014,0.359375,0.140625,0.203125
396,-0.055419922,-0.9060669,0.40472412,-0.6875,-0.765625,0.28125
397,-0.06225586,-0.9109497,0.4147339,0.109375,0.40625,0.09375
398,-0.05053711,-0.90460205,0.40301514,-1.125,-0.296875,-0.1875
399,-0.060791016,-0.909729,0.38323975,-2.5,-0.6875,-0.359375
400,-0.048583984,-0.9038696,0.4039917,0.703125,0.484375,0.09375
401,-0.055664062,-0.9146118,0.41131592,1.3125,0.703125,0.3125
402,-0.05859375,-0.9133911,0.402771,1.09375,0.59375,0.421875
403,-0.05053711,-0.91241455,0.3961792,0.0625,0.671875,0.25
404,-0.057617188,-0.92266846,0.40911865,1.53125,1.671875,0.421875
405,-0.05053711,-0.9036255,0.39471436,0.96875,0.1875,0.203125
406,-0.049316406,-0.9055786,0.39105225,0.671875,0.609375,0.171875
407,-0.045166016,-0.9053345,0.38812256,0.578125,-0.234375,-0.03125
408,-0.052490234,-0.9194946,0.41497803,3.515625,0.921875,0.203125
409,-0.047851562,-0.9182739,0.36688232,0.109375,0.4375,0.328125
410,-0.041748047,-0.9241333,0.36761475,1.90625,0.4375,0.40625
411,-0.044433594,-0.93218994,0.3756714,0.328125,-0.796875,0.125
412,-0.052001953,-0.9260864,0.3751831,-0.234375,-0.375,-0.046875
413,-0.028320312,-0.91973877,0.369812,-0.625,0.46875,-0.078125
414,-0.03466797,-0.925354,0.35736084,-2.609375,-0.96875,0.0
415,-0.03564453,-0.925354,0.3727417,-2.078125,-0.625,-0.84375
416,-0.044189453,-0.91729736,0.37713623,-3.109375,-1.546875,-0.890625
417,-0.051513672,-0.92144775,0.38226318,0.375,1.953125,0.4375
418,-0.041503906,-0.91241455,0.37835693,-0.5625,0.234375,-0.09375
419,-0.045166016,-0.91485596,0.37860107,0.953125,-0.421875,0.3125
420,-0.041748047,-0.9133911,0.3703003,0.109375,1.09375,0.4375
421,-0.034179688,-0.9180298,0.37078857,1.296875,1.4375,0.5625
422,-0.032958984,-0.927063,0.36639404,1.0,-0.53125,0.328125
423,-0.033203125,-0.92633057,0.3829956,1.578125,-0.09375,0.234375
424,-0.030273438,-0.93878174,0.355896,-2.671875,-1.109375,0.0625
425,-0.037353516,-0.9151001,0.36517334,-2.6875,-1.40625,-0.171875
426,-0.01977539,-0.9326782,0.3793335,-0.609375,-1.453125,-0.578125
427,-0.039794922,-0.91534424,0.35614014,-3.609375,-0.6875,0.09375
428,-0.032226562,-0.9155884,0.37225342,-0.625,1.1875,0.359375
429,-0.052001953,-0.92681885,0.39178467,0.15625,0.0625,0.046875
430,-0.040527344,-0.9212036,0.37860107,1.25,0.9375,-0.203125
431,-0.044189453,-0.92144775,0.37347412,1.625,1.578125,0.328125
432,-0.03466797,-0.9175415,0.36590576,2.625,1.5625,0.375
433,-0.017333984,-0.92681885,0.36175537,3.84375,2.34375,0.46875
434,-0.02319336,-0.93756104,0.3571167,1.03125,0.6875,0.25
435,-0.020019531,-0.9348755,0.3607788,0.78125,1.046875,-0.296875
436,-0.0234375,-0.92681885,0.36468506,0.390625,0.203125,-0.0625
437,-0.028808594,-0.92071533,0.35736084,-0.15625,0.515625,0.109375
438,-0.01586914,-0.92974854,0.34661865,-0.859375,0.25,0.1875
439,-0.041992188,-0.9356079,0.35443115,-1.140625,0.265625,0.109375
440,-0.0234375,-0.92437744,0.36663818,1.046875,0.125,-0.234375
441,-0.028320312,-0.9307251,0.36932373,-0.21875,0.796875,-0.234375
442,-0.013916016,-0.9168091,0.33538818,-3.0,0.734375,-0.09375
443,-0.03100586,-0.9290161,0.3612671,-0.34375,1.65625,-0.375
444,-0.022460938,-0.9348755,0.3776245,-1.53125,2.984375,0.46875
445,-0.020019531,-0.92266846,0.35931396,-1.953125,-0.015625,0.078125
446,-0.024902344,-0.9348755,0.3637085,-1.359375,-0.9375,-0.0625
447,-0.017333984,-0.9380493,0.36517334,-2.640625,0.1875,0.125
448,-0.016601562,-0.9234009,0.36468506,-0.765625,-0.734375,-0.015625
449,-0.020996094,-0.925354,0.36419678,0.71875,-0.796875,-0.3125
450,-0.015136719,-0.9241333,0.35809326,0.03125,-0.015625,0.1875
451,-0.020019531,-0.9212036,0.3637085,0.390625,1.265625,0.203125
452,-0.005859375,-0.94781494,0.34954834,-0.046875,1.671875,0.21875
453,0.012207031,-0.9402466,0.34344482,0.78125,0.78125,0.140625
454,0.0031738281,-0.94415283,0.3048706,-1.25,-1.109375,0.109375
455,0.0034179688,-0.9390259,0.30706787,-0.046875,-0.046875,-0.390625
456,0.0043945312,-0.93951416,0.33221436,-0.265625,0.0625,-0.140625
457,0.0014648438,-0.94488525,0.33294678,0.15625,-0.96875,0.03125
458,0.0061035156,-0.9373169,0.31121826,-0.40625,-0.109375,0.015625
459,0.0017089844,-0.9529419,0.35101318,-0.65625,-0.09375,0.125
460,-0.0007324219,-0.92315674,0.31170654,-0.859375,-1.359375,-0.125
461,0.0009765625,-0.94073486,0.32684326,0.4375,0.625,-0.125
462,0.0087890625,-0.9417114,0.32513428,-0.5,0.53125,0.125
463,0.0053710938,-0.9336548,0.3180542,-0.25,1.0,-0.078125
464,0.01171875,-0.9463501,0.32366943,0.40625,0.734375,-0.078125
465,0.009033203,-0.9458618,0.3307495,1.0,-0.0625,-0.3125
466,0.0048828125,-0.9451294,0.3163452,0.375,-1.09375,-0.09375
467,0.005859375,-0.9434204,0.3139038,-0.359375,-1.5625,-0.21875
468,0.0078125,-0.94415283,0.30950928,-0.671875,-0.65625,-0.0625
469,0.010986328,-0.94488525,0.31072998,-0.78125,-1.703125,-0.359375
470,-0.0009765625,-0.9456177,0.31976318,-0.109375,-1.578125,-0.234375
471,0.006591797,-0.9517212,0.2958374,-3.84375,-3.171875,0.015625
472,-0.008544922,-0.9209595,0.34954834,-2.734375,-4.015625,-0.84375
473,-0.0021972656,-0.9483032,0.3427124,1.453125,-0.546875,-0.625
474,0.0075683594,-0.9324341,0.3126831,0.609375,0.703125,0.109375
475,0.0017089844,-0.94195557,0.32977295,2.984375,2.03125,0.421875
476,-0.008544922,-0.94195557,0.2609253,-1.828125,-3.375,0.28125
477,-0.00048828125,-0.94244385,0.2909546,1.375,-2.8125,-0.15625
478,-0.0021972656,-0.94366455,0.29534912,-0.390625,-3.0,-0.390625
479,0.0017089844,-0.94317627,0.2921753,0.765625,-1.453125,-0.015625
480,-0.013183594,-0.9619751,0.32635498,1.0625,-0.8125,-0.078125
481,-0.0021972656,-0.94488525,0.26239014,-0.28125,-3.78125,0.109375
482,0.0034179688,-0.94903564,0.28289795,0.609375,-2.65625,-0.609375
483,-0.0034179688,-0.95025635,0.28485107,-1.0,-1.0625,-0.53125
484,-0.013671875,-0.96173096,0.30316162,0.265625,-1.34375,-0.34375
485,-0.01977539,-0.9570923,0.30316162,0.0625,-0.375,-0.375
486,0.0026855469,-0.95928955,0.26727295,-2.84375,-1.828125,-0.015625
487,-0.023925781,-0.942688,0.30584717,-0.5625,-0.921875,-0.09375
488,-0.0107421875,-0.9553833,0.30194092,0.046875,-0.921875,-0.28125
489,-0.010498047,-0.95440674,0.2843628,-1.265625,-0.546875,0.21875
490,-0.011230469,-0.9439087,0.29559326,-1.796875,-0.375,-0.015625
491,-0.016357422,-0.95977783,0.31170654,-0.8125,-0.28125,-0.15625
492,0.00024414062,-0.94976807,0.29534912,-1.09375,0.203125,0.078125
493,-0.009033203,-0.9414673,0.2831421,-2.390625,-0.046875,0.28125
494,-0.016357422,-0.954895,0.29071045,-2.25,-0.921875,0.046875
495,-0.0029296875,-0.9522095,0.29681396,-2.265625,1.734375,0.5
496,-0.010986328,-0.95025635,0.35125732,-1.09375,1.484375,-0.359375
497,-0.008056641,-0.9512329,0.32513428,-1.375,-1.34375,-0.390625
498,0.001953125,-0.923645,0.3065796,-0.703125,-1.421875,-0.796875
499,-0.009521484,-0.9429321,0.31341553,0.859375,-2.484375,-0.59375
500,-0.005126953,-0.95562744,0.29656982,0.296875,-2.5625,-0.375
501,-0.009765625,-0.94659424,0.30218506,-0.609375,-2.109375,-0.34375
502,-0.020751953,-0.9524536,0.3036499,-0.453125,-2.15625,-0.296875
503,-0.011962891,-0.9265747,0.2958374,-1.515625,-3.4375,-0.796875
504,-0.0234375,-0.95098877,0.32391357,2.96875,-2.15625,-0.125
505,-0.008300781,-0.9505005,0.30145264,-0.375,-0.65625,0.140625
506,-0.0126953125,-0.9480591,0.3156128,-0.109375,-0.875,0.0625
507,-0.02734375,-0.9463501,0.32073975,-0.125,-0.984375,0.296875
508,-0.010986328,-0.9402466,0.30145264,-0.796875,-1.28125,0.140625
509,-0.008300781,-0.9536743,0.29656982,-1.796875,-1.109375,-0.34375
510,-0.0007324219,-0.9439087,0.28948975,-0.0625,-0.625,-0.296875
511,-0.018310547,-0.9505005,0.30804443,-0.5,0.203125,-0.125
512,-0.015625,-0.9475708,0.31243896,0.828125,-0.453125,0.359375
513,-0.0126953125,-0.95635986,0.31341553,-1.109375,-0.5,-0.015625
514,-0.015625,-0.9451294,0.309021,-0.59375,-0.046875,0.125
515,-0.012207031,-0.9468384,0.30413818,-0.828125,-0.65625,-0.234375
516,-0.0126953125,-0.9534302,0.3036499,-1.03125,-0.734375,-0.265625
517,-0.017822266,-0.94732666,0.30389404,-0.5625,-0.53125,-0.0625
518,-0.013671875,-0.94244385,0.32244873,0.34375,-0.859375,-0.171875
519,-0.0126953125,-0.95880127,0.3156128,0.46875,0.453125,0.109375
520,-0.018066406,-0.9402466,0.29315186,-2.328125,-0.140625,-0.1875
521,-0.0087890625,-0.9429321,0.31170654,1.28125,-0.5,-0.296875
522,-0.014160156,-0.95196533,0.31536865,-0.3125,0.328125,-0.21875
523,-0.012939453,-0.94073486,0.30194092,-0.890625,-0.578125,-0.09375
524,-0.011474609,-0.9561157,0.30560303,0.859375,0.921875,0.484375
525,-0.020263672,-0.9487915,0.30828857,0.734375,-0.390625,0.046875
526,-0.0056152344,-0.9507446,0.29241943,-2.03125,-0.734375,-0.109375
527,-0.0107421875,-0.9414673,0.28533936,-0.359375,-0.375,-0.1875
528,-0.013427734,-0.94659424,0.30413818,-0.34375,0.8125,-0.078125
529,-0.015625,-0.94732666,0.30999756,-0.25,-0.53125,0.03125
530,-0.016357422,-0.94610596,0.30706787,-1.390625,-1.0,-0.296875
531,-0.018554688,-0.9505005,0.3143921,-1.640625,-1.6875,-0.40625
532,-0.015136719,-0.94537354,0.30828857,-2.5625,-2.03125,-0.59375
533,-0.017089844,-0.9348755,0.30706787,-4.1875,-1.109375,-0.578125
534,-0.01586914,-0.9495239,0.3065796,-1.8125,-1.375,-0.4375
535,-0.008544922,-0.94073486,0.3139038,-0.90625,-0.890625,-0.5625
536,-0.024902344,-0.95513916,0.3209839,0.40625,0.421875,-0.359375
537,-0.0056152344,-0.93878174,0.27850342,-2.5,0.25,-0.1875
538,-0.024658203,-0.94122314,0.32562256,0.640625,-0.296875,-0.203125
539,-0.024169922,-0.94732666,0.34979248,1.578125,0.078125,-0.046875
540,-0.021240234,-0.9624634,0.32611084,-3.265625,-2.875,0.03125
541,-0.007080078,-0.9336548,0.29534912,-4.171875,-2.5625,-0.296875
542,-0.028564453,-0.9378052,0.32366943,-2.265625,-1.234375,-0.53125
543,-0.01928711,-0.9475708,0.3258667,-0.390625,0.078125,-0.09375
544,-0.027832031,-0.940979,0.32000732,-1.375,-1.125,-0.40625
545,-0.008056641,-0.9312134,0.31732178,-0.15625,-0.734375,-0.1875
546,-0.016113281,-0.93536377,0.32196045,-0.625,-0.4375,-0.21875
547,-0.022949219,-0.94854736,0.322937,-0.96875,-0.875,0.0
548,-0.017089844,-0.9385376,0.31341553,-0.546875,0.046875,-0.0625
549,-0.014892578,-0.944397,0.322937,-0.4375,0.546875,-0.21875
550,-0.024414062,-0.9429321,0.32000732,-0.78125,-0.125,-0.078125
551,-0.023925781,-0.9390259,0.32659912,-0.140625,0.5,-0.046875
552,-0.017822266,-0.9429321,0.324646,-0.046875,-0.421875,0.171875
553,-0.017578125,-0.9360962,0.33270264,-0.59375,-0.765625,-0.296875
554,-0.020751953,-0.94976807,0.30169678,-1.515625,0.375,0.484375
555,-0.019042969,-0.9295044,0.32000732,-2.40625,-0.3125,-0.265625
556,-0.021240234,-0.9517212,0.34954834,1.140625,-0.84375,-0.28125
557,-0.0107421875,-0.94244385,0.32611084,-0.875,1.265625,0.609375
558,-0.00390625,-0.9312134,0.31854248,-2.671875,1.5625,0.703125
559,-0.017822266,-0.9324341,0.33831787,-1.625,0.125,0.234375
560,-0.0029296875,-0.9446411,0.29632568,-2.359375,0.109375,0.3125
561,-0.020263672,-0.9356079,0.3102417,-4.71875,0.703125,0.109375
562,-0.025878906,-0.9451294,0.35614014,-0.984375,-0.953125,-0.390625
563,-0.030273438,-0.94854736,0.36566162,-0.609375,-0.0625,-0.0625
564,-0.015380859,-0.9265747,0.36956787,-2.09375,-0.109375,-0.375
565,-0.0107421875,-0.93341064,0.3703003,0.28125,-3.40625,-0.171875
566,-0.016845703,-0.9295044,0.33172607,0.453125,-2.609375,-0.75
567,-0.01586914,-0.9221802,0.33807373,0.515625,-0.859375,-0.4375
568,-0.022949219,-0.9338989,0.34466553,1.5625,-2.0,-0.015625
569,-0.02368164,-0.923645,0.3463745,2.75,-1.90625,-0.125
570,-0.018554688,-0.9507446,0.29925537,-0.234375,-2.75,-0.546875
571,-0.024169922,-0.9365845,0.3307495,-1.0,-1.28125,-0.65625
572,-0.024169922,-0.9414673,0.34783936,1.984375,-0.828125,0.109375
573,-0.0390625,-0.9417114,0.3456421,-0.078125,-1.125,0.15625
574,-0.029541016,-0.93218994,0.32269287,-0.28125,-0.890625,0.140625
575,-0.025390625,-0.93463135,0.34051514,1.015625,-0.796875,-0.171875
576,-0.020507812,-0.9483032,0.33319092,-0.09375,-1.140625,-0.046875
577,-0.025878906,-0.9404907,0.32611084,-1.90625,-0.875,-0.171875
578,-0.017822266,-0.94073486,0.32391357,-0.09375,-0.671875,-0.078125
579,-0.028808594,-0.94659424,0.32635498,-0.203125,-0.75,-0.140625
580,-0.02734375,-0.9390259,0.3319702,0.4375,0.34375,0.3125
581,-0.024902344,-0.944397,0.32855225,-0.796875,0.078125,0.0
582,-0.032958984,-0.9365845,0.33270264,-0.734375,-0.828125,-0.328125
583,-0.02758789,-0.93463135,0.31781006,-0.390625,-0.578125,-0.28125
584,-0.025634766,-0.94000244,0.322937,-0.390625,0.296875,-0.28125
585,-0.03149414,-0.94122314,0.32366943,-0.59375,-0.390625,0.046875
586,-0.034423828,-0.93414307,0.34490967,0.484375,-0.8125,0.0
587,-0.024658203,-0.95513916,0.3414917,1.109375,1.03125,0.25
588,-0.02709961,-0.93096924,0.29974365,-2.71875,-0.171875,-0.125
589,-0.026367188,-0.93170166,0.33514404,1.0,-1.40625,-0.15625
590,-0.024902344,-0.9505005,0.3307495,0.265625,0.609375,-0.046875
591,-0.028564453,-0.9368286,0.338562,0.265625,1.453125,0.484375
592,-0.021484375,-0.9380493,0.33099365,0.203125,-0.46875,0.15625
593,-0.01928711,-0.9522095,0.31951904,-0.65625,-0.984375,-0.328125
594,-0.017822266,-0.9373169,0.31854248,-1.5,-0.390625,-0.21875
595,-0.020507812,-0.94317627,0.324646,-0.65625,-0.3125,-0.34375
596,-0.01977539,-0.9373169,0.32513428,-0.796875,-0.828125,-0.25
597,-0.024414062,-0.94073486,0.33807373,-0.1875,-0.078125,0.078125
598,-0.026123047,-0.9331665,0.33172607,0.265625,0.484375,0.328125
599,-0.025634766,-0.9385376,0.3307495,1.015625,-0.140625,0.046875
600,-0.022216797,-0.9456177,0.3156128,-0.8125,0.0625,-0.046875
601,-0.021728516,-0.9480591,0.31292725,-0.953125,-0.203125,-0.109375
602,-0.02368164,-0.9402466,0.32440186,0.28125,-0.09375,0.0625
603,-0.02758789,-0.927063,0.32489014,0.796875,-0.234375,0.140625
604,-0.016113281,-0.9468384,0.32513428,1.21875,0.53125,0.21875
605,-0.020507812,-0.9380493,0.29681396,-2.0625,-0.15625,-0.015625
606,-0.030517578,-0.9414673,0.31903076,0.703125,-0.296875,-0.21875
607,-0.022460938,-0.9487915,0.33587646,0.46875,0.578125,-0.015625
608,-0.01928711,-0.9458618,0.30633545,-0.59375,0.0,0.25
609,-0.017578125,-0.94195557,0.31048584,0.453125,1.28125,0.125
610,-0.022949219,-0.9512329,0.3131714,0.515625,0.515625,0.109375
611,-0.015136719,-0.94415283,0.3209839,-0.09375,-0.015625,-0.234375
612,-0.0146484375,-0.9417114,0.31341553,0.171875,-0.203125,0.109375
613,-0.017089844,-0.94976807,0.31536865,-0.046875,0.328125,0.1875
614,-0.013916016,-0.940979,0.3078003,-0.28125,-0.09375,0.203125
615,-0.017333984,-0.940979,0.3078003,-0.40625,-0.4375,-0.140625
616,-0.0146484375,-0.942688,0.31732178,-0.9375,0.109375,-0.0625
617,-0.022949219,-0.93414307,0.30340576,-0.53125,0.90625,0.203125
618,-0.015625,-0.9368286,0.32928467,-0.828125,0.0625,-0.515625
619,-0.0048828125,-0.9541626,0.31610107,-0.21875,-0.640625,-0.078125
620,-0.007080078,-0.9512329,0.30560303,-1.296875,-0.03125,0.1875
621,-0.029052734,-0.93707275,0.32733154,0.796875,0.71875,0.15625
622,-0.006591797,-0.95196533,0.2850952,-2.015625,-1.109375,-0.46875
623,-0.020019531,-0.9434204,0.30584717,-1.46875,-0.59375,-0.09375
624,-0.017578125,-0.9578247,0.3270874,-0.046875,0.71875,-0.203125
625,-0.016601562,-0.95025635,0.3151245,-1.578125,0.0625,0.15625
626,-0.014892578,-0.9338989,0.30950928,-2.421875,0.578125,0.296875
627,-0.010253906,-0.9295044,0.33929443,-0.453125,0.78125,0.0625
628,-0.0063476562,-0.9522095,0.32562256,0.0,-0.53125,-0.1875
629,-0.012207031,-0.94781494,0.3114624,-2.0625,-1.234375,0.0
630,-0.005859375,-0.93927,0.31658936,0.234375,0.484375,-0.140625
631,-0.010253906,-0.93927,0.31732178,1.03125,-0.703125,0.15625
632,-0.01171875,-0.95269775,0.31170654,0.484375,-1.4375,0.21875
633,-0.021484375,-0.94732666,0.30950928,-1.578125,-0.515625,0.125
634,-0.022460938,-0.9434204,0.31365967,-1.4375,-0.9375,0.078125
635,-0.013671875,-0.94659424,0.30950928,-1.03125,-0.234375,-0.25
636,-0.0031738281,-0.9402466,0.3053589,-1.6875,0.21875,-0.265625
637,-0.017333984,-0.93951416,0.32562256,-0.203125,0.328125,0.078125
638,-0.013427734,-0.94244385,0.31610107,-0.453125,-0.90625,0.15625
639,-0.008544922,-0.9429321,0.33538818,0.90625,1.015625,-0.140625
640,-0.012451172,-0.95440674,0.31756592,-1.78125,0.265625,0.0
641,-0.0146484375,-0.9414673,0.31365967,-0.875,-1.109375,-0.21875
642,-0.007080078,-0.94854736,0.3156128,0.0,-0.625,-0.28125
643,-0.0017089844,-0.9475708,0.29925537,-1.0,-1.796875,0.03125
644,-0.022949219,-0.94537354,0.324646,-0.078125,-0.796875,0.046875
645,-0.010253906,-0.9475708,0.32196045,0.203125,-0.625,-0.1875
646,-0.0043945312,-0.9505005,0.31610107,-0.59375,-0.109375,-0.03125
647,-0.016357422,-0.94488525,0.3126831,-0.9375,-0.21875,-0.125
648,-0.0041503906,-0.9314575,0.3168335,-0.234375,-0.21875,-0.203125
649,-0.0021972656,-0.9458618,0.3192749,-0.15625,0.609375,0.09375
650,-0.022705078,-0.9463501,0.32928467,-0.578125,-0.421875,0.125
651,-0.004638672,-0.94317627,0.31610107,-0.078125,0.140625,-0.203125
652,-0.021240234,-0.94659424,0.31658936,0.265625,0.8125,0.0625
653,-0.014404297,-0.95098877,0.32073975,-0.203125,1.21875,0.0
654,-0.013916016,-0.9348755,0.30291748,-1.203125,0.421875,0.5
655,0.013183594,-0.93536377,0.31756592,0.640625,-1.21875,-0.78125
656,-0.010498047,-0.9673462,0.3480835,0.71875,-0.625,-0.390625
657,0.009765625,-0.9356079,0.28753662,-2.921875,-1.09375,-0.09375
658,-0.013427734,-0.9368286,0.31585693,-0.796875,-1.078125,-0.21875
659,-0.0048828125,-0.9404907,0.3139038,0.25,-0.578125,-0.203125
660,-0.0024414062,-0.9446411,0.30438232,-0.453125,-0.0625,-0.1875
661,-0.012451172,-0.9468384,0.3114624,-0.6875,-0.59375,-0.484375
662,-0.012207031,-0.9417114,0.31072998,2.25,1.96875,-0.1875
663,-0.007080078,-0.9475708,0.3085327,2.734375,2.359375,0.296875
664,0.00390625,-0.9463501,0.30194092,0.625,-1.015625,0.0
665,-0.007080078,-0.9612427,0.2987671,-2.296875,-2.875,0.03125
666,-0.00024414062,-0.9446411,0.30169678,-1.03125,0.015625,-0.09375
667,0.00024414062,-0.9534302,0.29681396,0.5,-1.203125,-0.234375
668,0.0041503906,-0.94366455,0.27508545,1.671875,0.5,0.125
669,0.012451172,-0.9536743,0.28411865,3.6875,0.65625,0.375
670,0.0036621094,-0.97784424,0.28118896,2.09375,-0.046875,-0.015625
671,0.011230469,-0.94976807,0.24261475,-2.5,-1.734375,-0.234375
672,-0.0026855469,-0.9595337,0.28533936,-0.25,-1.078125,-0.421875
673,0.012939453,-0.95562744,0.2609253,-0.84375,-1.40625,-0.375
674,0.0026855469,-0.9541626,0.26654053,-1.046875,0.953125,0.171875
675,0.0056152344,-0.9651489,0.28704834,-0.359375,-0.078125,-0.1875
676,0.0034179688,-0.95562744,0.2489624,-2.984375,-0.84375,0.03125
677,0.008544922,-0.9517212,0.27557373,-2.4375,-0.71875,-0.046875
678,0.0068359375,-0.95318604,0.26898193,-1.5,-1.703125,-0.421875
679,0.009033203,-0.96832275,0.29559326,-1.234375,-0.390625,-0.078125
680,0.0031738281,-0.9656372,0.28045654,-2.8125,-1.5625,0.203125
681,-0.0061035156,-0.95758057,0.27435303,-3.796875,-1.6875,-0.0625
682,0.00024414062,-0.9541626,0.2772827,-2.90625,-0.859375,0.15625
683,0.0043945312,-0.94781494,0.22039795,0.8125,1.5,-0.34375
684,0.0063476562,-0.9590454,0.32269287,1.90625,1.1875,0.625
685,0.0043945312,-0.9373169,0.2645874,-2.5,-1.25,-0.78125
686,-0.0234375,-0.9512329,0.32635498,2.4375,-2.515625,-0.21875
687,0.009765625,-0.9368286,0.27215576,-0.296875,-2.6875,-0.53125
688,-0.014892578,-0.9595337,0.28070068,-1.265625,-1.609375,-0.75
689,-0.025146484,-0.9644165,0.3007202,-1.0,-0.75,-0.234375
690,-0.014892578,-0.9492798,0.2687378,-1.921875,-2.609375,-0.421875
691,-0.028564453,-0.94488525,0.28753662,-1.875,-0.421875,-0.109375
692,-0.02709961,-0.9529419,0.2838745,-1.703125,-1.21875,-0.375
693,-0.025878906,-0.95318604,0.2855835,-1.1875,-0.890625,-0.09375
694,-0.021728516,-0.9573364,0.2892456,-0.171875,1.03125,0.03125
695,-0.025634766,-0.9397583,0.30755615,-1.1875,-0.296875,0.359375
696,-0.022705078,-0.9614868,0.30950928,1.015625,-0.1875,0.109375
697,-0.017578125,-0.95318604,0.2723999,-3.125,-0.34375,0.03125
698,-0.020019531,-0.9585571,0.30438232,0.4375,0.390625,0.015625
699,-0.0107421875,-0.95269775,0.29974365,0.21875,0.46875,0.15625
700,-0.015380859,-0.94610596,0.2982788,0.515625,1.140625,0.40625
701,-0.019042969,-0.9492798,0.28118896,-0.90625,-0.46875,0.171875
702,-0.021484375,-0.9619751,0.30096436,1.1875,0.734375,0.203125
703,-0.0041503906,-0.96221924,0.3007202,1.40625,1.1875,0.375
704,-0.022460938,-0.9480591,0.25091553,-2.453125,-1.34375,0.1875
705,-0.0146484375,-0.94659424,0.2736206,0.765625,0.453125,-0.078125
706,-0.0126953125,-0.95318604,0.28851318,0.234375,0.015625,-0.03125
707,-0.008300781,-0.9612427,0.29730225,0.390625,0.15625,0.234375
708,-0.011230469,-0.9561157,0.2814331,-0.703125,-0.640625,-0.09375
709,-0.009765625,-0.9475708,0.27020264,-0.96875,-0.140625,-0.046875
710,-0.012207031,-0.9505005,0.27581787,-0.15625,-0.1875,-0.015625
711,-0.008056641,-0.95758057,0.27508545,-0.859375,0.3125,-0.296875
712,-0.015625,-0.95269775,0.28338623,-0.8125,0.5,-0.28125
713,-0.017089844,-0.9570923,0.30682373,0.578125,0.453125,-0.1875
714,-0.0021972656,-0.9522095,0.2584839,-1.9375,0.625,0.234375
715,-0.010009766,-0.9417114,0.29632568,1.703125,2.125,-0.125
716,-0.025878906,-0.9656372,0.30511475,1.859375,1.46875,0.015625
717,0.0014648438,-0.9536743,0.2616577,-1.359375,-0.328125,0.296875
718,0.0012207031,-0.9495239,0.2748413,-1.75,-0.484375,-0.046875
719,-0.015625,-0.95391846,0.2850952,-0.171875,-0.703125,-0.203125
720,-0.0024414062,-0.95806885,0.29412842,-0.46875,-0.15625,0.125
721,-0.0026855469,-0.9546509,0.27142334,-1.1875,-0.890625,-0.125
722,-0.004638672,-0.9475708,0.27996826,-0.9375,0.421875,0.03125
723,-0.0009765625,-0.958313,0.2789917,-2.484375,2.328125,0.203125
724,-0.0061035156,-0.9495239,0.28094482,-1.703125,1.34375,-0.0625
725,-0.0061035156,-0.9534302,0.2929077,-0.34375,2.0,-0.078125
726,-0.016845703,-0.9529419,0.29632568,0.5625,0.6875,0.15625
727,-0.0009765625,-0.9505005,0.2723999,-0.125,0.265625,-0.0625
728,0.0009765625,-0.9397583,0.28729248,0.671875,0.453125,-0.3125
729,0.0036621094,-0.9534302,0.26971436,-0.078125,0.046875,-0.09375
730,-0.005859375,-0.9607544,0.293396,1.890625,1.0625,0.0625
731,0.00048828125,-0.9578247,0.25872803,-0.546875,-0.25,0.28125
732,-0.012451172,-0.95269775,0.27557373,-0.5,-0.046875,0.046875
733,-0.0048828125,-0.94976807,0.28729248,1.59375,0.75,0.15625
734,0.005859375,-0.9553833,0.28363037,0.46875,0.34375,0.234375
735,-0.005126953,-0.9614868,0.27215576,0.140625,0.03125,0.171875
736,0.0087890625,-0.9512329,0.28216553,1.796875,0.34375,-0.234375
737,-0.00024414062,-0.96295166,0.25531006,1.28125,0.265625,-0.015625
738,0.0041503906,-0.9541626,0.25604248,-0.234375,-0.71875,-0.09375
739,-0.0007324219,-0.9534302,0.260437,1.4375,1.15625,-0.1875
740,0.0063476562,-0.9727173,0.27996826,0.765625,0.46875,0.28125
741,0.014892578,-0.95562744,0.26507568,-0.953125,-1.671875,-0.171875
742,0.0031738281,-0.956604,0.26531982,-3.109375,-1.9375,-0.046875
743,-0.001953125,-0.9619751,0.2789917,-3.078125,-1.34375,0.328125
744,0.014160156,-0.9505005,0.27069092,-2.96875,0.3125,0.734375
745,0.001953125,-0.96221924,0.29486084,-1.203125,-1.328125,0.0
746,0.00390625,-0.9507446,0.2994995,-1.03125,-0.78125,-0.078125
747,0.006591797,-0.956604,0.2555542,-2.453125,-0.5625,-0.03125
748,0.0056152344,-0.9470825,0.28216553,-2.53125,-0.484375,-0.34375
749,0.014892578,-0.9668579,0.2682495,-0.609375,1.671875,-0.34375
750,0.0017089844,-0.96710205,0.31781006,-0.5,1.28125,-0.296875
751,-0.014892578,-0.9612427,0.3217163,0.515625,-0.859375,0.140625
752,0.0073242188,-0.94976807,0.2909546,-0.859375,-1.484375,-0.359375
753,0.0036621094,-0.944397,0.30023193,2.703125,-3.578125,0.1875
754,-0.0078125,-0.9602661,0.2904663,-1.609375,-3.984375,0.203125
755,0.011962891,-0.9404907,0.29119873,0.3125,-0.90625,0.078125
756,-0.0017089844,-0.9456177,0.2892456,-1.265625,-1.25,-0.25
757,-0.011474609,-0.94732666,0.32073975,0.171875,-0.984375,-0.328125
758,-0.009033203,-0.93878174,0.29193115,1.0,-0.84375,-0.078125
759,-0.0073242188,-0.9434204,0.309021,0.421875,-1.75,-0.421875
