sample_no,accel_x,accel_y,accel_z,gyro_x,gyro_y,gyro_z
0,0.004638672,0.05267334,-0.92388916,0.359375,0.046875,0.734375
1,0.0107421875,0.051208496,-0.92681885,0.40625,-0.390625,0.828125
2,0.013183594,0.057556152,-0.92437744,0.3125,-0.3125,0.890625
3,0.018310547,0.0524292,-0.9348755,0.4375,0.03125,0.765625
4,0.013183594,0.048034668,-0.92510986,0.71875,-0.1875,0.6875
5,0.014160156,0.054626465,-0.9417114,0.671875,-0.296875,0.703125
6,0.013427734,0.062683105,-0.9314575,0.5,0.0625,0.6875
7,0.009521484,0.057556152,-0.92974854,1.109375,0.046875,0.65625
8,0.012451172,0.057800293,-0.9429321,1.0,0.328125,0.625
9,0.010986328,0.05657959,-0.9365845,0.84375,0.578125,0.65625
10,0.011474609,0.050964355,-0.92681885,0.6875,0.25,0.578125
11,0.010498047,0.06121826,-0.9404907,0.34375,0.34375,0.65625
12,0.009765625,0.061706543,-0.9314575,0.328125,0.109375,0.765625
13,0.011962891,0.058776855,-0.9429321,0.109375,0.15625,0.640625
14,0.0075683594,0.059020996,-0.9290161,0.296875,0.5625,0.75
15,0.005126953,0.059265137,-0.9402466,0.5625,0.359375,0.8125
16,0.010498047,0.057556152,-0.9414673,0.484375,0.625,0.609375
17,0.0078125,0.059020996,-0.9338989,0.578125,0.78125,0.609375
18,0.0068359375,0.061462402,-0.9356079,0.65625,0.421875,0.703125
19,0.0068359375,0.06072998,-0.9295044,0.59375,0.109375,0.84375
20,0.014892578,0.06072998,-0.93878174,0.359375,0.046875,0.5
21,0.0036621094,0.06536865,-0.9348755,0.0625,-0.34375,0.578125
22,0.0014648438,0.058288574,-0.9307251,0.6875,-0.3125,0.71875
23,0.004638672,0.05999756,-0.9368286,0.578125,-0.0625,0.671875
24,0.0024414062,0.062683105,-0.9314575,0.046875,0.203125,0.71875
25,0.006591797,0.055603027,-0.93414307,0.390625,0.171875,0.59375
26,0.0009765625,0.05633545,-0.9385376,0.515625,0.125,0.859375
27,0.0029296875,0.059509277,-0.9343872,0.5625,0.40625,0.765625
28,0.00390625,0.062194824,-0.93414307,0.421875,0.015625,0.59375
29,0.009277344,0.058532715,-0.9314575,0.53125,0.203125,0.640625
30,-0.00024414062,0.0692749,-0.9368286,0.34375,0.078125,0.625
31,0.0075683594,0.061706543,-0.9348755,0.203125,0.125,0.640625
32,-0.001953125,0.062927246,-0.9307251,0.421875,0.21875,0.78125
33,-0.00048828125,0.06341553,-0.9324341,0.421875,0.03125,0.65625
34,-0.0017089844,0.06585693,-0.93414307,0.375,0.09375,0.625
35,-0.00048828125,0.06536865,-0.9343872,0.390625,0.3125,0.734375
36,0.00390625,0.06488037,-0.9312134,0.4375,0.265625,0.546875
37,-0.00048828125,0.06365967,-0.93048096,0.71875,0.125,0.765625
38,0.0009765625,0.062194824,-0.944397,0.46875,-0.4375,0.65625
39,0.00024414062,0.062683105,-0.93218994,0.140625,-0.078125,0.6875
40,-0.00024414062,0.054870605,-0.9307251,0.28125,0.09375,0.671875
41,0.0012207031,0.059509277,-0.9397583,0.703125,-0.5,0.625
42,0.0009765625,0.066101074,-0.9338989,0.609375,0.03125,0.765625
43,0.006591797,0.059020996,-0.9338989,0.09375,0.125,0.71875
44,-0.0012207031,0.055603027,-0.92633057,0.4375,0.5,0.734375
45,0.0017089844,0.06707764,-0.93536377,0.921875,0.421875,0.671875
46,-0.007080078,0.061462402,-0.9348755,0.453125,0.28125,0.703125
47,-0.0021972656,0.06121826,-0.93707275,-0.03125,0.125,0.546875
48,-0.005126953,0.06488037,-0.93096924,0.34375,0.078125,0.5
49,-0.0053710938,0.057800293,-0.9487915,0.03125,-0.03125,0.703125
50,0.0009765625,0.06048584,-0.9248657,0.28125,0.0625,0.71875
51,-0.0014648438,0.06121826,-0.92681885,1.046875,0.0,0.875
52,0.001953125,0.06561279,-0.9390259,1.28125,-0.015625,0.609375
53,-0.00024414062,0.062683105,-0.9299927,0.203125,-0.15625,0.625
54,0.0,0.06365967,-0.9378052,0.421875,-0.515625,0.671875
55,-0.00024414062,0.06365967,-0.93707275,-0.28125,-0.6875,0.8125
56,-0.001953125,0.06536865,-0.9277954,0.3125,-0.78125,0.90625
57,-0.004638672,0.06341553,-0.9434204,-0.875,-1.046875,0.78125
58,0.0017089844,0.057556152,-0.9348755,-0.25,-0.671875,0.78125
59,0.00048828125,0.05316162,-0.9299927,-0.453125,-0.171875,0.703125
60,-0.0012207031,0.05633545,-0.93536377,0.4375,-0.265625,0.65625
61,-0.001953125,0.062683105,-0.9336548,1.015625,-0.171875,0.734375
62,-0.0021972656,0.061462402,-0.93048096,0.40625,-0.53125,0.6875
63,-0.0009765625,0.06414795,-0.9451294,0.625,-0.84375,0.671875
64,0.009521484,0.06341553,-0.9356079,0.09375,-0.0625,0.796875
65,0.0063476562,0.06317139,-0.928772,0.578125,-0.140625,0.75
66,0.004638672,0.05657959,-0.9307251,0.484375,0.015625,0.5625
67,0.00024414062,0.06341553,-0.93829346,0.234375,0.203125,0.671875
68,-0.00024414062,0.06048584,-0.9324341,0.5,0.28125,0.59375
69,0.0031738281,0.06048584,-0.93218994,0.484375,0.59375,0.5
70,0.0056152344,0.058776855,-0.93585205,1.296875,0.6875,0.5625
71,0.0087890625,0.06463623,-0.9429321,0.734375,-0.375,0.59375
72,0.0026855469,0.06317139,-0.93756104,-0.125,-0.546875,0.71875
73,0.004638672,0.062683105,-0.9458618,-0.46875,-1.375,0.671875
74,-0.0026855469,0.059265137,-0.9216919,-1.140625,-1.390625,0.984375
75,0.004638672,0.05731201,-0.9290161,-0.546875,-0.84375,0.8125
76,0.0021972656,0.059265137,-0.93292236,0.0625,-0.890625,0.671875
77,0.00048828125,0.05706787,-0.9326782,0.5625,-0.828125,0.71875
78,0.0048828125,0.06121826,-0.9365845,0.328125,-1.109375,0.84375
79,0.0034179688,0.06072998,-0.9338989,0.53125,-1.6875,0.875
80,0.0087890625,0.062438965,-0.9299927,0.703125,-1.5,0.96875
81,0.010986328,0.053649902,-0.9273071,0.359375,-1.671875,0.84375
82,0.0107421875,0.05999756,-0.92388916,0.546875,-1.5625,0.78125
83,0.020996094,0.059509277,-0.9365845,0.171875,-0.84375,0.671875
84,0.01977539,0.062683105,-0.93170166,0.71875,-0.609375,0.828125
85,0.013916016,0.058288574,-0.93463135,0.546875,-0.921875,0.734375
86,0.024169922,0.06048584,-0.95440674,-0.109375,-1.921875,0.8125
87,0.017822266,0.066345215,-0.93170166,0.046875,-2.15625,0.765625
88,0.024414062,0.058532715,-0.93341064,-0.015625,-1.96875,0.703125
89,0.03857422,0.05731201,-0.9258423,0.28125,-1.75,0.65625
90,0.03466797,0.055603027,-0.9458618,-0.234375,-1.421875,0.703125
91,0.03491211,0.055847168,-0.93707275,-0.96875,0.421875,0.625
92,0.03466797,0.057800293,-0.91656494,0.15625,0.71875,0.6875
93,0.029785156,0.055847168,-0.93634033,0.328125,-0.359375,0.75
94,0.02758789,0.05633545,-0.93829346,-0.28125,0.234375,0.609375
95,0.032470703,0.054382324,-0.94073486,-0.421875,0.171875,0.734375
96,0.030273438,0.054382324,-0.9224243,0.40625,0.171875,0.578125
97,0.031982422,0.055114746,-0.94488525,0.25,0.328125,0.703125
98,0.029052734,0.05316162,-0.93634033,0.34375,0.109375,0.640625
99,0.026367188,0.051452637,-0.93341064,0.703125,0.265625,0.703125
100,0.02758789,0.054138184,-0.9307251,0.15625,-0.078125,0.703125
101,0.034423828,0.0524292,-0.9446411,-0.25,0.078125,0.625
102,0.029296875,0.04852295,-0.9319458,0.625,0.203125,0.796875
103,0.03173828,0.054626465,-0.95147705,0.046875,0.078125,0.65625
104,0.030761719,0.05633545,-0.942688,0.453125,-0.296875,0.625
105,0.020996094,0.054382324,-0.92071533,0.0,0.109375,0.734375
106,0.028564453,0.059020996,-0.9402466,-0.078125,-0.21875,0.796875
107,0.026611328,0.050476074,-0.9338989,0.375,-0.375,0.765625
108,0.03173828,0.046081543,-0.9336548,0.078125,-0.25,0.796875
109,0.03100586,0.0602417,-0.9331665,0.359375,-0.046875,0.703125
110,0.0234375,0.05609131,-0.928772,0.40625,0.015625,0.65625
111,0.02709961,0.051696777,-0.93463135,0.4375,-0.09375,0.671875
112,0.029052734,0.050231934,-0.93218994,0.15625,0.203125,0.546875
113,0.02734375,0.051452637,-0.9360962,0.5,0.203125,0.734375
114,0.026123047,0.053894043,-0.93463135,0.34375,0.28125,0.515625
115,0.028076172,0.053649902,-0.9456177,0.5,-0.03125,0.6875
116,0.01928711,0.054870605,-0.9326782,0.640625,0.59375,0.703125
117,0.01953125,0.046569824,-0.92510986,0.296875,0.484375,0.765625
118,0.03100586,0.054870605,-0.9380493,0.375,0.15625,0.671875
119,0.028320312,0.047790527,-0.9282837,0.25,0.09375,0.53125
120,0.028320312,0.054870605,-0.9402466,-0.0625,0.328125,0.5625
121,0.025146484,0.0524292,-0.9312134,0.546875,0.296875,0.65625
122,0.024902344,0.050476074,-0.93878174,0.125,0.15625,0.59375
123,0.013671875,0.054870605,-0.9282837,0.265625,-0.046875,0.703125
124,0.02734375,0.051452637,-0.9421997,0.375,0.03125,0.6875
125,0.018310547,0.05340576,-0.9295044,0.140625,0.125,0.65625
126,0.028076172,0.050964355,-0.9368286,0.234375,0.109375,0.578125
127,0.024169922,0.050231934,-0.9295044,0.265625,0.140625,0.703125
128,0.02319336,0.058044434,-0.9360962,0.171875,0.296875,0.65625
129,0.026367188,0.053894043,-0.94000244,0.390625,0.390625,0.6875
130,0.022705078,0.049743652,-0.9365845,0.28125,0.328125,0.625
131,0.01977539,0.051696777,-0.9338989,0.5625,-0.046875,0.640625
132,0.024902344,0.050964355,-0.9348755,0.40625,0.0,0.71875
133,0.016357422,0.049987793,-0.93707275,0.234375,0.09375,0.65625
134,0.02319336,0.04901123,-0.9282837,0.78125,-0.359375,0.875
135,0.0234375,0.054626465,-0.9397583,0.65625,0.15625,0.6875
136,0.020507812,0.051940918,-0.93414307,0.15625,0.171875,0.640625
137,0.024414062,0.047302246,-0.9326782,0.3125,0.15625,0.65625
138,0.012451172,0.047058105,-0.925354,0.453125,0.15625,0.71875
139,0.0146484375,0.05291748,-0.93414307,0.25,0.125,0.71875
140,0.02368164,0.050231934,-0.93756104,0.421875,-0.046875,0.609375
141,0.015380859,0.046813965,-0.93292236,0.171875,0.140625,0.640625
142,0.021972656,0.048034668,-0.93218994,0.328125,0.0,0.6875
143,0.01586914,0.050720215,-0.93096924,0.328125,0.125,0.71875
144,0.020996094,0.048034668,-0.93170166,0.453125,0.125,0.65625
145,0.018798828,0.047546387,-0.9312134,0.296875,0.015625,0.671875
146,0.01586914,0.04876709,-0.9331665,0.359375,0.015625,0.71875
147,0.017578125,0.046081543,-0.9365845,0.46875,0.015625,0.609375
148,0.013183594,0.05316162,-0.940979,0.359375,0.03125,0.828125
149,0.020507812,0.047058105,-0.92144775,0.390625,0.125,0.625
150,0.024414062,0.05633545,-0.93878174,0.203125,-0.078125,0.6875
151,0.015136719,0.054382324,-0.9429321,0.3125,0.015625,0.71875
152,0.018798828,0.049743652,-0.9390259,0.3125,-0.046875,0.75
153,0.016113281,0.050720215,-0.9390259,0.15625,0.125,0.609375
154,0.011474609,0.051208496,-0.93536377,0.90625,-0.53125,0.8125
155,0.011230469,0.05291748,-0.9356079,0.625,0.125,0.625
156,0.022216797,0.050720215,-0.9295044,0.203125,0.21875,0.65625
157,0.017089844,0.051940918,-0.9277954,0.515625,0.015625,0.703125
158,0.016357422,0.05267334,-0.9324341,0.53125,0.15625,0.734375
159,0.013916016,0.055603027,-0.9314575,0.40625,0.0,0.734375
160,0.0126953125,0.058532715,-0.93878174,0.3125,0.046875,0.78125
161,0.016113281,0.04901123,-0.9356079,0.34375,0.078125,0.609375
162,0.010498047,0.055358887,-0.9299927,0.234375,-0.03125,0.71875
163,0.011230469,0.05316162,-0.9258423,0.421875,-0.09375,0.6875
164,0.012939453,0.050964355,-0.9385376,0.46875,0.03125,0.71875
165,0.008544922,0.054382324,-0.94854736,0.40625,-0.109375,0.640625
166,0.015380859,0.049743652,-0.92974854,0.3125,0.09375,0.71875
167,0.017822266,0.046325684,-0.9282837,0.390625,-0.0625,0.734375
168,0.019042969,0.05999756,-0.94488525,0.296875,0.109375,0.78125
169,0.015625,0.055358887,-0.9248657,0.28125,0.09375,0.6875
170,0.013427734,0.054382324,-0.9368286,0.40625,-0.03125,0.609375
171,0.008544922,0.04949951,-0.92559814,0.25,-0.015625,0.765625
172,0.011962891,0.05340576,-0.9312134,0.21875,0.0625,0.703125
173,0.018310547,0.05340576,-0.9351196,0.578125,-0.015625,0.734375
174,0.014404297,0.05291748,-0.94122314,0.125,0.234375,0.65625
175,0.017578125,0.05609131,-0.9338989,0.546875,-0.0625,0.734375
176,0.011474609,0.055358887,-0.92803955,-0.171875,0.28125,0.59375
177,0.0107421875,0.05291748,-0.9319458,0.4375,0.296875,0.6875
178,0.0075683594,0.04876709,-0.9331665,0.546875,0.03125,0.671875
179,0.01586914,0.053649902,-0.94195557,0.265625,0.0,0.703125
180,0.012451172,0.0524292,-0.93292236,0.203125,-0.171875,0.671875
181,0.012451172,0.051208496,-0.9373169,0.390625,0.015625,0.65625
182,0.012939453,0.05267334,-0.92633057,0.34375,0.046875,0.609375
183,0.009521484,0.05267334,-0.94659424,0.578125,-0.09375,0.625
184,0.010986328,0.053894043,-0.9307251,0.671875,0.046875,0.75
185,0.0087890625,0.05218506,-0.93463135,0.390625,-0.078125,0.71875
186,0.011474609,0.05609131,-0.93756104,0.15625,-0.015625,0.734375
187,0.016113281,0.055603027,-0.93951416,0.3125,0.03125,0.6875
188,0.016601562,0.050231934,-0.9351196,0.203125,0.0625,0.671875
189,0.008056641,0.055358887,-0.94073486,0.484375,0.15625,0.6875
190,0.015625,0.05682373,-0.9295044,0.3125,0.09375,0.609375
191,0.013916016,0.04949951,-0.9290161,0.203125,0.046875,0.71875
192,0.006591797,0.04925537,-0.94366455,0.59375,-0.046875,0.71875
193,0.0061035156,0.042663574,-0.9338989,0.40625,0.046875,0.53125
194,0.0056152344,0.05731201,-0.9312134,0.421875,0.046875,0.671875
195,0.0073242188,0.043640137,-0.9324341,0.359375,-0.15625,0.78125
196,0.010009766,0.05218506,-0.9295044,0.40625,0.125,0.65625
197,0.008056641,0.046569824,-0.9295044,0.421875,0.1875,0.765625
198,0.013916016,0.049987793,-0.9414673,0.375,-0.515625,0.671875
199,0.008056641,0.047302246,-0.93951416,0.265625,0.0,0.515625
200,0.010009766,0.051940918,-0.9373169,0.21875,0.015625,0.671875
201,0.0048828125,0.051696777,-0.940979,0.65625,-0.109375,0.671875
202,0.014892578,0.04925537,-0.9378052,0.375,0.171875,0.65625
203,0.010498047,0.051940918,-0.93218994,0.359375,-0.09375,0.765625
204,0.0048828125,0.05267334,-0.9265747,0.15625,0.203125,0.546875
205,0.010009766,0.046325684,-0.92974854,0.46875,0.078125,0.75
206,0.013427734,0.05340576,-0.94000244,0.328125,0.0,0.734375
207,0.012939453,0.055358887,-0.9390259,0.328125,0.171875,0.6875
208,0.0068359375,0.059753418,-0.9365845,0.40625,-0.109375,0.703125
209,0.012939453,0.04437256,-0.9295044,0.265625,0.0625,0.6875
210,0.006591797,0.055847168,-0.93218994,0.3125,0.109375,0.734375
211,0.0075683594,0.055358887,-0.9319458,0.21875,0.046875,0.609375
212,0.009521484,0.04559326,-0.93096924,0.3125,-0.109375,0.6875
213,0.0078125,0.047058105,-0.9302368,0.265625,0.109375,0.71875
214,0.005859375,0.04486084,-0.93048096,0.390625,0.046875,0.78125
215,0.005859375,0.04949951,-0.9373169,0.34375,0.078125,0.703125
216,0.005126953,0.047302246,-0.9331665,0.171875,0.125,0.484375
217,0.012207031,0.051208496,-0.93829346,0.265625,0.15625,0.84375
218,0.0017089844,0.047302246,-0.9336548,0.28125,0.109375,0.796875
219,0.008056641,0.049743652,-0.92510986,0.3125,0.109375,0.734375
220,0.007080078,0.050231934,-0.9299927,0.796875,-0.71875,0.609375
221,0.0041503906,0.05291748,-0.92755127,0.625,-0.171875,0.703125
222,0.00390625,0.04437256,-0.9314575,0.28125,0.140625,0.640625
223,0.008544922,0.049743652,-0.9282837,0.515625,-0.03125,0.546875
224,0.005126953,0.055603027,-0.9314575,0.3125,0.125,0.671875
225,0.0021972656,0.053649902,-0.9299927,0.390625,0.203125,0.71875
226,0.0021972656,0.049743652,-0.9378052,0.21875,0.0625,0.640625
227,0.0034179688,0.050964355,-0.9404907,0.375,0.03125,0.703125
228,0.009033203,0.047790527,-0.928772,0.46875,0.03125,0.671875
229,0.0043945312,0.055603027,-0.93634033,0.546875,-0.21875,0.640625
230,0.005859375,0.047058105,-0.9351196,0.21875,-0.28125,0.75
231,0.0087890625,0.054382324,-0.9265747,0.3125,-0.109375,0.484375
232,0.001953125,0.05291748,-0.93218994,0.59375,-0.203125,0.546875
233,0.0014648438,0.053649902,-0.93585205,0.3125,0.078125,0.734375
234,0.001953125,0.05218506,-0.9348755,0.3125,-0.015625,0.671875
235,0.0063476562,0.05609131,-0.93927,0.421875,0.0,0.703125
236,0.0053710938,0.047546387,-0.9378052,0.40625,0.0,0.6875
237,0.006591797,0.054382324,-0.9314575,0.40625,0.0625,0.75
238,0.00048828125,0.050231934,-0.93536377,0.375,0.03125,0.625
239,0.0056152344,0.054870605,-0.9343872,0.421875,0.0,0.65625
240,0.008544922,0.054870605,-0.9378052,0.390625,0.0,0.8125
241,0.0024414062,0.05633545,-0.9343872,0.296875,0.078125,0.703125
242,0.00024414062,0.05291748,-0.93170166,0.53125,-0.078125,0.734375
243,0.004638672,0.054870605,-0.9483032,0.171875,-0.625,0.53125
244,0.006591797,0.054870605,-0.9314575,0.296875,-0.015625,0.703125
245,-0.0017089844,0.054138184,-0.93634033,0.4375,0.09375,0.8125
246,0.008056641,0.057800293,-0.93536377,0.40625,-0.03125,0.71875
247,0.0029296875,0.055603027,-0.93096924,0.390625,0.140625,0.625
248,0.0014648438,0.05657959,-0.9351196,0.234375,0.125,0.65625
249,0.0007324219,0.055114746,-0.9314575,0.28125,0.265625,0.78125
250,0.005859375,0.055603027,-0.93585205,0.515625,-0.140625,0.78125
251,0.010009766,0.05999756,-0.92193604,0.515625,-0.015625,0.59375
252,0.011230469,0.051940918,-0.9351196,0.46875,-0.046875,0.828125
253,0.0014648438,0.058776855,-0.93463135,1.046875,0.359375,0.6875
254,-0.0007324219,0.05682373,-0.92388916,1.484375,0.484375,0.6875
255,-0.001953125,0.051452637,-0.9338989,0.765625,0.359375,0.8125
256,0.00048828125,0.058776855,-0.9290161,1.828125,0.640625,0.640625
257,0.001953125,0.062194824,-0.9439087,1.78125,0.546875,0.6875
258,-0.0036621094,0.06439209,-0.93829346,1.8125,0.515625,0.734375
259,0.0012207031,0.06390381,-0.9378052,0.0625,0.0,0.65625
260,-0.0043945312,0.061706543,-0.925354,1.5,0.421875,0.671875
261,-0.0007324219,0.06707764,-0.93951416,1.96875,0.15625,0.703125
262,0.0026855469,0.06854248,-0.9483032,0.21875,-0.28125,0.6875
263,-0.008056641,0.06903076,-0.93756104,-1.375,-0.90625,0.703125
264,0.0029296875,0.06097412,-0.92755127,-0.4375,-0.84375,0.8125
265,-0.0063476562,0.061706543,-0.91729736,1.140625,-0.625,0.71875
266,-0.00024414062,0.06341553,-0.9307251,1.84375,0.21875,0.90625
267,-0.0041503906,0.06561279,-0.92852783,1.390625,0.28125,0.765625
268,-0.0009765625,0.062194824,-0.94244385,-0.6875,-1.046875,0.78125
269,0.0048828125,0.059509277,-0.9277954,-0.484375,-0.5,0.703125
270,-0.001953125,0.06341553,-0.93414307,-0.703125,-0.34375,0.703125
271,0.0009765625,0.055114746,-0.93218994,-0.296875,-0.421875,0.671875
272,0.0012207031,0.059753418,-0.92803955,-0.078125,0.28125,0.671875
273,-0.0021972656,0.059753418,-0.92926025,0.53125,0.0,0.65625
274,0.00024414062,0.059753418,-0.9307251,0.390625,-0.203125,0.71875
275,0.0034179688,0.055603027,-0.9324341,-0.0625,-0.53125,0.75
276,-0.00048828125,0.06121826,-0.92803955,-0.046875,-0.703125,0.8125
277,0.0012207031,0.057800293,-0.93218994,0.234375,-0.9375,0.859375
278,0.004638672,0.05706787,-0.9319458,0.09375,-0.796875,0.796875
279,0.0041503906,0.062438965,-0.93585205,-0.046875,-0.515625,0.671875
280,0.01171875,0.061462402,-0.93341064,0.34375,-0.171875,0.75
281,0.0031738281,0.06390381,-0.9336548,0.3125,-0.171875,0.734375
282,0.0043945312,0.061706543,-0.9368286,0.1875,0.0625,0.765625
283,0.0012207031,0.05706787,-0.9331665,0.515625,0.0,0.8125
284,0.0007324219,0.05316162,-0.9338989,-0.0625,0.0625,0.71875
285,0.008300781,0.059509277,-0.93927,0.3125,0.09375,0.78125
286,0.0026855469,0.05706787,-0.9324341,0.671875,-0.171875,0.75
287,0.012939453,0.051452637,-0.9404907,0.609375,-0.203125,0.8125
288,-0.00024414062,0.055603027,-0.9319458,0.4375,-0.03125,0.734375
289,0.0014648438,0.059265137,-0.9331665,0.234375,0.0,0.625
290,0.0053710938,0.054626465,-0.9365845,0.859375,-0.03125,0.546875
291,0.009765625,0.059020996,-0.92755127,1.21875,-0.21875,0.609375
292,0.0073242188,0.05999756,-0.9468384,0.34375,-0.515625,0.71875
293,0.0048828125,0.059509277,-0.92681885,0.3125,-0.53125,0.640625
294,0.0034179688,0.059265137,-0.93463135,0.75,-0.703125,0.671875
295,0.009521484,0.06121826,-0.9351196,0.328125,-0.75,0.609375
296,0.0061035156,0.06536865,-0.93756104,0.125,-0.6875,0.734375
297,0.0087890625,0.05609131,-0.93951416,-0.078125,-0.796875,0.8125
298,0.005126953,0.061950684,-0.9343872,-0.109375,-0.65625,0.703125
299,0.0078125,0.053649902,-0.9336548,0.015625,-0.5625,0.78125
300,0.0126953125,0.062438965,-0.9351196,-0.046875,-0.328125,0.765625
301,0.008300781,0.051940918,-0.9360962,-0.375,0.28125,0.71875
302,0.010498047,0.054870605,-0.9299927,-0.15625,0.4375,0.6875
303,0.013916016,0.05731201,-0.9380493,0.046875,0.125,0.65625
304,0.008300781,0.053894043,-0.9378052,0.15625,0.234375,0.671875
305,0.008056641,0.054382324,-0.92559814,0.171875,0.234375,0.75
306,0.010253906,0.05706787,-0.9380493,0.203125,0.171875,0.703125
307,0.0073242188,0.055603027,-0.9338989,0.28125,0.109375,0.71875
308,0.008300781,0.053649902,-0.9368286,0.46875,-0.25,0.734375
309,0.008544922,0.055603027,-0.93463135,0.34375,-0.046875,0.609375
310,0.010253906,0.05340576,-0.9336548,0.0625,0.1875,0.828125
311,0.0048828125,0.05999756,-0.9338989,0.515625,0.046875,0.8125
312,0.0075683594,0.058776855,-0.9385376,0.390625,-0.078125,0.546875
313,0.00024414062,0.06048584,-0.93463135,0.125,0.375,0.65625
314,0.010253906,0.05267334,-0.9338989,0.453125,0.09375,0.65625
315,0.009765625,0.058776855,-0.9299927,0.421875,0.046875,0.625
316,0.005859375,0.05267334,-0.927063,0.171875,-0.0625,0.703125
317,0.0075683594,0.047790527,-0.9397583,0.21875,0.046875,0.65625
318,0.0087890625,0.05609131,-0.9314575,0.25,-0.09375,0.71875
319,0.0021972656,0.051208496,-0.9336548,0.421875,0.125,0.71875
320,0.0036621094,0.055114746,-0.94244385,0.3125,0.15625,0.6875
321,0.008300781,0.051208496,-0.9324341,0.359375,-0.03125,0.6875
322,0.0041503906,0.05218506,-0.93536377,0.5625,0.046875,0.703125
323,0.0087890625,0.05340576,-0.9390259,0.328125,-0.234375,0.6875
324,0.0007324219,0.051452637,-0.93585205,0.21875,-0.140625,0.625
325,0.0073242188,0.05706787,-0.9312134,0.375,0.109375,0.875
326,0.0,0.05291748,-0.9290161,0.25,-0.09375,0.765625
327,0.0036621094,0.049987793,-0.9302368,0.625,-0.125,0.875
328,0.010498047,0.05706787,-0.9380493,0.3125,-0.109375,0.640625
329,0.0061035156,0.05657959,-0.9331665,0.21875,-0.03125,0.65625
330,0.0043945312,0.05340576,-0.9397583,0.359375,-0.078125,0.703125
331,0.009033203,0.054626465,-0.93414307,0.1875,0.03125,0.71875
332,-0.0007324219,0.054870605,-0.93927,0.375,0.28125,0.75
333,0.0068359375,0.059265137,-0.94073486,0.53125,-0.015625,0.625
334,0.0056152344,0.05731201,-0.9373169,0.265625,0.0625,0.578125
335,0.0078125,0.051940918,-0.93951416,0.515625,0.109375,0.6875
336,0.0007324219,0.05682373,-0.93927,0.46875,-0.078125,0.640625
337,0.00048828125,0.055847168,-0.9356079,0.265625,-0.125,0.59375
338,0.0029296875,0.051940918,-0.93463135,0.203125,-0.046875,0.6875
339,0.0034179688,0.058776855,-0.93585205,0.3125,-0.078125,0.578125
340,0.001953125,0.053649902,-0.9331665,0.5625,0.109375,0.6875
341,0.0017089844,0.05633545,-0.9365845,0.28125,-0.046875,0.734375
342,0.0012207031,0.055358887,-0.9324341,0.375,-0.03125,0.578125
343,0.0029296875,0.058288574,-0.9373169,0.484375,0.015625,0.671875
344,0.0024414062,0.053894043,-0.94000244,0.484375,-0.15625,0.8125
345,0.006591797,0.05316162,-0.9360962,0.53125,0.0625,0.625
346,0.0009765625,0.059753418,-0.94122314,0.46875,0.109375,0.625
347,0.00390625,0.058288574,-0.927063,0.84375,0.140625,0.59375
348,0.0034179688,0.053649902,-0.93927,0.328125,-0.296875,0.71875
349,0.0007324219,0.05609131,-0.9380493,0.234375,-0.046875,0.671875
350,0.0034179688,0.0602417,-0.9282837,0.515625,-0.046875,0.765625
351,-0.00048828125,0.059753418,-0.94195557,0.375,-0.15625,0.5625
352,0.0029296875,0.05291748,-0.93829346,0.15625,-0.15625,0.71875
353,0.0007324219,0.055358887,-0.9282837,0.34375,-0.125,0.78125
354,0.00024414062,0.05682373,-0.93585205,0.421875,-0.0625,0.75
355,0.0,0.057556152,-0.93536377,0.296875,-0.1875,0.890625
356,0.001953125,0.054626465,-0.9326782,0.4375,0.0625,0.78125
357,-0.0017089844,0.05682373,-0.9351196,0.328125,0.015625,0.65625
358,-0.0036621094,0.059265137,-0.9390259,0.359375,-0.15625,0.625
359,0.0068359375,0.05609131,-0.9312134,0.453125,-0.15625,0.59375
360,0.0053710938,0.059020996,-0.93096924,0.640625,-0.046875,0.78125
361,0.009033203,0.050720215,-0.9299927,0.4375,-0.0625,0.765625
362,-0.0012207031,0.05731201,-0.9402466,0.375,-0.015625,0.71875
363,0.0012207031,0.051696777,-0.9331665,0.65625,-0.046875,0.75
364,-0.0014648438,0.051940918,-0.9402466,0.359375,0.140625,0.6875
365,0.008056641,0.057556152,-0.9295044,0.390625,0.0,0.734375
366,0.0012207031,0.05682373,-0.93463135,0.5,-0.296875,0.71875
367,0.0014648438,0.05999756,-0.9356079,0.5625,0.015625,0.671875
368,0.0026855469,0.057556152,-0.93170166,0.9375,-0.453125,0.875
369,0.0031738281,0.053894043,-0.9351196,0.625,-0.015625,0.640625
370,-0.0007324219,0.06439209,-0.9273071,1.21875,-0.203125,0.6875
371,0.0026855469,0.055603027,-0.93170166,0.828125,-0.515625,0.671875
372,0.00390625,0.059020996,-0.9295044,0.75,-0.609375,0.765625
373,0.008300781,0.058044434,-0.9324341,0.78125,-0.671875,0.765625
374,0.0014648438,0.059265137,-0.9351196,0.6875,-0.875,0.796875
375,0.0048828125,0.059509277,-0.9356079,0.5,-1.125,0.828125
376,0.007080078,0.054870605,-0.9351196,0.328125,-1.25,0.78125
377,0.010498047,0.06463623,-0.93536377,0.3125,-1.046875,0.65625
378,0.009033203,0.06121826,-0.9338989,0.015625,-1.0,0.796875
379,0.009521484,0.057800293,-0.93634033,0.015625,-0.828125,0.765625
380,0.014404297,0.053894043,-0.9360962,-0.109375,-0.328125,0.625
381,0.012939453,0.058044434,-0.9378052,-0.46875,0.234375,0.671875
382,0.010986328,0.058044434,-0.9314575,0.1875,0.40625,0.546875
383,0.010498047,0.062194824,-0.93707275,0.40625,0.25,0.75
384,0.010009766,0.0524292,-0.93927,0.078125,0.078125,0.59375
385,0.0073242188,0.059753418,-0.9397583,0.078125,0.09375,0.703125
386,0.0087890625,0.05706787,-0.93218994,0.375,0.015625,0.640625
387,0.01171875,0.058532715,-0.9402466,0.53125,-0.28125,0.703125
388,0.014160156,0.05706787,-0.9326782,0.140625,-0.171875,0.578125
389,0.0026855469,0.05267334,-0.93341064,0.28125,-0.015625,0.578125
390,0.0087890625,0.059020996,-0.93878174,0.9375,-0.390625,0.734375
391,0.0068359375,0.061950684,-0.9390259,0.65625,0.03125,0.671875
392,0.0073242188,0.06097412,-0.9365845,0.203125,0.109375,0.671875
393,0.010498047,0.05999756,-0.9451294,0.359375,-0.015625,0.65625
394,0.012939453,0.055603027,-0.9314575,0.25,0.21875,0.8125
395,0.010498047,0.054626465,-0.92681885,0.15625,0.328125,0.6875
396,0.004638672,0.05218506,-0.93707275,-0.21875,0.203125,0.59375
397,0.009033203,0.055603027,-0.9434204,0.28125,0.09375,0.671875
398,0.0068359375,0.054870605,-0.94366455,0.265625,0.21875,0.703125
399,0.0073242188,0.055114746,-0.940979,0.1875,0.015625,0.8125
400,0.0043945312,0.058532715,-0.92681885,0.390625,0.09375,0.84375
401,0.0053710938,0.053894043,-0.93585205,0.328125,0.21875,0.6875
402,0.005859375,0.059753418,-0.94000244,0.296875,0.171875,0.609375
403,-0.001953125,0.055358887,-0.92681885,0.375,0.203125,0.734375
404,0.0078125,0.053894043,-0.9351196,0.484375,0.21875,0.625
405,0.0029296875,0.058044434,-0.9336548,0.609375,0.3125,0.796875
406,0.00024414062,0.054138184,-0.93707275,0.5625,0.171875,0.640625
407,0.005859375,0.05682373,-0.9373169,0.515625,0.21875,0.71875
408,0.0031738281,0.053649902,-0.93414307,0.3125,0.078125,0.796875
409,-0.00024414062,0.059509277,-0.93878174,0.3125,-0.046875,0.65625
410,0.0041503906,0.058532715,-0.9319458,0.71875,-0.28125,0.65625
411,0.0073242188,0.051452637,-0.9282837,0.640625,0.15625,0.6875
412,0.005126953,0.05267334,-0.9378052,0.4375,0.078125,0.78125
413,0.004638672,0.05682373,-0.94195557,0.375,-0.046875,0.640625
414,0.00390625,0.058288574,-0.92852783,0.5,0.046875,0.65625
415,0.0029296875,0.05657959,-0.9319458,0.671875,0.125,0.671875
416,0.00024414062,0.06121826,-0.9373169,0.53125,0.078125,0.6875
417,0.006591797,0.058044434,-0.93218994,0.65625,-0.015625,0.65625
418,0.0,0.05633545,-0.9356079,0.390625,-0.03125,0.71875
419,-0.0007324219,0.059265137,-0.9319458,0.40625,0.015625,0.78125
420,0.0017089844,0.053649902,-0.923645,0.453125,-0.09375,0.6875
421,-0.0007324219,0.059509277,-0.93170166,0.609375,-0.203125,0.59375
422,-0.0017089844,0.06341553,-0.9336548,0.59375,-0.0625,0.65625
423,-0.00390625,0.058288574,-0.9368286,0.625,-0.046875,0.84375
424,0.0,0.059020996,-0.928772,0.609375,-0.046875,0.703125
425,-0.001953125,0.059265137,-0.93756104,0.609375,0.0625,0.703125
426,-0.0009765625,0.059265137,-0.94244385,0.53125,-0.046875,0.6875
427,0.0026855469,0.06048584,-0.92926025,0.71875,0.015625,0.703125
428,-0.00390625,0.058044434,-0.9368286,0.28125,-0.078125,0.796875
429,0.006591797,0.055847168,-0.93756104,0.234375,-0.015625,0.578125
430,-0.0021972656,0.061462402,-0.93878174,0.265625,0.03125,0.578125
431,-0.0026855469,0.058044434,-0.93927,0.609375,-0.59375,0.6875
432,0.00024414062,0.06585693,-0.9319458,0.671875,-0.171875,0.84375
433,0.0009765625,0.061462402,-0.92852783,0.34375,-0.15625,0.640625
434,-0.0017089844,0.058044434,-0.9338989,0.625,-0.171875,0.765625
435,-0.0036621094,0.0692749,-0.9295044,0.5,-0.046875,0.546875
436,-0.0041503906,0.066345215,-0.9314575,0.4375,0.0625,0.65625
437,0.0017089844,0.05731201,-0.928772,0.140625,-0.015625,0.65625
438,0.0017089844,0.059509277,-0.9282837,0.5625,-0.203125,0.703125
439,0.0014648438,0.06317139,-0.93585205,0.171875,-0.046875,0.78125
440,-0.001953125,0.05633545,-0.928772,0.140625,0.046875,0.671875
441,-0.0017089844,0.06121826,-0.92974854,0.453125,0.03125,0.6875
442,-0.0021972656,0.06585693,-0.9331665,0.484375,0.015625,0.6875
443,0.0009765625,0.06121826,-0.9368286,0.609375,-0.125,0.65625
444,0.0029296875,0.055847168,-0.92266846,0.65625,-0.0625,0.65625
445,-0.001953125,0.06390381,-0.9348755,0.578125,-0.1875,0.828125
446,-0.0012207031,0.06365967,-0.9319458,0.6875,-0.09375,0.8125
447,-0.0009765625,0.061462402,-0.93048096,0.65625,-0.09375,0.6875
448,0.0012207031,0.062194824,-0.9351196,0.484375,-0.078125,0.75
449,0.00048828125,0.061706543,-0.93414307,0.375,-0.1875,0.71875
450,-0.0021972656,0.06878662,-0.9258423,0.40625,-0.1875,0.765625
451,-0.00048828125,0.07196045,-0.9338989,0.25,-0.234375,0.765625
452,-0.00048828125,0.062194824,-0.93341064,0.328125,-0.265625,0.65625
453,-0.0021972656,0.06317139,-0.94610596,0.4375,-0.265625,0.59375
454,-0.00024414062,0.06390381,-0.93096924,0.234375,-0.234375,0.578125
455,-0.00024414062,0.06365967,-0.93536377,0.28125,-0.125,0.796875
456,-0.001953125,0.06707764,-0.9312134,0.328125,-0.25,0.578125
457,0.0043945312,0.06439209,-0.9258423,0.28125,-0.078125,0.8125
458,0.0031738281,0.06365967,-0.93341064,0.328125,-0.046875,0.640625
459,-0.00024414062,0.057556152,-0.93707275,0.203125,0.140625,0.703125
460,-0.0012207031,0.061950684,-0.9336548,0.40625,0.109375,0.625
461,-0.0043945312,0.066101074,-0.93707275,0.3125,-0.015625,0.640625
462,0.0036621094,0.06463623,-0.9378052,0.234375,0.265625,0.578125
463,0.0021972656,0.062438965,-0.92852783,0.5,0.03125,0.5625
464,-0.0014648438,0.058532715,-0.93463135,0.65625,-0.390625,0.5625
465,0.0007324219,0.061950684,-0.93170166,0.5,-0.453125,0.734375
466,0.001953125,0.06463623,-0.9299927,0.546875,-0.65625,0.546875
467,0.0007324219,0.070495605,-0.9356079,0.546875,-0.703125,0.75
468,0.0034179688,0.06585693,-0.9351196,0.265625,-0.796875,0.796875
469,-0.001953125,0.06072998,-0.9314575,0.515625,-0.65625,0.65625
470,0.0063476562,0.06414795,-0.93756104,0.203125,-0.890625,0.625
471,0.0007324219,0.06707764,-0.9351196,0.09375,-0.953125,0.75
472,0.0061035156,0.06072998,-0.9380493,-0.09375,-1.125,0.65625
473,0.009033203,0.06536865,-0.9273071,-0.109375,-0.796875,0.78125
474,0.0078125,0.05731201,-0.92926025,0.296875,-0.796875,0.78125
475,0.013671875,0.06707764,-0.9404907,0.296875,-0.796875,0.71875
476,0.0068359375,0.06317139,-0.9390259,-0.15625,-0.203125,0.734375
477,0.0053710938,0.06463623,-0.9338989,-0.375,0.40625,0.75
478,0.008056641,0.062194824,-0.9302368,0.21875,0.171875,0.75
479,0.008300781,0.06121826,-0.9302368,0.359375,0.21875,0.609375
480,0.007080078,0.062927246,-0.93218994,0.109375,0.03125,0.703125
481,0.0056152344,0.06048584,-0.9234009,0.078125,-0.046875,0.625
482,0.012207031,0.062194824,-0.93341064,0.3125,0.0,0.734375
483,0.0063476562,0.06121826,-0.9360962,0.078125,0.0625,0.625
484,0.010009766,0.05731201,-0.9331665,0.515625,0.03125,0.609375
485,0.01171875,0.061462402,-0.9336548,0.375,-0.015625,0.71875
486,0.0075683594,0.0602417,-0.93341064,0.265625,-0.0625,0.6875
487,0.0034179688,0.058288574,-0.9373169,0.296875,-0.1875,0.796875
488,0.0073242188,0.062927246,-0.9307251,0.328125,-0.15625,0.640625
489,0.0053710938,0.059265137,-0.9356079,0.25,0.015625,0.78125
490,0.0107421875,0.057800293,-0.9385376,0.453125,0.0,0.578125
491,0.0087890625,0.061950684,-0.93096924,0.40625,0.078125,0.703125
492,0.0078125,0.055114746,-0.928772,0.21875,-0.09375,0.71875
493,0.009765625,0.058044434,-0.9258423,0.03125,0.0,0.5625
494,0.008056641,0.06488037,-0.9295044,0.125,0.0625,0.734375
495,0.0078125,0.058532715,-0.9475708,0.578125,-0.5,0.65625
496,0.008544922,0.059509277,-0.94732666,0.53125,-0.015625,0.703125
497,0.0068359375,0.058044434,-0.9368286,0.265625,0.1875,0.703125
498,0.009277344,0.055114746,-0.9295044,0.359375,0.015625,0.671875
499,0.008544922,0.0602417,-0.92437744,0.21875,0.109375,0.78125
500,0.010498047,0.062194824,-0.9343872,0.328125,0.3125,0.734375
501,-0.0024414062,0.059753418,-0.9456177,-0.046875,0.1875,0.71875
502,0.0012207031,0.058776855,-0.9458618,0.265625,0.21875,0.640625
503,0.0041503906,0.05609131,-0.9260864,0.0625,0.25,0.671875
504,0.0068359375,0.062927246,-0.93707275,0.203125,0.265625,0.65625
505,0.0078125,0.055358887,-0.93829346,0.109375,0.140625,0.671875
506,0.0056152344,0.05609131,-0.93951416,0.15625,0.234375,0.609375
507,0.0061035156,0.06414795,-0.93096924,0.421875,0.296875,0.6875
508,-0.0029296875,0.059753418,-0.9277954,0.5625,0.265625,0.671875
509,-0.00048828125,0.058044434,-0.93756104,0.421875,0.234375,0.671875
510,-0.0014648438,0.05999756,-0.93170166,0.484375,0.234375,0.90625
511,0.00024414062,0.062194824,-0.93048096,0.65625,0.125,0.8125
512,0.0017089844,0.062927246,-0.9324341,0.546875,0.203125,0.71875
513,0.0041503906,0.0602417,-0.9356079,0.375,0.0625,0.828125
514,0.0,0.06390381,-0.9324341,0.796875,-0.03125,0.65625
515,0.005859375,0.0602417,-0.93951416,0.734375,-0.25,0.609375
516,-0.0014648438,0.0602417,-0.9314575,0.609375,-0.015625,0.734375
517,0.0063476562,0.06536865,-0.94195557,0.734375,-0.140625,0.71875
518,0.0007324219,0.058044434,-0.93756104,0.609375,-0.125,0.6875
519,-0.0061035156,0.05999756,-0.9338989,0.765625,0.03125,0.734375
520,-0.005126953,0.059265137,-0.92633057,0.5625,-0.0625,0.703125
521,0.0043945312,0.06317139,-0.93585205,0.359375,0.171875,0.6875
522,0.0031738281,0.066101074,-0.93170166,0.484375,-0.015625,0.703125
523,-0.0021972656,0.066101074,-0.9319458,0.25,0.03125,0.859375
524,0.0017089844,0.06439209,-0.93341064,-0.203125,-0.125,0.734375
525,-0.0031738281,0.06317139,-0.923645,1.40625,0.203125,0.625
526,0.0009765625,0.059753418,-0.93951416,-0.0625,-0.296875,0.78125
527,-0.0007324219,0.061950684,-0.93414307,0.5625,0.09375,0.421875
528,0.0024414062,0.06488037,-0.9434204,0.453125,-0.28125,0.609375
529,0.0017089844,0.06536865,-0.93536377,0.15625,-0.21875,0.6875
530,0.0048828125,0.066101074,-0.9326782,-0.21875,-0.40625,0.765625
531,0.0075683594,0.058532715,-0.92803955,0.265625,-0.625,0.6875
532,0.0029296875,0.058532715,-0.92926025,0.515625,-0.4375,0.828125
533,0.0041503906,0.0602417,-0.94415283,0.65625,-0.4375,0.8125
534,-0.0007324219,0.058776855,-0.9246216,0.578125,-0.140625,0.78125
535,0.0021972656,0.057556152,-0.92193604,0.734375,-0.359375,0.765625
536,0.0068359375,0.061462402,-0.9324341,0.625,0.078125,0.609375
537,-0.0007324219,0.057800293,-0.9356079,0.390625,-0.03125,0.65625
538,-0.0007324219,0.059265137,-0.93951416,0.28125,-0.109375,0.75
539,0.00024414062,0.059020996,-0.9360962,0.265625,0.015625,0.703125
540,0.0036621094,0.06439209,-0.94317627,0.25,0.109375,0.703125
541,-0.0007324219,0.06072998,-0.93951416,0.5625,0.046875,0.640625
542,0.0007324219,0.061706543,-0.9360962,0.6875,0.21875,0.625
543,0.0009765625,0.06854248,-0.9331665,1.03125,0.0,0.703125
544,0.0026855469,0.06512451,-0.93707275,0.890625,0.1875,0.75
545,0.0014648438,0.06463623,-0.9360962,1.59375,0.28125,0.78125
546,-0.001953125,0.06390381,-0.9299927,0.875,0.09375,0.8125
547,0.00024414062,0.0692749,-0.93170166,0.859375,0.078125,0.5
548,0.0012207031,0.066345215,-0.9265747,0.984375,0.359375,0.765625
549,-0.0026855469,0.07269287,-0.94073486,1.046875,0.328125,0.765625
550,-0.0043945312,0.07220459,-0.93951416,0.390625,-0.015625,0.59375
551,-0.005126953,0.078063965,-0.9397583,0.53125,-0.171875,0.765625
552,0.0012207031,0.06756592,-0.9373169,0.265625,-0.75,0.78125
553,0.0041503906,0.06951904,-0.9351196,-0.53125,-1.25,0.765625
554,-0.0009765625,0.0692749,-0.9290161,-0.4375,-1.125,0.765625
555,0.0036621094,0.066589355,-0.9295044,-1.3125,-0.78125,0.6875
556,0.0,0.058288574,-0.9299927,-0.171875,-0.078125,0.546875
557,0.0031738281,0.06781006,-0.9348755,0.109375,0.296875,0.515625
558,0.0075683594,0.066589355,-0.9368286,0.1875,0.3125,0.609375
559,0.00390625,0.06512451,-0.9258423,0.3125,0.3125,0.65625
560,-0.0029296875,0.06756592,-0.9343872,0.625,0.421875,0.515625
561,0.0034179688,0.06341553,-0.9378052,0.40625,0.28125,0.515625
562,0.0029296875,0.061706543,-0.9273071,-0.421875,1.0625,0.484375
563,0.0,0.06707764,-0.92193604,1.296875,0.453125,0.4375
564,-0.009033203,0.062683105,-0.9385376,0.203125,-0.1875,0.671875
565,-0.0017089844,0.06854248,-0.93463135,-0.515625,-0.78125,0.78125
566,-0.0073242188,0.06903076,-0.9331665,-0.5,-1.015625,0.859375
567,0.00024414062,0.062683105,-0.93756104,-0.046875,-1.21875,0.78125
568,-0.0014648438,0.0602417,-0.93218994,-0.0625,-1.109375,0.765625
569,-0.0007324219,0.06414795,-0.93878174,-0.0625,-0.484375,0.84375
570,0.0029296875,0.059753418,-0.9331665,0.21875,-0.296875,0.703125
571,0.0107421875,0.05657959,-0.9414673,0.203125,-0.046875,0.484375
572,0.0017089844,0.06121826,-0.93878174,0.03125,0.3125,0.640625
573,0.0036621094,0.055603027,-0.93096924,0.796875,0.4375,0.625
574,-0.0024414062,0.06707764,-0.9417114,0.5,0.390625,0.578125
575,0.0021972656,0.059265137,-0.93585205,0.25,0.0,0.546875
576,-0.0034179688,0.06072998,-0.942688,0.078125,-0.03125,0.6875
577,0.0024414062,0.061950684,-0.9265747,0.34375,0.03125,0.65625
578,0.0017089844,0.058532715,-0.92633057,0.625,0.265625,0.71875
579,-0.00048828125,0.06121826,-0.94366455,0.28125,-0.265625,0.6875
580,-0.0026855469,0.06048584,-0.9343872,0.5625,0.3125,0.71875
581,0.005126953,0.0602417,-0.93536377,0.4375,0.28125,0.59375
582,-0.005859375,0.06536865,-0.93756104,0.484375,0.109375,0.53125
583,0.0024414062,0.06317139,-0.93218994,0.65625,0.140625,0.734375
584,-0.0048828125,0.06512451,-0.9456177,0.203125,-0.015625,0.625
585,0.0036621094,0.058288574,-0.93707275,0.375,-0.109375,0.734375
586,-0.0012207031,0.062438965,-0.9343872,0.28125,-0.125,0.734375
587,0.001953125,0.06536865,-0.9404907,0.015625,-0.03125,0.734375
588,0.00024414062,0.057800293,-0.92755127,0.0625,-0.1875,0.78125
589,-0.0021972656,0.059265137,-0.94317627,0.109375,-0.03125,0.71875
590,-0.0031738281,0.06390381,-0.928772,0.234375,0.0,0.8125
591,-0.00390625,0.058776855,-0.93292236,0.15625,0.0,0.71875
592,-0.0024414062,0.05999756,-0.93096924,0.375,0.0,0.578125
593,-0.0068359375,0.06048584,-0.93707275,0.390625,0.234375,0.640625
594,-0.00024414062,0.05999756,-0.93878174,0.390625,0.203125,0.703125
595,-0.005126953,0.055847168,-0.9356079,0.421875,0.0625,0.6875
596,0.0012207031,0.0602417,-0.9299927,0.640625,0.109375,0.765625
597,-0.0034179688,0.06390381,-0.92852783,0.59375,-0.21875,0.828125
598,-0.0024414062,0.057800293,-0.9312134,0.359375,-0.171875,0.734375
599,-0.001953125,0.066589355,-0.942688,0.515625,-0.375,0.671875
600,-0.0061035156,0.06341553,-0.9404907,0.5625,-0.15625,0.671875
601,0.0007324219,0.0602417,-0.94073486,0.25,0.125,0.625
602,-0.00048828125,0.061950684,-0.9348755,0.40625,-0.03125,0.71875
603,-0.0087890625,0.06121826,-0.9373169,0.28125,0.046875,0.6875
604,-0.001953125,0.05731201,-0.93218994,0.4375,0.078125,0.578125
605,0.0034179688,0.06365967,-0.9356079,0.34375,-0.125,0.625
606,0.0021972656,0.06756592,-0.942688,0.75,-0.21875,0.640625
607,-0.009277344,0.06317139,-0.9390259,0.46875,-0.125,0.71875
608,-0.0036621094,0.06488037,-0.93292236,0.59375,-0.21875,0.765625
609,-0.007080078,0.058776855,-0.93634033,0.453125,-0.3125,0.71875
610,-0.008056641,0.06414795,-0.93218994,0.375,-0.09375,0.609375
611,-0.0043945312,0.062438965,-0.9343872,0.375,-0.046875,0.75
612,0.0029296875,0.06097412,-0.93218994,0.5,-0.109375,0.8125
613,-0.00024414062,0.061462402,-0.93341064,0.484375,-0.046875,0.71875
614,-0.0012207031,0.070251465,-0.9312134,0.421875,0.03125,0.75
615,0.00048828125,0.066833496,-0.93585205,0.40625,-0.09375,0.703125
616,-0.0056152344,0.070251465,-0.92926025,0.390625,-0.15625,0.671875
617,-0.007080078,0.0680542,-0.9356079,0.359375,-0.140625,0.828125
618,-0.0063476562,0.06488037,-0.9295044,0.28125,0.0,0.625
619,-0.0017089844,0.06365967,-0.93096924,0.734375,-0.09375,0.65625
620,0.0014648438,0.070007324,-0.9434204,0.171875,-0.4375,0.71875
621,0.0007324219,0.06536865,-0.9336548,0.234375,-0.140625,0.609375
622,-0.0061035156,0.062194824,-0.93463135,0.3125,-0.265625,0.796875
623,-0.001953125,0.06414795,-0.93878174,0.5,-0.15625,0.8125
624,-0.008300781,0.058532715,-0.93048096,0.28125,0.15625,0.65625
625,-0.01171875,0.06390381,-0.93585205,0.359375,0.140625,0.6875
626,-0.0014648438,0.0602417,-0.93878174,0.546875,-0.046875,0.625
627,-0.0031738281,0.06341553,-0.93341064,0.4375,-0.125,0.640625
628,-0.0087890625,0.0680542,-0.93096924,0.3125,0.0,0.640625
629,-0.0014648438,0.066101074,-0.9290161,0.484375,-0.046875,0.703125
630,-0.0012207031,0.06512451,-0.93829346,0.28125,-0.171875,0.640625
631,-0.0087890625,0.066101074,-0.9326782,0.46875,-0.171875,0.796875
632,-0.0012207031,0.06414795,-0.93585205,0.484375,-0.234375,0.703125
633,-0.0029296875,0.06536865,-0.9373169,0.71875,-0.203125,0.703125
634,-0.0041503906,0.06512451,-0.9302368,0.359375,-0.28125,0.625
635,-0.0017089844,0.06121826,-0.9380493,0.453125,-0.203125,0.9375
636,0.0017089844,0.062683105,-0.93585205,0.421875,-0.015625,0.640625
637,-0.010253906,0.062927246,-0.9336548,0.34375,0.21875,0.609375
638,-0.00048828125,0.07122803,-0.9414673,0.515625,-0.171875,0.609375
639,-0.010253906,0.06756592,-0.93878174,0.359375,-0.0625,0.6875
640,-0.007080078,0.06341553,-0.9402466,0.375,-0.25,0.6875
641,-0.0036621094,0.06585693,-0.9365845,0.859375,-0.484375,0.734375
642,-0.0061035156,0.06781006,-0.93048096,0.609375,-0.234375,0.78125
643,-0.001953125,0.06976318,-0.9385376,0.453125,0.015625,0.75
644,-0.0007324219,0.06463623,-0.9343872,0.625,0.03125,0.671875
645,-0.0061035156,0.07220459,-0.94073486,0.59375,0.125,0.671875
646,-0.00390625,0.066101074,-0.940979,0.453125,0.078125,0.625
647,0.0009765625,0.066589355,-0.9331665,0.34375,0.015625,0.6875
648,0.0017089844,0.06488037,-0.92974854,0.40625,0.109375,0.75
649,-0.005126953,0.06561279,-0.9360962,0.359375,-0.140625,0.609375
650,-0.0063476562,0.0692749,-0.93292236,0.25,-0.03125,0.6875
651,-0.005859375,0.0680542,-0.9319458,0.390625,-0.25,0.734375
652,-0.0024414062,0.066589355,-0.927063,0.375,-0.171875,0.6875
653,-0.0034179688,0.06903076,-0.93170166,0.515625,-0.078125,0.703125
654,0.0,0.06561279,-0.9380493,0.421875,-0.25,0.5625
655,-0.0053710938,0.06854248,-0.93536377,0.578125,-0.328125,0.703125
656,-0.004638672,0.06561279,-0.93829346,0.40625,-0.21875,0.765625
657,-0.00024414062,0.066589355,-0.9343872,0.40625,-0.109375,0.765625
658,0.001953125,0.0692749,-0.9343872,0.515625,-0.1875,0.640625
659,-0.005126953,0.066589355,-0.9348755,0.515625,-0.03125,0.640625
660,0.0021972656,0.06561279,-0.9331665,0.5625,-0.140625,0.640625
661,-0.0034179688,0.07342529,-0.9302368,0.84375,0.09375,0.78125
662,-0.00390625,0.06781006,-0.92974854,0.546875,-0.015625,0.65625
663,-0.0043945312,0.06365967,-0.9326782,0.671875,0.0625,0.609375
664,-0.0034179688,0.073913574,-0.9417114,0.21875,-0.109375,0.65625
665,-0.0007324219,0.06854248,-0.9336548,0.3125,0.046875,0.59375
666,-0.0043945312,0.06781006,-0.9312134,0.359375,-0.0625,0.671875
667,-0.006591797,0.06878662,-0.93927,0.59375,-0.09375,0.671875
668,-0.007080078,0.066101074,-0.93707275,0.453125,-0.09375,0.6875
669,-0.005859375,0.07293701,-0.94073486,0.296875,0.015625,0.671875
670,0.0026855469,0.066833496,-0.93463135,0.46875,0.015625,0.703125
671,-0.0056152344,0.06463623,-0.9302368,0.28125,-0.140625,0.703125
672,-0.0014648438,0.07147217,-0.93341064,-0.015625,-0.21875,0.671875
673,-0.0014648438,0.070739746,-0.93634033,0.15625,-0.09375,0.6875
674,-0.009033203,0.070007324,-0.9326782,0.234375,0.265625,0.71875
675,-0.0048828125,0.06463623,-0.9326782,0.390625,-0.203125,0.5625
676,-0.0053710938,0.06951904,-0.9356079,0.109375,-0.265625,0.609375
677,-0.0041503906,0.066101074,-0.9295044,0.21875,-0.203125,0.640625
678,-0.0075683594,0.06829834,-0.9348755,0.375,-0.5,0.6875
679,-0.008300781,0.066589355,-0.9343872,0.375,-0.5,0.609375
680,-0.0007324219,0.0692749,-0.93463135,0.296875,-0.453125,0.703125
681,0.0009765625,0.06878662,-0.92974854,0.296875,-0.53125,0.609375
682,0.00024414062,0.07171631,-0.93707275,0.21875,-0.75,0.6875
683,0.0007324219,0.06756592,-0.9314575,0.265625,-0.703125,0.78125
684,-0.0048828125,0.07122803,-0.9319458,0.09375,-0.640625,0.78125
685,-0.004638672,0.06903076,-0.9260864,0.46875,-0.640625,0.78125
686,0.0009765625,0.062194824,-0.94317627,0.1875,-0.671875,0.734375
687,0.0017089844,0.06707764,-0.94317627,0.0625,-0.5,0.84375
688,0.0021972656,0.06561279,-0.9385376,-0.171875,-0.34375,0.671875
689,0.004638672,0.062194824,-0.93829346,-0.0625,0.078125,0.75
690,0.0031738281,0.06829834,-0.9348755,0.15625,0.3125,0.71875
691,0.0024414062,0.07098389,-0.9368286,0.078125,0.0625,0.890625
692,0.005126953,0.070251465,-0.9343872,0.171875,0.296875,0.6875
693,0.006591797,0.07122803,-0.9319458,0.125,-0.015625,0.703125
694,0.0036621094,0.066101074,-0.92755127,0.234375,-0.015625,0.625
695,0.0009765625,0.06463623,-0.93048096,0.109375,0.0625,0.765625
696,-0.0012207031,0.059753418,-0.9324341,0.359375,0.015625,0.71875
697,0.0014648438,0.06561279,-0.9302368,0.234375,0.0625,0.640625
698,0.0009765625,0.06390381,-0.9312134,0.234375,-0.046875,0.625
699,0.0036621094,0.06390381,-0.93096924,0.40625,0.078125,0.578125
700,0.0053710938,0.05706787,-0.9360962,0.359375,-0.03125,0.53125
701,0.0053710938,0.06707764,-0.9312134,0.234375,-0.125,0.8125
702,0.0024414062,0.059020996,-0.923645,0.28125,-0.109375,0.65625
703,0.0,0.061950684,-0.93292236,0.265625,0.0625,0.671875
704,0.0048828125,0.059753418,-0.9378052,0.140625,-0.171875,0.640625
705,0.0017089844,0.06488037,-0.9290161,0.71875,0.015625,0.703125
706,-0.0021972656,0.06072998,-0.94488525,0.171875,-0.203125,0.578125
707,0.004638672,0.06341553,-0.9378052,0.3125,0.046875,0.734375
708,0.0029296875,0.06756592,-0.9368286,0.15625,0.0625,0.625
709,-0.0017089844,0.06488037,-0.93878174,0.265625,-0.03125,0.71875
710,0.0012207031,0.062927246,-0.9348755,0.203125,0.109375,0.71875
711,0.0007324219,0.06707764,-0.92974854,0.25,0.125,0.671875
712,-0.0043945312,0.059509277,-0.9356079,0.359375,0.09375,0.71875
713,0.0,0.061706543,-0.93756104,0.3125,0.109375,0.578125
714,-0.00048828125,0.06390381,-0.9324341,0.296875,-0.03125,0.71875
715,-0.0036621094,0.061950684,-0.9324341,0.328125,-0.03125,0.6875
716,-0.010498047,0.062683105,-0.9312134,0.4375,0.140625,0.828125
717,-0.004638672,0.055358887,-0.9331665,0.234375,0.046875,0.734375
718,0.004638672,0.062927246,-0.93463135,0.09375,-0.09375,0.6875
719,-0.0031738281,0.06341553,-0.9360962,0.125,0.03125,0.671875
720,-0.0075683594,0.06439209,-0.92974854,0.28125,0.125,0.734375
721,-0.0031738281,0.06561279,-0.9307251,0.1875,0.0625,0.71875
722,-0.0024414062,0.0602417,-0.9356079,0.328125,-0.15625,0.625
723,0.0009765625,0.061706543,-0.93829346,0.140625,-0.125,0.625
724,-0.0031738281,0.062438965,-0.93341064,0.1875,-0.203125,0.734375
725,-0.0036621094,0.061462402,-0.93829346,0.703125,-0.3125,0.625
726,-0.004638672,0.062194824,-0.93096924,0.4375,0.125,0.765625
727,0.0012207031,0.0692749,-0.9348755,0.21875,0.078125,0.75
728,-0.0007324219,0.062194824,-0.93218994,0.25,0.0625,0.703125
729,0.0,0.06390381,-0.940979,0.453125,-0.078125,0.71875
730,-0.0036621094,0.06121826,-0.93536377,0.296875,0.0625,0.84375
731,-0.0053710938,0.062683105,-0.9429321,0.171875,0.09375,0.75
732,0.0024414062,0.062927246,-0.93218994,0.375,-0.09375,0.828125
733,-0.0053710938,0.058532715,-0.9319458,0.15625,-0.109375,0.71875
734,-0.0056152344,0.06341553,-0.9312134,0.21875,0.046875,0.71875
735,-0.0031738281,0.058288574,-0.93585205,0.296875,0.109375,0.65625
736,-0.00024414062,0.06072998,-0.9326782,0.421875,0.0625,0.703125
737,-0.0075683594,0.061706543,-0.9290161,0.359375,-0.015625,0.859375
738,-0.0075683594,0.05706787,-0.93878174,0.359375,-0.125,0.78125
739,0.0029296875,0.05682373,-0.9338989,0.125,-0.0625,0.78125
740,-0.008300781,0.058044434,-0.9385376,0.453125,-0.015625,0.65625
741,-0.0056152344,0.066589355,-0.9336548,0.375,-0.078125,0.6875
742,-0.0029296875,0.062194824,-0.93341064,0.234375,-0.171875,0.75
743,-0.0026855469,0.06097412,-0.93585205,0.453125,-0.015625,0.5625
744,-0.0017089844,0.06121826,-0.93341064,0.234375,0.171875,0.734375
745,-0.0036621094,0.061950684,-0.9343872,0.515625,-0.015625,0.6875
746,-0.0007324219,0.06707764,-0.93878174,0.546875,-0.609375,0.6875
747,-0.0007324219,0.06121826,-0.94073486,0.53125,-0.34375,0.640625
748,0.0007324219,0.06536865,-0.9380493,0.203125,-0.25,0.609375
749,-0.009521484,0.062194824,-0.9277954,0.3125,-0.25,0.625
750,-0.0075683594,0.058776855,-0.9348755,0.328125,0.046875,0.546875
751,-0.0056152344,0.06097412,-0.9295044,0.46875,0.21875,0.6875
752,-0.0007324219,0.06365967,-0.93170166,0.40625,0.0625,0.640625
753,-0.0087890625,0.059753418,-0.9385376,0.515625,0.03125,0.671875
754,-0.0078125,0.061950684,-0.9365845,0.421875,-0.109375,0.875
755,-0.0007324219,0.0680542,-0.93341064,0.359375,0.015625,0.671875
756,-0.008056641,0.062194824,-0.93756104,0.484375,-0.1875,0.734375
757,-0.00390625,0.06976318,-0.9314575,0.4375,-0.296875,0.734375
758,-0.004638672,0.06561279,-0.93341064,0.375,-0.171875,0.703125
759,-0.00390625,0.06414795,-0.93292236,0.328125,-0.21875,0.734375
