sample_no,accel_x,accel_y,accel_z,gyro_x,gyro_y,gyro_z
0,0.1743164,-1.0125122,0.03314209,-14.828125,-0.859375,-0.296875
1,0.13500977,-0.94488525,0.07489014,-10.015625,-0.921875,-5.015625
2,0.21459961,-0.9883423,0.030456543,3.0625,-4.984375,0.6875
3,0.23022461,-1.0154419,0.10760498,-11.578125,-6.53125,4.546875
4,0.27246094,-1.0359497,0.019226074,-2.671875,-9.609375,7.96875
5,0.21606445,-1.0523071,0.019958496,-0.5,-13.28125,6.125
6,0.1850586,-0.9429321,0.11639404,-9.90625,-11.21875,-1.203125
7,0.12084961,-0.96295166,0.093444824,-1.671875,-18.359375,5.640625
8,0.16333008,-1.0374146,0.06439209,0.40625,-17.25,6.640625
9,0.23120117,-0.989563,0.101257324,-8.734375,-10.09375,-1.90625
10,0.23925781,-0.9546509,0.09295654,-16.515625,-5.125,0.84375
11,0.19091797,-0.9644165,0.13421631,-20.96875,0.5,-0.953125
12,0.118896484,-1.0005493,0.105407715,-28.21875,-6.5625,-4.109375
13,0.053955078,-1.0371704,0.25604248,-23.65625,-2.65625,1.328125
14,0.2692871,-0.98809814,0.21258545,-21.484375,16.484375,-6.84375
15,0.30517578,-0.8418579,0.26239014,-22.328125,12.859375,-13.84375
16,0.17089844,-0.8916626,0.35321045,-14.65625,4.953125,-2.75
17,0.114746094,-1.0305786,0.21917725,1.890625,-4.234375,2.390625
18,0.13745117,-0.972229,0.26531982,-9.5,-2.90625,-3.421875
19,0.1772461,-0.92803955,0.2736206,-9.125,-5.84375,-7.59375
20,0.15014648,-0.95391846,0.31072998,-4.484375,-4.984375,-3.0625
21,0.09106445,-0.96051025,0.31756592,0.09375,-2.828125,2.171875
22,0.0637207,-1.0012817,0.25579834,-3.890625,-6.765625,5.078125
23,0.099609375,-0.987854,0.3102417,-2.59375,-3.75,1.953125
24,0.11328125,-0.92559814,0.32855225,-4.203125,6.59375,-2.515625
25,0.12182617,-0.9434204,0.32440186,-3.71875,5.984375,-3.078125
26,0.12841797,-0.9871216,0.28216553,-5.0,1.078125,0.03125
27,0.13671875,-0.9602661,0.36761475,-1.671875,-0.953125,-0.640625
28,0.15014648,-0.8982544,0.30218506,5.703125,-0.21875,1.171875
29,0.1484375,-0.8875122,0.33538818,9.828125,-3.5625,3.03125
30,0.14404297,-0.9944458,0.34344482,10.09375,-2.5625,9.78125
31,0.14624023,-1.0513306,0.29022217,18.078125,-4.671875,11.015625
32,0.21240234,-0.9697876,0.30706787,6.53125,-5.671875,8.0
33,0.2590332,-0.8723755,0.24456787,2.546875,-11.140625,3.203125
34,0.21386719,-0.9573364,0.24359131,1.546875,-20.828125,4.734375
35,0.103027344,-1.0147095,0.25946045,-2.34375,-19.015625,3.3125
36,0.07836914,-0.9859009,0.32611084,2.390625,-21.203125,0.53125
37,0.05517578,-1.0117798,0.2831421,-3.875,-8.375,-2.53125
38,0.16040039,-0.9734497,0.2929077,-10.390625,1.78125,-2.109375
39,0.2265625,-0.9324341,0.30950928,-8.421875,4.609375,-6.140625
40,0.16186523,-0.8909302,0.39031982,-11.171875,4.046875,-9.34375
41,0.11206055,-0.92852783,0.35980225,-9.125,-2.890625,-4.6875
42,0.09643555,-0.9990845,0.36224365,-6.34375,0.6875,3.078125
43,0.1640625,-1.0144653,0.35882568,9.125,-7.609375,5.546875
44,0.1508789,-0.9602661,0.3522339,9.609375,-0.703125,2.328125
45,0.13549805,-0.9524536,0.31951904,2.6875,0.265625,0.984375
46,0.13574219,-0.9602661,0.33343506,10.265625,-5.125,1.265625
47,0.13745117,-0.9458618,0.31536865,6.53125,-5.734375,0.484375
48,0.103759766,-0.9768677,0.29388428,8.0625,-2.65625,-0.140625
49,0.09375,-0.956604,0.29193115,5.390625,-4.890625,1.171875
50,0.140625,-0.9546509,0.29266357,2.65625,-5.28125,1.515625
51,0.13427734,-0.9541626,0.3048706,1.40625,-2.1875,1.109375
52,0.12817383,-0.95880127,0.28485107,1.640625,-1.609375,2.0
53,0.1237793,-0.9483032,0.28045654,2.921875,-0.390625,1.828125
54,0.12158203,-0.94488525,0.26019287,-1.328125,0.484375,0.484375
55,0.11645508,-1.0479126,0.25604248,-6.65625,-3.078125,1.125
56,0.099853516,-1.0159302,0.40472412,-8.8125,-3.09375,-2.125
57,0.11230469,-0.9133911,0.33685303,-5.21875,2.921875,-6.046875
58,0.09448242,-0.93414307,0.30682373,-10.4375,1.53125,-3.46875
59,0.14575195,-0.94317627,0.36883545,-5.921875,7.171875,-2.046875
60,0.10131836,-0.94781494,0.36029053,-2.328125,7.78125,-0.96875
61,0.0925293,-0.9690552,0.3632202,-1.40625,2.734375,-1.140625
62,0.09008789,-0.99102783,0.36444092,5.703125,-0.171875,1.71875
63,0.1003418,-0.956604,0.29510498,1.28125,-2.25,3.40625
64,0.13720703,-0.9360962,0.3517456,-3.265625,-0.1875,-0.015625
65,0.14038086,-0.96588135,0.33221436,0.90625,5.640625,1.578125
66,0.08911133,-0.93292236,0.371521,5.578125,7.109375,1.015625
67,0.09399414,-0.9758911,0.3024292,0.71875,3.265625,0.484375
68,0.12719727,-0.9421997,0.35150146,1.078125,3.796875,-0.484375
69,0.099121094,-0.9710083,0.35784912,-0.046875,3.34375,-0.3125
70,0.10839844,-0.96173096,0.3451538,6.09375,0.9375,1.78125
71,0.12524414,-0.96221924,0.31536865,6.4375,4.75,1.34375
72,0.119140625,-0.9849243,0.3649292,0.984375,7.53125,0.421875
73,0.15258789,-0.92437744,0.19793701,1.890625,3.828125,-0.796875
74,0.107666016,-1.0193481,0.3131714,1.6875,-3.671875,-0.53125
75,0.10473633,-0.986145,0.31854248,1.90625,0.53125,-1.828125
76,0.103271484,-0.9727173,0.2970581,4.0625,3.90625,-1.140625
77,0.10961914,-0.9644165,0.29925537,2.0625,0.5625,-0.765625
78,0.13183594,-0.9505005,0.2975464,4.09375,0.328125,0.5
79,0.11328125,-0.9397583,0.277771,1.53125,-1.09375,1.453125
80,0.11694336,-0.95806885,0.2904663,0.6875,-0.734375,2.0
81,0.12963867,-0.96710205,0.29437256,0.890625,-2.09375,2.1875
82,0.122802734,-0.9849243,0.3012085,1.0625,-2.875,2.8125
83,0.119384766,-0.99005127,0.2850952,1.734375,-2.265625,2.625
84,0.11010742,-0.973938,0.28704834,2.171875,-1.625,2.484375
85,0.1262207,-0.9673462,0.2723999,3.734375,-1.6875,3.078125
86,0.13134766,-0.96295166,0.2501831,2.15625,-1.734375,2.625
87,0.14038086,-0.9446411,0.2645874,-0.296875,-3.6875,0.71875
88,0.12817383,-0.96343994,0.29901123,-1.078125,-0.34375,-0.734375
89,0.11254883,-1.0105591,0.2736206,-1.171875,-3.578125,2.0625
90,0.12988281,-0.98223877,0.25628662,-1.390625,-6.03125,2.109375
91,0.099853516,-0.99102783,0.33221436,-15.171875,-4.046875,-0.1875
92,0.14257812,-0.8933716,0.3685913,0.984375,0.25,-1.15625
93,0.11401367,-0.9378052,0.2662964,-3.6875,2.5625,1.21875
94,0.08984375,-0.9788208,0.3505249,3.71875,5.40625,2.40625
95,0.1262207,-1.0164185,0.2687378,4.265625,1.53125,1.53125
96,0.1315918,-0.98101807,0.3270874,-0.96875,1.328125,1.265625
97,0.12670898,-0.92193604,0.32537842,1.453125,-0.140625,1.265625
98,0.14697266,-0.94659424,0.26898193,-2.28125,-0.703125,0.46875
99,0.13720703,-0.9729614,0.3168335,-0.875,0.21875,2.921875
100,0.12939453,-0.9961548,0.31976318,0.8125,-1.984375,3.03125
101,0.14672852,-0.9470825,0.30560303,-0.546875,-0.28125,0.703125
102,0.09057617,-0.9685669,0.3209839,-3.125,1.03125,-1.734375
103,0.11694336,-0.93585205,0.28607178,0.15625,2.15625,-1.328125
104,0.12133789,-0.9871216,0.27923584,-3.4375,2.46875,0.09375
105,0.13256836,-0.9920044,0.33807373,-6.859375,1.8125,0.40625
106,0.12011719,-0.9656372,0.34124756,2.6875,2.5625,1.75
107,0.08935547,-0.9385376,0.36029053,5.0625,3.28125,3.078125
108,0.17333984,-0.91485596,0.2929077,3.140625,1.875,-0.34375
109,0.17041016,-0.99346924,0.3139038,-0.34375,3.296875,0.296875
110,0.15234375,-0.9673462,0.32269287,3.421875,1.640625,0.8125
111,0.107666016,-0.987854,0.24920654,1.671875,-2.828125,-0.328125
112,0.12109375,-0.97662354,0.3444214,-1.4375,5.078125,0.046875
113,0.12939453,-0.9282837,0.3048706,0.953125,4.265625,-1.84375
114,0.14282227,-0.9678345,0.3307495,-0.390625,8.75,-1.53125
115,0.14794922,-0.956604,0.28875732,7.703125,5.65625,2.1875
116,0.13598633,-0.95562744,0.2489624,-0.84375,1.46875,0.96875
117,0.12011719,-1.0117798,0.277771,-1.15625,-2.328125,-0.59375
118,0.1538086,-0.9949341,0.32635498,4.71875,-3.296875,2.859375
119,0.14453125,-0.91070557,0.30926514,5.640625,-2.34375,3.265625
120,0.15185547,-0.91192627,0.25775146,0.984375,-0.421875,0.375
121,0.15063477,-0.9890747,0.25701904,-1.890625,-0.984375,0.078125
122,0.10888672,-1.0249634,0.2819214,-0.296875,-2.9375,1.1875
123,0.0925293,-0.9944458,0.3143921,-0.515625,-2.828125,1.78125
124,0.11767578,-0.9414673,0.33026123,0.015625,1.234375,-0.046875
125,0.11816406,-0.927063,0.2999878,1.59375,1.484375,-1.578125
126,0.16088867,-0.9817505,0.25238037,-1.875,3.046875,0.796875
127,0.15356445,-0.9939575,0.2518921,-1.671875,1.25,-0.859375
128,0.109375,-1.0205688,0.3324585,-3.0,1.796875,1.828125
129,0.119384766,-0.9536743,0.3414917,1.71875,-3.703125,1.046875
130,0.14379883,-0.92510986,0.29486084,3.90625,-1.015625,-0.046875
131,0.14477539,-0.9168091,0.27630615,1.4375,-3.09375,-0.125
132,0.09008789,-0.9624634,0.24481201,-13.40625,-7.328125,-1.59375
133,0.11254883,-0.9487915,0.34588623,-2.53125,-3.859375,-1.234375
134,0.15478516,-1.0337524,0.3139038,11.046875,0.484375,1.375
135,0.12817383,-1.0232544,0.28997803,3.265625,-2.46875,-0.3125
136,0.107910156,-0.9685669,0.31097412,5.03125,-1.234375,-0.953125
137,0.09301758,-0.9319458,0.26605225,7.359375,-3.078125,0.140625
138,0.103515625,-0.9758911,0.26361084,4.265625,-3.71875,0.90625
139,0.115478516,-1.0134888,0.25457764,4.640625,-5.734375,-0.09375
140,0.12011719,-1.0022583,0.2694702,3.6875,-6.578125,0.171875
141,0.12060547,-0.9639282,0.25726318,5.234375,-5.421875,-0.25
142,0.10449219,-0.97076416,0.23016357,5.515625,-3.9375,1.671875
143,0.095214844,-0.9805298,0.24285889,5.859375,-3.21875,2.71875
144,0.09814453,-0.9663696,0.22479248,5.4375,-2.890625,3.578125
145,0.11450195,-0.9475708,0.20697021,5.609375,-3.703125,4.515625
146,0.114990234,-0.9627075,0.21380615,4.59375,-3.0,5.09375
147,0.15063477,-0.9561157,0.23187256,2.96875,-2.9375,1.109375
148,0.14013672,-1.0371704,0.17327881,0.9375,-6.34375,3.234375
149,0.06738281,-1.1306763,0.16986084,-0.859375,-18.359375,8.953125
150,0.09887695,-1.0181274,0.45281982,-27.015625,22.421875,0.734375
151,0.19311523,-0.7461548,0.23651123,0.703125,-16.171875,-2.28125
152,0.18286133,-0.9534302,0.27166748,-22.703125,3.5,8.3125
153,0.20532227,-0.94415283,0.35931396,-1.03125,1.890625,5.8125
154,0.10107422,-1.0037231,0.28118896,9.15625,-6.125,3.890625
155,0.0625,-1.0488892,0.23284912,-3.234375,4.984375,-0.171875
156,0.05883789,-0.9483032,0.22332764,-16.1875,-9.421875,0.734375
157,0.20458984,-0.9229126,0.38275146,-10.59375,12.640625,-4.71875
158,0.2607422,-0.8909302,0.39715576,3.25,3.0625,0.921875
159,0.16552734,-0.87164307,0.34100342,5.03125,6.28125,1.5
160,0.0847168,-1.019104,0.19793701,6.265625,-2.953125,2.609375
161,0.08105469,-1.069397,0.33807373,-2.984375,-1.875,4.4375
162,0.14428711,-1.024231,0.24139404,-10.375,-9.84375,4.140625
163,0.1899414,-0.9170532,0.4286499,-1.75,0.1875,-1.875
164,0.19165039,-0.81451416,0.30804443,-0.40625,3.390625,-5.25
165,0.08959961,-0.9463501,0.31756592,4.65625,4.4375,1.03125
166,0.09765625,-1.0588989,0.262146,-0.359375,3.140625,3.921875
167,0.12182617,-1.0083618,0.3048706,-7.1875,-1.4375,-1.640625
168,0.12817383,-0.9907837,0.4249878,-12.15625,-2.09375,-1.375
169,0.24267578,-0.8562622,0.36639404,6.953125,0.640625,-1.1875
170,0.13134766,-0.87945557,0.29534912,0.046875,1.875,0.0
171,0.0925293,-0.9871216,0.26605225,0.578125,3.328125,1.765625
172,0.12646484,-1.0029907,0.34906006,-7.578125,0.578125,1.21875
173,0.13476562,-1.0374146,0.3768921,-8.984375,-6.734375,0.03125
174,0.19213867,-0.92803955,0.40496826,14.796875,4.71875,0.28125
175,0.1274414,-0.81036377,0.27923584,6.953125,3.8125,-1.234375
176,0.10595703,-0.96295166,0.27996826,-5.046875,3.375,1.046875
177,0.11401367,-1.0154419,0.3847046,-7.21875,4.546875,1.609375
178,0.14501953,-0.99224854,0.3480835,1.65625,0.75,-1.59375
179,0.16137695,-0.9338989,0.3703003,6.28125,0.3125,0.984375
180,0.16040039,-0.9324341,0.31170654,-0.515625,-0.359375,1.25
181,0.15039062,-0.96539307,0.32073975,-0.84375,-0.4375,-0.21875
182,0.14013672,-0.9741821,0.3397827,-0.171875,1.84375,-0.078125
183,0.13232422,-0.95098877,0.3480835,-0.96875,0.5625,-0.09375
184,0.13549805,-0.9302368,0.32440186,-4.171875,-2.125,-0.3125
185,0.15527344,-0.94122314,0.3456421,-3.40625,-1.234375,-1.484375
186,0.15722656,-0.97613525,0.34661865,1.171875,0.015625,-1.34375
187,0.123046875,-0.9607544,0.35125732,1.15625,-1.5,-0.375
188,0.125,-0.94537354,0.36810303,0.703125,-2.390625,-1.015625
189,0.12109375,-0.9590454,0.3529663,14.9375,2.09375,-0.0625
190,0.10107422,-1.0046997,0.2579956,15.375,-3.53125,1.734375
191,0.12060547,-0.98516846,0.30462646,6.859375,-5.25,0.90625
192,0.1418457,-0.91900635,0.27386475,8.0,-2.3125,-0.546875
193,0.12133789,-0.9595337,0.2838745,0.0625,0.171875,1.015625
194,0.095458984,-0.97906494,0.31707764,1.125,-0.890625,1.84375
195,0.1171875,-0.9607544,0.30316162,-0.65625,-1.265625,0.703125
196,0.14160156,-0.95391846,0.30438232,-1.234375,-0.578125,0.265625
197,0.12133789,-0.9973755,0.29315186,-1.0,2.59375,1.265625
198,0.10498047,-0.9795532,0.2711792,1.828125,3.40625,1.484375
199,0.12792969,-0.9417114,0.30291748,-2.484375,1.875,0.390625
200,0.14501953,-0.9768677,0.2748413,-3.703125,-1.671875,0.765625
201,0.114746094,-1.0376587,0.28826904,-9.359375,-7.78125,3.828125
202,0.14916992,-0.9456177,0.40740967,-5.421875,-0.0625,0.25
203,0.1274414,-0.8826294,0.28997803,-2.359375,3.671875,-4.125
204,0.10449219,-0.9661255,0.34466553,-9.40625,1.4375,0.390625
205,0.15039062,-0.99005127,0.35272217,2.125,-1.578125,1.375
206,0.12133789,-0.9717407,0.32147217,3.4375,2.265625,0.90625
207,0.09375,-0.940979,0.32318115,-2.390625,-1.375,-0.53125
208,0.125,-0.93756104,0.34368896,0.46875,0.734375,-0.578125
209,0.13208008,-0.9553833,0.34075928,3.578125,2.09375,0.71875
210,0.11352539,-0.97247314,0.2723999,3.234375,-0.40625,3.46875
211,0.13208008,-0.97613525,0.33465576,-2.515625,-3.3125,1.984375
212,0.12231445,-0.9561157,0.33172607,1.203125,1.3125,-0.421875
213,0.13256836,-0.95391846,0.32269287,2.359375,-1.953125,2.796875
214,0.14331055,-0.96343994,0.30828857,2.3125,0.609375,2.96875
215,0.125,-0.9656372,0.29388428,-1.71875,0.15625,-0.09375
216,0.100097656,-0.9944458,0.36663818,-3.859375,0.09375,-0.09375
217,0.12207031,-0.9463501,0.3361206,1.546875,-0.140625,0.640625
218,0.12695312,-0.94244385,0.32635498,1.234375,-1.296875,1.234375
219,0.13598633,-0.93829346,0.33392334,1.46875,2.328125,1.140625
220,0.1184082,-0.9702759,0.32635498,1.03125,3.890625,-0.09375
221,0.12670898,-0.9805298,0.31903076,-1.90625,1.078125,-0.515625
222,0.12524414,-0.9800415,0.32391357,0.59375,-0.296875,-0.09375
223,0.123291016,-0.9573364,0.32928467,-0.8125,-0.84375,0.53125
224,0.13452148,-0.96759033,0.33758545,-1.71875,-2.21875,1.03125
225,0.13012695,-0.9439087,0.34979248,1.125,0.03125,-0.03125
226,0.12841797,-0.94732666,0.32806396,1.578125,-0.625,0.75
227,0.13110352,-0.956604,0.33270264,2.765625,-1.265625,1.546875
228,0.12109375,-0.97125244,0.34661865,6.28125,-1.171875,1.609375
229,0.12939453,-0.97198486,0.3234253,3.21875,-2.453125,0.3125
230,0.13476562,-0.97125244,0.31048584,5.84375,0.28125,0.703125
231,0.1340332,-0.9729614,0.3007202,6.375,-0.515625,1.359375
232,0.140625,-0.95684814,0.2921753,7.6875,-1.53125,0.53125
233,0.13549805,-0.9866333,0.2765503,11.546875,-2.0,0.03125
234,0.119140625,-0.97442627,0.24993896,4.890625,-0.484375,0.640625
235,0.115478516,-0.9573364,0.26678467,5.734375,-2.65625,1.03125
236,0.12036133,-0.9768677,0.26409912,4.25,-2.296875,1.203125
237,0.12524414,-0.9771118,0.2538452,5.28125,-0.40625,0.78125
238,0.1184082,-0.98760986,0.2531128,5.828125,-1.265625,0.90625
239,0.11987305,-0.96832275,0.24481201,4.9375,-2.0,0.6875
240,0.12426758,-0.9717407,0.22723389,4.625,-1.328125,0.671875
241,0.11816406,-0.9783325,0.22650146,2.453125,-1.3125,0.703125
242,0.12158203,-0.96661377,0.22796631,0.8125,-1.578125,0.796875
243,0.11425781,-0.9651489,0.22869873,-1.171875,-1.25,0.4375
244,0.10986328,-0.9746704,0.22406006,-4.15625,-2.6875,0.34375
245,0.12060547,-0.98809814,0.14910889,-10.21875,-2.3125,0.640625
246,0.095214844,-1.0603638,0.2658081,-14.609375,-6.09375,0.59375
247,0.103515625,-0.96710205,0.38787842,-7.671875,-4.96875,2.828125
248,0.1418457,-0.897522,0.30389404,-3.8125,-1.4375,1.171875
249,0.13916016,-0.9246216,0.2675171,-9.578125,7.015625,-2.390625
250,0.12841797,-0.99542236,0.34100342,-1.15625,6.3125,-0.03125
251,0.13012695,-0.99298096,0.28704834,5.03125,1.828125,0.171875
252,0.09838867,-0.9612427,0.30438232,3.046875,0.65625,0.90625
253,0.10180664,-0.9434204,0.29852295,1.46875,0.421875,2.484375
254,0.12670898,-0.93878174,0.2994995,-0.75,1.6875,-1.40625
255,0.12866211,-0.9968872,0.2946167,-0.78125,2.921875,0.03125
256,0.1237793,-0.97320557,0.28826904,0.40625,2.96875,0.984375
257,0.115722656,-1.0007935,0.34417725,3.703125,6.5,-1.28125
258,0.12182617,-0.9356079,0.22796631,6.921875,0.015625,-0.015625
259,0.06982422,-0.9951782,0.2736206,2.015625,-4.796875,0.984375
260,0.13867188,-1.0015259,0.27947998,3.96875,-4.546875,2.484375
261,0.1418457,-0.9463501,0.2584839,5.8125,3.28125,1.640625
262,0.09838867,-0.9558716,0.2723999,0.875,-1.296875,2.03125
263,0.125,-0.97613525,0.2748413,-0.75,-5.0,2.125
264,0.1418457,-0.98516846,0.27801514,-0.078125,-1.890625,0.828125
265,0.12158203,-0.986145,0.2675171,0.734375,0.84375,0.359375
266,0.10668945,-0.972229,0.27313232,2.5625,0.40625,0.5625
267,0.1262207,-0.9729614,0.276062,2.234375,-0.46875,0.46875
268,0.12890625,-0.97857666,0.2645874,1.765625,0.578125,0.234375
269,0.12036133,-0.989563,0.25457764,2.34375,0.265625,-0.0625
270,0.10571289,-0.9829712,0.25506592,1.90625,0.109375,-0.078125
271,0.12524414,-0.9788208,0.25360107,3.625,-0.4375,-0.078125
272,0.115234375,-0.9758911,0.24310303,2.625,-0.53125,0.109375
273,0.114990234,-0.972229,0.23675537,1.9375,-1.046875,0.265625
274,0.11376953,-0.97491455,0.24920654,3.890625,-1.59375,0.71875
275,0.10913086,-0.98223877,0.2333374,2.546875,-0.640625,0.671875
276,0.10473633,-0.97491455,0.24432373,2.40625,-0.140625,0.515625
277,0.11669922,-0.9746704,0.23699951,3.0625,0.28125,0.453125
278,0.12597656,-0.98321533,0.2243042,2.671875,0.8125,0.71875
279,0.119628906,-0.9746704,0.22698975,2.953125,-0.625,0.65625
280,0.08862305,-0.98883057,0.22235107,4.78125,1.46875,-0.75
281,0.06982422,-1.0022583,0.20428467,-0.59375,1.421875,-0.234375
282,0.04321289,-0.99664307,0.1906128,-0.015625,-0.265625,0.90625
283,0.060302734,-0.9524536,0.19647217,0.375,1.46875,2.578125
284,0.15844727,-0.9631958,0.20501709,-1.46875,3.234375,0.921875
285,0.18359375,-0.9299927,0.2662964,-2.84375,3.375,-2.09375
286,0.14233398,-0.9194946,0.21136475,-7.015625,-2.546875,-2.828125
287,0.10180664,-1.0098267,0.24505615,-6.1875,-2.3125,-2.328125
288,0.08544922,-1.0354614,0.2399292,-3.796875,-3.109375,3.296875
289,0.14868164,-0.9793091,0.22747803,1.421875,-1.65625,1.625
290,0.19677734,-0.9553833,0.28167725,-3.390625,-7.625,2.03125
291,0.111083984,-0.91412354,0.27679443,-11.25,-15.671875,8.34375
292,0.16064453,-0.95806885,0.31854248,-13.796875,-14.78125,1.390625
293,0.14038086,-1.0271606,0.32489014,-12.3125,-11.125,-0.5
294,0.1538086,-0.9859009,0.36663818,-7.6875,-5.5,-1.40625
295,0.07397461,-0.90582275,0.3595581,6.28125,-7.6875,1.453125
296,0.0034179688,-0.99102783,0.22869873,11.828125,-15.015625,6.125
297,0.0024414062,-0.99664307,0.2694702,-2.109375,-0.765625,6.484375
298,0.0234375,-1.0044556,0.2164917,-15.125,-8.328125,-0.671875
299,-0.064453125,-1.0366821,0.43133545,-31.203125,14.53125,4.703125
300,0.29174805,-0.833313,0.4616089,-3.828125,15.96875,-7.921875
301,0.140625,-0.84747314,0.53582764,28.8125,4.421875,4.078125
302,0.123046875,-0.847229,0.15106201,10.5,-15.109375,10.015625
303,0.02368164,-0.9890747,0.27313232,-20.625,6.796875,-3.890625
304,0.16015625,-1.204895,0.48309326,-11.296875,5.65625,-7.484375
305,0.13208008,-0.96051025,0.3756714,0.421875,-3.453125,3.9375
306,0.09765625,-0.74786377,0.42156982,4.640625,4.75,6.390625
307,0.19604492,-0.84039307,0.26922607,5.0625,-4.125,0.078125
308,0.1315918,-1.0918579,0.30877686,-14.96875,6.71875,0.46875
309,0.15332031,-1.0774536,0.46746826,-6.546875,7.0625,-3.859375
310,0.052734375,-0.97198486,0.3554077,11.3125,-11.59375,3.65625
311,0.016357422,-0.8352661,0.35736084,1.46875,4.0625,-1.078125
312,0.052001953,-0.84210205,0.34613037,-4.796875,3.875,-2.296875
313,0.11621094,-1.0484009,0.42425537,-8.1875,16.109375,5.0625
314,0.1237793,-1.0457153,0.37542725,-4.34375,7.109375,2.265625
315,0.09716797,-0.9456177,0.40716553,-2.546875,13.375,-1.171875
316,0.1508789,-0.8718872,0.41253662,-1.859375,16.25,-4.609375
317,0.15161133,-0.8665161,0.3829956,4.03125,16.0625,-2.734375
318,0.18579102,-0.98101807,0.37591553,0.28125,17.34375,-1.046875
319,0.11816406,-0.9702759,0.41351318,12.796875,8.65625,0.421875
320,0.18432617,-0.95147705,0.33831787,12.5625,4.1875,0.703125
321,0.23291016,-0.9483032,0.27459717,5.15625,1.859375,-0.734375
322,0.20751953,-0.93951416,0.3258667,-1.90625,0.1875,-0.390625
323,0.12524414,-0.9727173,0.34100342,3.0,-1.765625,1.671875
324,0.109375,-0.9644165,0.33709717,0.890625,-3.421875,1.734375
325,0.15234375,-0.9624634,0.33709717,-6.140625,-4.578125,-0.5
326,0.19677734,-0.9561157,0.2929077,-10.296875,-8.421875,-2.109375
327,0.1743164,-0.92755127,0.4069214,-6.9375,-5.28125,-0.5625
328,0.12573242,-0.98223877,0.37420654,10.671875,-4.28125,3.046875
329,0.08862305,-0.9336548,0.3312378,2.765625,-8.34375,2.390625
330,0.10888672,-0.956604,0.39178467,9.296875,-8.5625,3.203125
331,0.12866211,-0.9890747,0.32806396,11.5,-6.71875,3.34375
332,0.088378906,-0.9824829,0.2975464,11.34375,-6.078125,1.3125
333,0.059326172,-1.00177,0.2987671,12.078125,-7.625,0.859375
334,0.11279297,-0.9522095,0.27069092,5.21875,-4.59375,0.453125
335,0.1171875,-0.91607666,0.2843628,2.6875,-0.65625,0.09375
336,0.13134766,-0.91778564,0.29852295,-1.28125,-1.8125,0.140625
337,0.13671875,-0.9507446,0.29510498,0.453125,-1.828125,0.875
338,0.16577148,-1.0276489,0.22161865,3.4375,-2.921875,4.0625
339,0.13598633,-1.0205688,0.32757568,-3.984375,-5.40625,3.78125
340,0.115234375,-0.8965454,0.34368896,-5.515625,-0.046875,-1.859375
341,0.08959961,-1.0300903,0.28704834,-15.09375,-6.1875,-0.875
342,0.16308594,-0.975647,0.36395264,-7.609375,-1.390625,2.40625
343,0.14575195,-0.9048462,0.33172607,-1.75,1.515625,3.296875
344,0.1430664,-0.94488525,0.3612671,-7.109375,6.25,1.40625
345,0.10571289,-0.989563,0.34417725,-0.0625,3.921875,3.796875
346,0.10180664,-0.95196533,0.340271,-5.140625,-4.96875,2.921875
347,0.14428711,-0.9570923,0.35687256,-4.515625,-1.296875,0.484375
348,0.14257812,-0.9241333,0.38616943,-4.6875,-0.078125,-0.921875
349,0.14453125,-0.97125244,0.33343506,-4.09375,-0.671875,-1.140625
350,0.14916992,-0.96417236,0.3944702,3.09375,0.640625,1.140625
351,0.111083984,-0.91119385,0.35321045,7.5,3.703125,0.578125
352,0.13305664,-0.9356079,0.2946167,-1.640625,-2.328125,-1.421875
353,0.17016602,-0.9841919,0.39349365,-3.96875,-3.0625,0.859375
354,0.12866211,-0.9668579,0.39422607,4.875,0.546875,1.09375
355,0.08203125,-0.9151001,0.36639404,5.53125,2.59375,-0.53125
356,0.103515625,-0.9373169,0.36883545,4.484375,5.40625,0.671875
357,0.13256836,-0.9697876,0.3583374,5.3125,1.671875,1.0625
358,0.13720703,-0.9607544,0.31341553,1.9375,-2.6875,-0.296875
359,0.12963867,-0.94244385,0.30462646,10.546875,-0.5625,2.171875
360,0.11743164,-0.99591064,0.32537842,4.515625,-1.046875,3.71875
361,0.14819336,-0.9595337,0.31488037,6.859375,0.609375,0.6875
362,0.11816406,-0.95562744,0.32000732,5.515625,-0.375,0.796875
363,0.11669922,-0.95880127,0.30828857,4.671875,-0.296875,2.09375
364,0.12768555,-0.98150635,0.2946167,7.75,-0.015625,1.4375
365,0.1340332,-0.97784424,0.2765503,6.328125,1.671875,0.09375
366,0.123291016,-0.9763794,0.28289795,6.328125,0.546875,0.3125
367,0.11987305,-0.9636841,0.28411865,4.71875,0.0625,0.4375
368,0.12524414,-0.9627075,0.24847412,4.1875,0.921875,0.453125
369,0.118896484,-0.97052,0.26800537,2.78125,2.5,-0.03125
370,0.11206055,-0.9529419,0.25701904,-1.703125,4.78125,-0.421875
371,0.13574219,-0.94000244,0.18060303,-5.53125,1.828125,-0.609375
372,0.1574707,-1.0525513,0.1359253,-11.015625,-5.5625,1.65625
373,0.14331055,-1.0791626,0.6559448,-9.390625,6.578125,2.671875
374,0.10644531,-0.81256104,0.15423584,2.78125,-7.828125,-3.140625
375,0.11206055,-0.9319458,0.27386475,-14.9375,4.3125,0.140625
376,0.16430664,-0.89727783,0.3895874,-8.828125,9.625,1.484375
377,0.17163086,-1.0112915,0.2831421,-7.3125,-1.203125,-0.75
378,0.10644531,-0.9524536,0.36541748,-7.90625,5.3125,-6.609375
379,0.06738281,-0.9299927,0.36834717,-7.84375,0.484375,-2.9375
380,0.13256836,-0.9434204,0.3649292,3.078125,0.9375,-0.71875
381,0.13769531,-0.95391846,0.33685303,3.0625,7.328125,-1.359375
382,0.13256836,-0.96832275,0.31756592,1.59375,6.203125,-1.484375
383,0.06274414,-0.9824829,0.31781006,-8.71875,-0.90625,0.625
384,0.1274414,-0.9468384,0.3949585,-4.0625,1.265625,-1.515625
385,0.13061523,-0.9295044,0.36663818,2.171875,4.34375,-1.453125
386,0.11303711,-0.90509033,0.3595581,4.125,3.71875,0.046875
387,0.099365234,-0.9841919,0.32318115,-2.71875,3.296875,0.21875
388,0.10546875,-0.99298096,0.34539795,-10.484375,-4.40625,-0.78125
389,0.15454102,-0.94244385,0.4274292,3.125,2.015625,-1.578125
390,0.13574219,-0.9085083,0.34954834,5.546875,2.796875,0.65625
391,0.1027832,-0.96417236,0.29534912,-0.109375,1.640625,1.375
392,0.118652344,-0.98150635,0.35784912,-2.359375,-0.015625,0.46875
393,0.1003418,-0.97540283,0.39105225,-5.015625,-2.546875,-0.375
394,0.13549805,-0.9273071,0.38861084,4.421875,-1.640625,0.484375
395,0.12133789,-0.92437744,0.33563232,4.25,1.25,1.0
396,0.111083984,-0.9595337,0.34588623,3.546875,2.359375,1.84375
397,0.10571289,-0.9685669,0.35003662,0.65625,-0.53125,1.09375
398,0.10205078,-0.9885864,0.355896,-0.28125,-1.5,0.03125
399,0.10522461,-0.9837036,0.35980225,3.734375,-6.015625,3.5
400,0.119384766,-0.93463135,0.35076904,5.609375,-5.390625,2.328125
401,0.08911133,-0.9470825,0.31536865,-0.109375,-4.65625,2.640625
402,0.10473633,-0.98150635,0.38153076,-1.25,-4.96875,5.1875
403,0.1508789,-0.90704346,0.32391357,6.375,-1.0625,1.5625
404,0.111328125,-0.9692993,0.32562256,1.0,0.296875,0.28125
405,0.09350586,-0.97857666,0.33343506,-0.875,-5.859375,0.796875
406,0.05859375,-0.9824829,0.3710327,-1.0,-3.265625,1.90625
407,0.111816406,-0.91900635,0.3768921,5.96875,0.9375,0.671875
408,0.09741211,-0.9290161,0.32318115,3.03125,3.875,2.640625
409,0.122558594,-0.97491455,0.35101318,-0.765625,4.21875,2.4375
410,0.119628906,-0.9595337,0.31170654,-3.234375,0.21875,0.0
411,0.12133789,-0.96051025,0.32513428,-3.15625,2.265625,0.125
412,0.08666992,-0.99884033,0.36663818,-1.78125,0.921875,0.78125
413,0.09692383,-0.9807739,0.3637085,3.546875,-0.53125,-0.265625
414,0.103027344,-0.9224243,0.3192749,2.421875,-1.609375,0.671875
415,0.10498047,-0.92681885,0.33319092,-0.484375,-0.203125,2.5625
416,0.088134766,-0.9780884,0.33880615,-3.0,2.609375,0.9375
417,0.11303711,-0.97247314,0.36712646,-1.90625,-0.234375,-0.953125
418,0.13012695,-0.9475708,0.35125732,-0.4375,-1.78125,-1.625
419,0.1262207,-0.9248657,0.35003662,0.984375,-2.546875,-3.21875
420,0.08911133,-0.9644165,0.3678589,3.796875,0.6875,-2.625
421,0.095458984,-1.0217896,0.3571167,1.46875,-0.859375,2.6875
422,0.14868164,-0.9495239,0.33026123,9.0,2.015625,2.734375
423,0.09887695,-0.9229126,0.32025146,3.796875,-1.625,1.234375
424,0.07421875,-0.9717407,0.32196045,0.953125,-3.46875,2.125
425,0.09326172,-0.9783325,0.33880615,5.734375,-4.625,3.796875
426,0.1352539,-0.9714966,0.32025146,2.484375,-3.65625,1.6875
427,0.12207031,-0.9697876,0.30438232,3.421875,-1.09375,-0.234375
428,0.099365234,-0.9690552,0.307312,4.6875,-1.484375,-0.203125
429,0.09448242,-0.9751587,0.30877686,6.0,-2.375,0.828125
430,0.107666016,-0.9710083,0.28607178,6.890625,-2.46875,1.765625
431,0.118896484,-0.9614868,0.28167725,3.765625,-2.453125,1.1875
432,0.11401367,-0.9561157,0.2694702,5.359375,-3.234375,0.90625
433,0.10839844,-0.9807739,0.27215576,4.265625,-3.28125,1.390625
434,0.10668945,-0.95513916,0.27630615,0.890625,-3.765625,0.9375
435,0.10839844,-0.93170166,0.25726318,-3.921875,-4.8125,0.46875
436,0.08959961,-0.9915161,0.29022217,-3.578125,-1.421875,0.90625
437,0.10449219,-1.005188,0.17816162,-0.078125,-3.90625,3.765625
438,0.068359375,-1.022522,0.42303467,-7.25,-2.859375,3.84375
439,0.13549805,-0.8699341,0.29534912,-8.65625,-3.484375,-2.65625
440,0.14208984,-0.98101807,0.3078003,-7.609375,1.90625,-0.296875
441,0.09692383,-1.038147,0.37445068,-7.84375,1.296875,0.703125
442,0.10620117,-0.94610596,0.33319092,-2.25,1.78125,-2.640625
443,0.083740234,-0.94415283,0.3336792,-6.15625,0.921875,-1.765625
444,0.11450195,-0.9741821,0.36761475,-1.90625,-0.578125,0.234375
445,0.11206055,-0.9492798,0.33026123,2.625,1.578125,0.53125
446,0.09814453,-0.95562744,0.31610107,-4.75,-1.0625,0.0625
447,0.0925293,-0.94781494,0.3756714,-3.171875,0.96875,1.71875
448,0.0793457,-0.97369385,0.35980225,-0.359375,-1.0,3.109375
449,0.09326172,-0.97540283,0.37078857,3.6875,1.75,4.203125
450,0.0847168,-0.92852783,0.3571167,7.0,1.6875,4.109375
451,0.10571289,-0.94122314,0.3480835,-3.109375,2.96875,-1.25
452,0.10986328,-0.96051025,0.37200928,3.34375,1.046875,-3.234375
453,0.08935547,-0.97491455,0.28216553,6.484375,1.8125,0.40625
454,0.072753906,-1.0383911,0.36346436,5.453125,-3.75,1.59375
455,0.10546875,-0.9421997,0.33099365,8.9375,-0.5,0.828125
456,0.12866211,-0.9168091,0.2970581,5.53125,1.484375,0.5625
457,0.119384766,-0.95562744,0.29632568,2.40625,1.78125,1.609375
458,0.08276367,-0.9961548,0.29974365,1.71875,-1.09375,1.4375
459,0.09057617,-0.98760986,0.30877686,2.53125,-1.90625,1.515625
460,0.111572266,-0.96710205,0.3060913,3.484375,-0.34375,1.34375
461,0.09399414,-0.9656372,0.29119873,1.609375,-0.15625,0.59375
462,0.091552734,-0.9741821,0.29388428,1.5,-1.625,0.453125
463,0.10253906,-0.9819946,0.2921753,0.515625,-1.515625,0.828125
464,0.1105957,-0.975647,0.29315186,1.96875,-0.75,0.5625
465,0.10058594,-0.972229,0.28485107,3.0,-1.203125,0.859375
466,0.099121094,-0.9883423,0.27874756,1.859375,-3.34375,1.234375
467,0.1003418,-0.96221924,0.26800537,-2.234375,-6.59375,0.734375
468,0.09741211,-0.9456177,0.29364014,-0.84375,-7.890625,0.28125
469,0.09326172,-0.93634033,0.31463623,-4.046875,-4.875,0.546875
470,0.1027832,-0.94317627,0.27557373,-5.359375,0.359375,1.65625
471,0.08496094,-0.9981079,0.29974365,-4.953125,5.09375,5.6875
472,0.07495117,-1.0335083,0.32513428,-1.328125,1.71875,7.546875
473,0.091552734,-1.0159302,0.30560303,-4.71875,-2.71875,4.734375
474,0.1977539,-0.9089966,0.39154053,-0.90625,3.46875,-0.390625
475,0.1303711,-0.9011841,0.28167725,-12.234375,0.609375,-2.390625
476,0.10644531,-1.0308228,0.3991089,-10.515625,2.234375,0.296875
477,0.10644531,-0.9290161,0.3768921,-2.6875,1.1875,-2.796875
478,0.052001953,-0.9006958,0.30267334,-4.84375,-0.296875,-2.796875
479,0.09082031,-0.9558716,0.39935303,-10.484375,5.078125,0.125
480,0.08984375,-1.0093384,0.4196167,0.25,0.0625,6.234375
481,0.13745117,-0.91656494,0.385437,13.8125,0.46875,4.34375
482,0.13110352,-0.8670044,0.3151245,8.765625,4.875,2.4375
483,0.16333008,-0.96759033,0.32147217,-1.90625,1.0,1.5
484,0.11303711,-1.0105591,0.4064331,1.828125,3.03125,1.578125
485,0.08935547,-0.93829346,0.31829834,2.671875,-3.859375,-1.71875
486,0.13208008,-0.9307251,0.3209839,-2.640625,-0.703125,-2.46875
487,0.13427734,-0.9795532,0.34295654,-3.84375,-0.5625,-0.21875
488,0.1418457,-0.96099854,0.36932373,1.546875,1.296875,0.21875
489,0.12231445,-0.9229126,0.3456421,-0.28125,2.46875,-0.765625
490,0.1015625,-0.9326782,0.3793335,-4.015625,2.671875,-1.765625
491,0.107177734,-0.9639282,0.35760498,1.15625,0.28125,-2.125
492,0.09399414,-0.9434204,0.34710693,1.640625,-0.609375,-2.09375
493,0.075927734,-0.9619751,0.36883545,3.359375,1.46875,1.359375
494,0.08178711,-1.0029907,0.354187,4.171875,-1.71875,3.3125
495,0.14111328,-0.99884033,0.33953857,8.828125,0.875,0.984375
496,0.1459961,-0.9573364,0.32757568,9.015625,2.28125,-0.96875
497,0.11694336,-0.9373169,0.29974365,9.3125,-0.515625,0.21875
498,0.08886719,-0.9729614,0.30316162,6.5625,-2.515625,0.703125
499,0.10205078,-0.9890747,0.30169678,5.734375,-3.484375,0.390625
500,0.10180664,-0.9805298,0.28216553,6.984375,-1.453125,0.4375
501,0.10205078,-0.960022,0.2670288,5.65625,-3.484375,1.0
502,0.115722656,-0.9585571,0.24871826,1.296875,-4.71875,0.484375
503,0.09643555,-0.96417236,0.26068115,-1.984375,-3.03125,0.625
504,0.07373047,-0.95928955,0.30584717,-2.59375,-1.25,0.4375
505,0.08154297,-0.9829712,0.29315186,-0.796875,0.21875,1.796875
506,0.092041016,-1.0205688,0.3007202,1.65625,0.421875,1.734375
507,0.11987305,-0.9612427,0.20233154,-0.953125,-4.59375,0.421875
508,0.10058594,-0.9636841,0.36444092,-7.328125,1.71875,-2.015625
509,0.087646484,-0.9385376,0.27508545,-9.3125,-4.90625,-0.75
510,0.111816406,-0.96417236,0.33465576,-6.171875,1.796875,0.0625
511,0.10620117,-1.0071411,0.3300171,-5.28125,0.953125,-0.421875
512,0.10571289,-0.9614868,0.34051514,-2.125,1.21875,-1.140625
513,0.091552734,-0.94073486,0.3283081,-4.4375,1.453125,-1.21875
514,0.08618164,-0.96173096,0.34320068,-3.296875,-0.59375,0.546875
515,0.0847168,-0.958313,0.34613037,-0.546875,1.1875,0.625
516,0.084472656,-0.95391846,0.33294678,-2.296875,0.671875,1.109375
517,0.09301758,-0.9656372,0.3463745,-1.59375,0.5625,1.078125
518,0.09375,-0.973938,0.35491943,2.34375,-0.15625,1.328125
519,0.075927734,-0.95196533,0.3505249,3.109375,0.84375,2.703125
520,0.100097656,-0.91607666,0.34246826,2.984375,2.609375,0.984375
521,0.10253906,-0.96759033,0.33441162,2.0,4.625,0.765625
522,0.09033203,-0.99591064,0.34710693,3.0625,1.671875,1.859375
523,0.09277344,-0.99005127,0.34051514,3.21875,-0.328125,1.125
524,0.122802734,-0.94732666,0.30560303,1.765625,-1.8125,-0.46875
525,0.122802734,-0.9595337,0.31781006,1.921875,0.234375,-0.1875
526,0.10058594,-0.97369385,0.33050537,5.59375,2.078125,1.4375
527,0.08129883,-0.9807739,0.31365967,8.609375,1.5,3.1875
528,0.08129883,-0.9529419,0.30462646,8.984375,2.09375,3.21875
529,0.0925293,-0.9529419,0.2880249,5.53125,3.078125,1.609375
530,0.07714844,-0.9780884,0.26434326,8.9375,2.828125,0.640625
531,0.06591797,-1.0112915,0.26019287,7.609375,0.28125,1.1875
532,0.06958008,-0.9819946,0.2579956,6.359375,-0.484375,-0.4375
533,0.10961914,-0.9751587,0.23944092,9.09375,3.265625,-1.046875
534,0.08959961,-0.98272705,0.24285889,6.6875,5.328125,-0.46875
535,0.091552734,-0.9834595,0.21209717,7.796875,7.375,0.234375
536,0.1027832,-0.9915161,0.20037842,6.59375,5.34375,0.015625
537,0.1081543,-0.9795532,0.2296753,1.453125,3.625,-1.09375
538,0.12890625,-0.96759033,0.21600342,1.078125,4.421875,-2.265625
539,0.17163086,-0.97491455,0.21990967,1.828125,-0.90625,-2.078125
540,0.14282227,-0.99835205,0.20526123,3.9375,-1.203125,0.40625
541,0.12915039,-0.9661255,0.20184326,6.78125,-0.609375,1.375
542,0.114990234,-0.95196533,0.17376709,9.296875,-0.390625,2.8125
543,0.10864258,-0.9780884,0.15960693,7.59375,-1.84375,5.328125
544,0.095703125,-0.98760986,0.19158936,3.765625,-2.59375,6.6875
545,0.09301758,-0.9614868,0.17816162,-2.734375,-4.953125,3.875
546,0.08325195,-1.0254517,0.19329834,-1.09375,-2.15625,2.65625
547,0.07714844,-1.0401001,0.19866943,-3.65625,3.65625,5.90625
548,0.056152344,-1.0232544,0.15472412,-1.390625,2.9375,5.1875
549,0.055419922,-0.9702759,0.2514038,-9.359375,1.609375,1.359375
550,0.17602539,-0.9439087,0.23675537,-15.4375,1.21875,-3.21875
551,0.22753906,-1.0430298,0.21478271,-17.03125,7.515625,-4.6875
552,0.16137695,-0.97735596,0.27459717,-17.046875,11.640625,-5.65625
553,0.07836914,-0.93634033,0.26605225,-11.9375,7.25,-4.25
554,0.026611328,-0.97076416,0.28607178,-10.640625,4.453125,-6.75
555,0.095947266,-0.9939575,0.25482178,5.640625,-3.53125,-0.328125
556,0.19238281,-0.97442627,0.30584717,7.015625,8.140625,2.390625
557,0.14355469,-0.925354,0.2506714,-1.734375,2.6875,-1.296875
558,0.13012695,-0.97784424,0.2518921,-2.078125,1.796875,0.0625
559,0.056640625,-1.0088501,0.29510498,0.71875,5.328125,0.90625
560,0.072021484,-0.9585571,0.27752686,1.140625,-0.421875,1.734375
561,0.107421875,-0.95513916,0.27020264,1.421875,-1.03125,4.859375
562,0.15234375,-0.9763794,0.25946045,-0.296875,1.25,3.15625
563,0.13452148,-0.98150635,0.26922607,-0.578125,1.0625,1.4375
564,0.13696289,-0.9871216,0.26605225,-3.25,-1.8125,1.140625
565,0.13720703,-0.97540283,0.2814331,-3.125,-3.671875,0.78125
566,0.14624023,-0.9534302,0.2789917,-2.578125,-5.0,-0.4375
567,0.13916016,-0.9644165,0.28485107,-1.8125,-3.71875,1.375
568,0.111083984,-0.9649048,0.29119873,-2.03125,-3.578125,1.859375
569,0.10473633,-0.9734497,0.2958374,-1.125,-4.65625,1.375
570,0.119384766,-0.97320557,0.27752686,-1.0,-5.828125,1.828125
571,0.12158203,-0.9649048,0.27630615,-3.0625,-5.9375,0.890625
572,0.07763672,-0.99468994,0.27557373,-8.515625,-5.65625,-1.625
573,0.05102539,-1.0100708,0.3319702,-13.0,-4.421875,-4.75
574,0.068359375,-0.9795532,0.38494873,-7.265625,-1.71875,-2.5
575,0.13183594,-0.8713989,0.36517334,0.03125,-1.671875,0.375
576,0.11816406,-0.8948364,0.2958374,-0.71875,-5.3125,3.796875
577,0.14355469,-0.9553833,0.3595581,1.859375,-5.390625,5.84375
578,0.13427734,-1.0108032,0.3703003,3.28125,1.578125,7.125
579,0.087890625,-0.9380493,0.34906006,3.78125,-3.75,8.578125
580,0.052734375,-0.96759033,0.33807373,2.890625,-6.640625,0.8125
581,0.08935547,-0.991272,0.34320068,4.1875,-8.46875,6.109375
582,0.1640625,-0.9475708,0.34075928,2.125,-6.3125,7.453125
583,0.119140625,-0.8909302,0.3710327,-6.46875,-0.125,2.796875
584,0.021484375,-0.95635986,0.3439331,-1.234375,-1.46875,-1.9375
585,0.0026855469,-1.0178833,0.3607788,-1.875,4.515625,0.484375
586,0.103515625,-0.9734497,0.36468506,1.5,4.359375,1.15625
587,0.16674805,-0.95391846,0.35687256,5.546875,4.453125,-1.96875
588,0.14013672,-0.9168091,0.34881592,4.40625,7.265625,-6.65625
589,0.1015625,-0.92755127,0.3287964,6.1875,7.90625,-2.453125
590,0.12231445,-1.0083618,0.3234253,4.296875,3.90625,3.203125
591,0.12158203,-0.9751587,0.354187,4.546875,3.203125,1.15625
592,0.11376953,-0.9343872,0.30413818,3.265625,5.59375,-1.15625
593,0.11303711,-0.9746704,0.28729248,-1.703125,4.328125,-0.75
594,0.12573242,-0.99102783,0.31658936,2.0625,5.171875,0.0625
595,0.111572266,-1.0015259,0.2814331,8.609375,3.953125,-0.328125
596,0.11816406,-1.0027466,0.25775146,5.625,1.109375,0.03125
597,0.119628906,-0.9487915,0.29412842,4.03125,2.421875,-0.46875
598,0.118652344,-0.93048096,0.28826904,6.484375,2.578125,-0.328125
599,0.12670898,-0.9812622,0.25360107,4.390625,1.390625,0.125
600,0.115478516,-1.0125122,0.24945068,8.5,1.84375,2.890625
601,0.115234375,-1.0020142,0.26507568,8.28125,1.703125,4.015625
602,0.12890625,-0.9463501,0.24505615,5.9375,4.734375,3.890625
603,0.06738281,-1.0012817,0.19940186,11.328125,7.953125,-0.46875
604,0.12597656,-1.0244751,0.22869873,2.171875,9.109375,4.828125
605,0.14013672,-0.9348755,0.12982178,5.34375,1.140625,7.140625
606,0.21728516,-0.8440552,0.14520264,-6.09375,8.296875,5.109375
607,0.24804688,-0.8792114,0.20892334,-15.390625,17.234375,5.859375
608,0.045654297,-1.2295532,0.2789917,-7.71875,-5.03125,16.5
609,0.17749023,-0.86602783,0.40618896,17.671875,11.28125,3.140625
610,0.16015625,-0.95684814,0.14276123,-10.234375,12.25,-8.1875
611,0.1784668,-1.0205688,0.28094482,-10.921875,6.734375,-2.078125
612,0.34106445,-0.9939575,0.25994873,-3.796875,4.203125,0.28125
613,0.27075195,-0.9673462,0.276062,-4.375,9.765625,1.609375
614,0.13769531,-0.8945923,0.22528076,-0.53125,7.140625,0.5625
615,0.1508789,-1.0100708,0.246521,-18.953125,-0.265625,-2.359375
616,0.15405273,-1.0020142,0.31610107,-5.609375,-0.921875,-1.875
617,0.1977539,-0.94195557,0.27508545,7.578125,2.203125,-1.578125
618,0.21484375,-0.96588135,0.26312256,-11.78125,3.859375,-2.140625
619,0.1574707,-0.9522095,0.30194092,-2.328125,6.765625,-0.375
620,0.15332031,-0.97979736,0.2518921,-5.0625,-0.734375,-1.765625
621,0.15844727,-1.0510864,0.28753662,-6.359375,-4.65625,-2.4375
622,0.22045898,-0.8921509,0.31732178,-7.6875,-0.109375,-6.71875
623,0.22851562,-0.9143677,0.31658936,-7.78125,0.8125,-3.6875
624,0.1977539,-0.90875244,0.3571167,-3.875,-0.5625,-4.0625
625,0.12646484,-1.005188,0.26531982,-0.15625,-11.671875,2.28125
626,0.14624023,-1.0222778,0.34954834,-5.421875,-2.28125,-1.640625
627,0.14575195,-0.9151001,0.35687256,-1.03125,-10.140625,-0.53125
628,0.14135742,-0.94781494,0.3468628,-1.21875,3.5,-1.234375
629,0.18579102,-0.8948364,0.37225342,-2.8125,-0.1875,-1.71875
630,0.12890625,-0.9273071,0.40057373,5.765625,-6.828125,0.4375
631,0.107910156,-0.91290283,0.35076904,18.25,-18.75,4.78125
632,0.08886719,-1.0545044,0.28094482,0.1875,-21.296875,3.40625
633,0.055419922,-0.9829712,0.3649292,-4.1875,-8.96875,-3.5
634,0.06665039,-0.9663696,0.3366089,0.5,-8.296875,1.8125
635,0.13769531,-0.95758057,0.34100342,0.421875,-5.8125,2.1875
636,0.140625,-0.9356079,0.29193115,2.375,-8.609375,3.296875
637,0.118896484,-0.9402466,0.34173584,-1.734375,-4.234375,3.078125
638,0.10595703,-0.96221924,0.3295288,0.671875,-8.0625,3.578125
639,0.118896484,-0.99957275,0.340271,1.984375,-5.71875,4.203125
640,0.107421875,-0.9368286,0.35198975,-1.171875,-3.375,2.53125
641,0.087402344,-0.96343994,0.36273193,1.484375,-8.3125,4.0625
642,0.09082031,-0.94610596,0.3480835,0.921875,-10.015625,2.640625
643,0.10253906,-0.98101807,0.33880615,2.3125,-11.046875,2.890625
644,0.09790039,-0.96466064,0.35198975,0.59375,-1.921875,0.9375
645,0.07519531,-0.9229126,0.3397827,3.09375,-5.296875,2.0625
646,0.11206055,-0.9627075,0.33758545,1.671875,-6.9375,1.390625
647,0.09008789,-0.9807739,0.36224365,3.796875,-2.390625,1.296875
648,0.059814453,-0.9649048,0.31829834,0.28125,-3.9375,2.609375
649,0.099609375,-0.9558716,0.3390503,5.171875,-5.0625,2.8125
650,0.10546875,-0.9570923,0.33636475,2.796875,1.859375,-0.546875
651,0.10522461,-0.9602661,0.3390503,-2.78125,5.703125,-4.0625
652,0.083984375,-0.9846802,0.3768921,-2.03125,9.140625,0.828125
653,0.05493164,-0.9146118,0.31756592,-2.703125,4.421875,3.796875
654,0.12792969,-0.92071533,0.31756592,3.765625,1.4375,2.5
655,0.1459961,-0.9800415,0.32855225,4.578125,-0.546875,-0.5
656,0.122558594,-1.0083618,0.387146,7.640625,0.65625,-0.125
657,0.11230469,-0.94244385,0.32611084,4.8125,-0.875,0.328125
658,0.12011719,-0.9385376,0.3163452,1.0625,0.703125,1.265625
659,0.12451172,-0.96954346,0.32537842,-0.46875,-1.015625,0.1875
660,0.084228516,-0.9824829,0.32611084,3.390625,0.34375,-0.9375
661,0.107666016,-0.9480591,0.31732178,1.90625,4.21875,-2.375
662,0.1159668,-0.9710083,0.31365967,2.421875,3.4375,1.6875
663,0.10839844,-0.9612427,0.3217163,-1.09375,2.453125,1.75
664,0.11206055,-0.96881104,0.30340576,-1.34375,1.21875,1.953125
665,0.1381836,-0.97662354,0.30194092,-2.203125,3.125,2.640625
666,0.14257812,-0.96173096,0.27459717,-0.765625,1.125,0.640625
667,0.14086914,-0.94903564,0.30706787,-0.3125,-0.609375,-1.546875
668,0.12792969,-0.98223877,0.33563232,2.546875,1.34375,0.03125
669,0.1105957,-0.9805298,0.3222046,0.203125,0.3125,1.40625
670,0.104003906,-0.9607544,0.3007202,0.921875,-1.75,1.328125
671,0.12158203,-0.97540283,0.3053589,3.859375,-1.84375,1.09375
672,0.12646484,-0.958313,0.29241943,4.546875,-0.03125,0.953125
673,0.14550781,-0.9541626,0.29241943,2.234375,0.421875,1.25
674,0.12084961,-0.9866333,0.291687,4.078125,2.921875,1.546875
675,0.11694336,-0.96832275,0.28460693,2.0625,-2.4375,1.875
676,0.12182617,-0.95391846,0.29681396,1.90625,-2.9375,1.609375
677,0.118652344,-0.9680786,0.26727295,1.0,-1.5625,1.546875
678,0.12524414,-0.9639282,0.2682495,-0.296875,-1.65625,0.15625
679,0.125,-0.97442627,0.29071045,-0.171875,-1.734375,-0.078125
680,0.119384766,-0.973938,0.2741089,0.4375,-2.515625,0.859375
681,0.10131836,-0.97003174,0.29486084,-0.9375,0.640625,1.1875
682,0.11254883,-0.97052,0.29412842,-0.765625,-1.390625,1.03125
683,0.12719727,-0.96221924,0.293396,-1.671875,-0.1875,1.09375
684,0.12792969,-0.96417236,0.29144287,0.171875,0.0,0.828125
685,0.123535156,-0.96832275,0.28948975,0.1875,-0.84375,0.875
686,0.115478516,-0.9800415,0.2868042,1.046875,-0.859375,1.28125
687,0.1081543,-0.97125244,0.29534912,0.59375,-0.484375,1.109375
688,0.125,-0.96710205,0.29510498,0.265625,-0.65625,0.765625
689,0.12939453,-0.9661255,0.29925537,-0.0625,0.109375,1.21875
690,0.12109375,-0.9746704,0.2946167,0.71875,-0.625,1.34375
691,0.12084961,-0.9697876,0.29486084,0.9375,-0.921875,1.359375
692,0.13110352,-0.98272705,0.28289795,0.09375,-1.890625,1.296875
693,0.15258789,-0.9924927,0.28485107,0.4375,-3.15625,0.0
694,0.1159668,-1.0300903,0.35491943,7.9375,6.046875,0.34375
695,0.10864258,-0.9505005,0.28167725,2.3125,1.09375,1.828125
696,0.09472656,-0.9026489,0.26263428,5.203125,-3.234375,1.359375
697,0.13085938,-0.95928955,0.2658081,1.4375,-0.90625,1.390625
698,0.14453125,-1.0037231,0.25360107,3.515625,2.375,1.296875
699,0.091796875,-0.9924927,0.2699585,6.28125,-1.9375,1.6875
700,0.12426758,-0.9517212,0.27337646,3.671875,-1.3125,1.671875
701,0.12646484,-0.9458618,0.24407959,1.828125,-1.15625,1.40625
702,0.12792969,-0.95562744,0.24017334,-1.3125,0.03125,0.71875
703,0.12963867,-0.97906494,0.24188232,-2.34375,-1.390625,0.3125
704,0.1159668,-0.97979736,0.27386475,-0.421875,-0.390625,1.453125
705,0.12231445,-0.9890747,0.26776123,1.234375,0.40625,2.46875
706,0.11328125,-0.9793091,0.24871826,0.890625,0.421875,2.359375
707,0.11352539,-0.97369385,0.24676514,2.03125,1.0625,2.15625
708,0.107910156,-0.99346924,0.21966553,-2.09375,0.59375,1.6875
709,0.09399414,-0.9829712,0.21209717,0.875,0.953125,2.6875
710,0.11425781,-0.956604,0.2189331,1.546875,0.734375,1.1875
711,0.13745117,-0.9644165,0.21820068,-0.546875,4.09375,-1.609375
712,0.15844727,-0.9614868,0.25238037,4.515625,9.0625,0.640625
713,0.140625,-0.9024048,0.21673584,4.203125,8.71875,1.296875
714,0.13964844,-0.88531494,0.2177124,11.84375,11.59375,0.3125
715,0.12451172,-0.94317627,0.16253662,11.90625,14.25,6.453125
716,0.15307617,-1.0154419,0.13690186,15.34375,9.90625,9.828125
717,0.25439453,-0.9746704,0.13104248,28.25,7.1875,11.578125
718,0.29223633,-0.93096924,0.15618896,29.3125,0.171875,16.28125
719,0.24829102,-0.92022705,0.0914917,30.984375,-0.09375,21.15625
720,0.18823242,-0.9338989,0.04559326,32.96875,-2.203125,22.421875
721,0.20678711,-0.9780884,-0.024963379,32.84375,1.5625,23.78125
722,0.3017578,-0.96221924,-0.039855957,27.25,4.265625,24.078125
723,0.35327148,-0.92144775,-0.024475098,31.359375,2.890625,19.703125
724,0.3449707,-0.9492798,-0.13238525,16.59375,1.28125,14.5
725,0.33569336,-0.9663696,-0.13165283,13.546875,-1.640625,9.84375
726,0.36914062,-0.95977783,-0.13189697,14.9375,-4.671875,8.8125
727,0.37231445,-0.89971924,-0.14117432,13.015625,-2.34375,7.75
728,0.3984375,-0.89190674,-0.1482544,5.953125,-1.578125,5.71875
729,0.42041016,-0.9180298,-0.11260986,6.15625,-0.578125,5.4375
730,0.3984375,-0.9221802,-0.14727783,7.609375,-4.46875,3.921875
731,0.39379883,-0.91363525,-0.19366455,3.96875,-3.625,1.640625
732,0.40576172,-0.87628174,-0.18536377,4.78125,-0.375,-0.71875
733,0.40234375,-0.8640747,-0.16949463,-1.203125,0.0,-2.09375
734,0.38134766,-0.8621216,-0.17559814,-1.34375,2.21875,-0.734375
735,0.36743164,-0.8814087,-0.17706299,2.484375,2.734375,0.75
736,0.36254883,-0.8867798,-0.20123291,1.015625,2.109375,-0.34375
737,0.38305664,-0.87286377,-0.20562744,4.328125,2.9375,-0.40625
738,0.3942871,-0.87286377,-0.20196533,1.109375,4.203125,-1.828125
739,0.3881836,-0.87506104,-0.20562744,-2.484375,4.609375,-1.84375
740,0.3786621,-0.8880005,-0.21368408,-2.8125,5.21875,-2.09375
741,0.37304688,-0.8804321,-0.20880127,0.21875,6.03125,-2.0
742,0.3618164,-0.86602783,-0.20513916,-0.90625,5.234375,-1.734375
743,0.36108398,-0.8838501,-0.20489502,-2.984375,3.53125,-2.234375
744,0.36035156,-0.9163208,-0.18780518,-7.171875,3.6875,-3.0
745,0.35766602,-0.94537354,-0.20489502,-7.859375,2.78125,-5.515625
746,0.35302734,-0.94903564,-0.20318604,-11.609375,5.984375,-8.953125
747,0.28588867,-0.93170166,-0.16143799,-13.34375,10.890625,-12.5
748,0.2578125,-0.8616333,-0.16436768,-10.90625,6.5625,-11.84375
749,0.2783203,-0.90460205,-0.15557861,-8.015625,6.5625,-6.875
750,0.3100586,-0.9302368,-0.15386963,-12.171875,9.0625,-7.59375
751,0.2836914,-0.92755127,-0.12286377,-11.921875,12.09375,-11.265625
752,0.24389648,-0.9126587,-0.09454346,-10.40625,9.1875,-8.015625
753,0.20629883,-0.95635986,-0.124572754,-6.625,8.0,-6.375
754,0.21484375,-0.9258423,-0.11895752,-6.703125,6.640625,-6.0
755,0.22607422,-0.93951416,-0.11383057,-8.1875,5.125,-6.828125
756,0.22436523,-0.94488525,-0.108947754,-7.625,5.796875,-5.59375
757,0.18920898,-0.9541626,-0.09283447,-3.71875,6.546875,-4.15625
758,0.18237305,-0.9661255,-0.09112549,-5.421875,5.234375,-2.828125
759,0.18579102,-0.95391846,-0.089904785,-2.953125,4.125,-2.25
