sample_no,accel_x,accel_y,accel_z,gyro_x,gyro_y,gyro_z
0,0.67163086,0.15789795,0.916687,6.640625,-4.203125,-3.65625
1,0.6376953,0.14422607,0.87323,6.03125,-4.953125,0.359375
2,0.6225586,0.17059326,0.8121948,0.609375,-7.390625,1.796875
3,0.6213379,0.1552124,0.78460693,-2.40625,-8.0,1.71875
4,0.61499023,0.13934326,0.79803467,-3.25,-2.609375,0.5625
5,0.6047363,0.1227417,0.84198,-1.84375,-0.46875,1.765625
6,0.60839844,0.11932373,0.8217163,-0.484375,-3.859375,3.921875
7,0.6203613,0.14227295,0.83758545,-1.171875,-3.65625,3.71875
8,0.62158203,0.124938965,0.90667725,-1.015625,2.984375,2.65625
9,0.6057129,0.09295654,0.8903198,-0.5,1.90625,1.890625
10,0.5878906,0.08782959,0.89105225,1.6875,-1.703125,0.21875
11,0.5827637,0.101257324,0.8641968,2.203125,-0.515625,-0.09375
12,0.57910156,0.12713623,0.83148193,2.765625,1.234375,0.0
13,0.60131836,0.13861084,0.84295654,0.6875,2.984375,-0.21875
14,0.640625,0.12591553,0.8878784,0.921875,6.171875,0.34375
15,0.63549805,0.11126709,0.8864136,-0.703125,1.890625,1.6875
16,0.61206055,0.13104248,0.8356323,1.875,2.390625,1.015625
17,0.60546875,0.1305542,0.82366943,-1.578125,0.828125,0.765625
18,0.6166992,0.12786865,0.82562256,-1.09375,3.5625,0.625
19,0.6411133,0.121276855,0.84539795,0.546875,8.8125,1.203125
20,0.64038086,0.12371826,0.8661499,1.5625,3.25,1.875
21,0.65063477,0.13543701,0.85565186,-0.59375,0.671875,1.5
22,0.6467285,0.13031006,0.82684326,-0.25,-0.484375,1.4375
23,0.6513672,0.13323975,0.80633545,-0.0625,-0.65625,1.234375
24,0.6425781,0.13104248,0.8295288,-0.625,0.078125,1.125
25,0.64404297,0.121032715,0.83026123,0.828125,-0.296875,0.9375
26,0.642334,0.1329956,0.81536865,1.140625,-1.578125,1.53125
27,0.63964844,0.13690186,0.822937,-0.0625,-0.5625,1.234375
28,0.6484375,0.13275146,0.8390503,0.203125,0.484375,1.28125
29,0.6425781,0.12322998,0.8344116,2.15625,-0.09375,1.65625
30,0.63793945,0.13226318,0.82318115,0.703125,-0.765625,1.8125
31,0.6196289,0.13739014,0.81951904,-1.34375,1.0,1.953125
32,0.6376953,0.124694824,0.8551636,0.359375,3.109375,1.8125
33,0.6298828,0.12762451,0.8488159,0.46875,0.484375,2.03125
34,0.62939453,0.13641357,0.8336792,1.546875,-1.9375,2.21875
35,0.64746094,0.12713623,0.82855225,-2.0625,-2.203125,1.328125
36,0.6623535,0.1383667,0.8336792,-0.828125,-2.84375,0.390625
37,0.6682129,0.13665771,0.81951904,-2.796875,-2.234375,-0.421875
38,0.6455078,0.14935303,0.79315186,-3.8125,-7.5,-0.625
39,0.63256836,0.15008545,0.8319702,-3.375,3.078125,-0.78125
40,0.6437988,0.14471436,0.85076904,-2.5,3.5,1.71875
41,0.6328125,0.16082764,0.8222046,-1.359375,1.6875,3.359375
42,0.6208496,0.17767334,0.8395386,0.609375,3.140625,6.046875
43,0.5983887,0.14178467,0.8571167,3.046875,6.171875,9.1875
44,0.58935547,0.12786865,0.86517334,4.046875,1.375,8.640625
45,0.60424805,0.13739014,0.822937,5.171875,-2.90625,7.5
46,0.6369629,0.14691162,0.83148193,0.109375,-2.734375,4.0625
47,0.6508789,0.17303467,0.84710693,3.765625,-2.125,1.6875
48,0.64941406,0.17596436,0.84295654,1.46875,0.890625,-0.6875
49,0.65625,0.16473389,0.81781006,0.375,-1.34375,-0.90625
50,0.64941406,0.15472412,0.8048706,-0.671875,-4.34375,-0.40625
51,0.6311035,0.18011475,0.8109741,-0.796875,-5.703125,-1.0
52,0.6442871,0.18695068,0.81170654,-2.984375,-4.421875,-2.203125
53,0.6464844,0.18353271,0.8348999,-3.4375,-0.015625,-1.53125
54,0.6347656,0.17572021,0.8497925,-0.421875,0.3125,-0.578125
55,0.6291504,0.16009521,0.86102295,1.4375,0.6875,-0.09375
56,0.6140137,0.15081787,0.84539795,1.25,-3.65625,0.46875
57,0.6208496,0.15863037,0.84198,0.984375,-3.65625,-0.40625
58,0.6242676,0.15789795,0.82244873,-0.5,-5.734375,0.0625
59,0.60717773,0.16986084,0.8185425,-2.1875,-1.59375,-0.3125
60,0.60302734,0.14520264,0.8566284,-0.84375,5.359375,0.328125
61,0.59765625,0.15667725,0.85931396,0.859375,4.125,0.671875
62,0.6010742,0.16326904,0.8510132,0.46875,2.390625,0.53125
63,0.6159668,0.16619873,0.85809326,0.015625,2.453125,0.578125
64,0.62719727,0.16229248,0.8432007,-0.390625,1.96875,0.375
65,0.6245117,0.16156006,0.8505249,0.578125,2.9375,-0.078125
66,0.6401367,0.15911865,0.8551636,0.71875,4.390625,0.109375
67,0.6550293,0.14959717,0.8461304,2.015625,3.390625,-0.25
68,0.6374512,0.15423584,0.8336792,3.46875,1.03125,0.140625
69,0.6484375,0.15618896,0.8305054,2.53125,-1.140625,0.5
70,0.64331055,0.15228271,0.8270874,1.953125,-4.1875,-0.09375
71,0.6459961,0.1486206,0.84246826,2.875,-5.34375,-1.125
72,0.63964844,0.13983154,0.8390503,1.96875,-6.265625,-1.0625
73,0.62402344,0.14764404,0.8383179,2.109375,-4.53125,-0.796875
74,0.607666,0.13665771,0.8427124,2.34375,-3.40625,0.578125
75,0.5944824,0.13665771,0.85736084,1.21875,-3.484375,0.34375
76,0.6044922,0.1359253,0.8534546,1.75,-3.6875,-0.25
77,0.59716797,0.1317749,0.83709717,-0.8125,-3.75,0.234375
78,0.595459,0.13494873,0.8397827,-1.34375,-2.75,-0.03125
79,0.59765625,0.12957764,0.8036499,-2.234375,-3.65625,0.265625
80,0.5805664,0.13641357,0.8119507,1.109375,-3.828125,-0.03125
81,0.60839844,0.1317749,0.90618896,2.375,7.0625,0.078125
82,0.6315918,0.11859131,0.9196167,1.359375,4.859375,1.0625
83,0.6152344,0.1329956,0.86639404,1.40625,-1.640625,1.1875
84,0.611084,0.14691162,0.8612671,0.53125,-1.765625,0.4375
85,0.607666,0.1359253,0.84906006,-1.296875,0.3125,0.703125
86,0.6047363,0.12835693,0.8390503,-1.15625,0.25,0.921875
87,0.6074219,0.12982178,0.8632202,0.625,1.515625,0.671875
88,0.625,0.12005615,0.8810425,0.703125,0.125,0.671875
89,0.61816406,0.137146,0.8497925,1.046875,-1.65625,1.140625
90,0.60595703,0.13421631,0.84002686,-0.875,-1.359375,1.078125
91,0.6098633,0.13006592,0.8539429,-2.078125,0.859375,0.71875
92,0.6118164,0.13031006,0.86053467,1.28125,0.875,0.5625
93,0.6140137,0.13323975,0.8590698,1.171875,0.03125,0.453125
94,0.6052246,0.13031006,0.85198975,-1.0,-0.203125,0.296875
95,0.6154785,0.13690186,0.87420654,0.96875,2.171875,-0.09375
96,0.60961914,0.13153076,0.85028076,0.0,-1.21875,0.15625
97,0.60961914,0.14227295,0.8571167,0.0625,0.90625,0.46875
98,0.61328125,0.121276855,0.8439331,-2.421875,-1.734375,0.75
99,0.6105957,0.13909912,0.8422241,1.109375,0.671875,0.171875
100,0.6245117,0.12835693,0.869812,1.9375,3.859375,0.578125
101,0.61694336,0.13104248,0.84832764,0.015625,1.984375,1.109375
102,0.6142578,0.14007568,0.8546753,-0.265625,1.875,1.03125
103,0.6201172,0.13665771,0.86102295,0.65625,-0.46875,0.625
104,0.62280273,0.13323975,0.8602905,0.703125,-1.09375,0.3125
105,0.6171875,0.12786865,0.84954834,-0.546875,-0.75,0.53125
106,0.61328125,0.13934326,0.8485718,0.078125,0.125,0.875
107,0.6113281,0.13690186,0.84198,-0.03125,0.765625,0.921875
108,0.6135254,0.12762451,0.85443115,0.75,0.671875,0.9375
109,0.6147461,0.12860107,0.8583374,1.5625,0.890625,1.890625
110,0.6201172,0.13250732,0.8378296,0.8125,-1.921875,1.359375
111,0.62524414,0.13787842,0.8475952,-0.515625,-2.578125,0.890625
112,0.6286621,0.12786865,0.87493896,1.78125,-1.0,1.40625
113,0.61938477,0.13348389,0.8534546,1.15625,-1.234375,1.375
114,0.63256836,0.1461792,0.8192749,4.875,-6.125,1.765625
115,0.63793945,0.14349365,0.857605,2.984375,-1.5625,5.546875
116,0.626709,0.15130615,0.9088745,6.328125,2.390625,4.046875
117,0.58154297,0.10247803,0.8834839,1.703125,2.859375,3.75
118,0.5625,0.12176514,0.8439331,3.03125,2.5625,2.25
119,0.59033203,0.12567139,0.8139038,-2.796875,-3.9375,2.125
120,0.59106445,0.12664795,0.854187,-3.390625,6.484375,0.65625
121,0.6237793,0.12738037,0.88031006,-1.59375,9.875,0.59375
122,0.6484375,0.14471436,0.8500366,-0.125,-2.203125,-1.59375
123,0.62597656,0.152771,0.8265991,-2.125,-8.203125,-1.609375
124,0.6125488,0.1408081,0.8566284,-4.109375,-3.875,-1.703125
125,0.60791016,0.12200928,0.85443115,-3.515625,-1.390625,-1.75
126,0.5932617,0.12762451,0.8319702,-3.296875,-0.984375,-0.625
127,0.6142578,0.13568115,0.852478,0.03125,0.984375,-0.390625
128,0.63012695,0.13616943,0.855896,0.4375,0.390625,-0.40625
129,0.6242676,0.1449585,0.84661865,-1.0625,-0.4375,-0.046875
130,0.6191406,0.13006592,0.8427124,0.375,1.140625,0.875
131,0.6171875,0.13494873,0.83709717,1.4375,1.296875,1.265625
132,0.6291504,0.14959717,0.8383179,1.921875,1.25,1.046875
133,0.62890625,0.15570068,0.84783936,1.65625,0.25,1.125
134,0.6213379,0.15789795,0.84490967,0.25,-0.3125,1.109375
135,0.6184082,0.14691162,0.8529663,-0.703125,-0.859375,0.984375
136,0.6123047,0.13885498,0.86761475,0.609375,-0.828125,0.71875
137,0.61987305,0.14593506,0.8432007,0.859375,-3.0,0.75
138,0.6098633,0.14447021,0.826355,-1.796875,-2.0625,0.484375
139,0.6166992,0.13568115,0.84246826,-3.234375,1.1875,0.296875
140,0.62060547,0.13250732,0.85150146,-2.21875,2.15625,0.25
141,0.65625,0.1383667,0.9047241,3.21875,9.890625,-0.171875
142,0.6672363,0.11956787,0.914978,7.21875,5.515625,-0.015625
143,0.61450195,0.1317749,0.8336792,6.515625,-6.609375,-0.046875
144,0.59399414,0.14324951,0.79193115,1.75,-8.21875,-0.453125
145,0.6052246,0.1461792,0.81121826,-3.03125,-4.75,-0.5625
146,0.6062012,0.13275146,0.836853,-0.203125,-1.890625,0.390625
147,0.6074219,0.13470459,0.8239136,0.390625,-4.578125,1.578125
148,0.6020508,0.13909912,0.85076904,-0.5625,-2.984375,1.640625
149,0.6113281,0.12249756,0.88616943,-1.78125,0.046875,1.09375
150,0.62060547,0.11566162,0.888855,-0.046875,0.265625,1.03125
151,0.6105957,0.12591553,0.8500366,0.234375,0.21875,1.109375
152,0.609375,0.13519287,0.8505249,-0.046875,1.484375,0.859375
153,0.6118164,0.12884521,0.85931396,0.796875,1.59375,0.90625
154,0.6035156,0.13006592,0.868103,1.90625,0.65625,1.15625
155,0.6062012,0.13543701,0.84832764,0.140625,-1.53125,1.328125
156,0.61621094,0.13665771,0.87005615,0.09375,0.484375,0.78125
157,0.61376953,0.14129639,0.84661865,-0.59375,-0.578125,0.28125
158,0.6184082,0.14300537,0.8595581,0.5,0.9375,0.65625
159,0.6208496,0.117370605,0.84832764,-2.140625,-1.5625,0.765625
160,0.6118164,0.13128662,0.84417725,0.640625,0.875,0.421875
161,0.6052246,0.1329956,0.8397827,-0.5625,3.578125,1.140625
162,0.61816406,0.13641357,0.8707886,-1.46875,1.8125,0.75
163,0.63720703,0.13885498,0.8707886,0.390625,0.5625,-0.015625
164,0.62353516,0.14886475,0.86273193,1.328125,-0.28125,0.25
165,0.62158203,0.1395874,0.838562,-0.171875,-0.109375,0.890625
166,0.60009766,0.13494873,0.8305054,-1.421875,-0.796875,1.328125
167,0.6135254,0.13983154,0.852478,0.484375,-0.71875,1.109375
168,0.6225586,0.13470459,0.8649292,0.5625,-0.171875,1.4375
169,0.6171875,0.13519287,0.8641968,0.4375,0.203125,1.796875
170,0.6130371,0.14202881,0.8566284,0.296875,0.046875,1.328125
171,0.6230469,0.14129639,0.83392334,1.125,0.4375,0.734375
172,0.6245117,0.13983154,0.8390503,0.140625,0.28125,1.078125
173,0.62646484,0.137146,0.84368896,0.90625,0.78125,1.015625
174,0.6086426,0.14447021,0.8505249,0.609375,-0.21875,1.03125
175,0.60839844,0.1395874,0.840271,0.1875,-0.21875,1.4375
176,0.5969238,0.1449585,0.85565186,0.75,2.453125,2.875
177,0.5842285,0.14520264,0.89715576,2.21875,10.046875,4.40625
178,0.611084,0.12640381,0.86468506,2.09375,4.828125,6.046875
179,0.6672363,0.16595459,0.82244873,1.625,-2.40625,3.46875
180,0.6484375,0.17059326,0.8275757,-0.03125,-2.90625,0.09375
181,0.6567383,0.1461792,0.83880615,-2.859375,-5.3125,-0.921875
182,0.6777344,0.12982178,0.8756714,-4.0,4.609375,-0.234375
183,0.66259766,0.13909912,0.81829834,3.953125,0.0625,-1.71875
184,0.6357422,0.17596436,0.7821655,0.046875,-5.515625,-3.84375
185,0.64331055,0.18035889,0.8131714,-1.734375,-7.015625,-4.75
186,0.6628418,0.13739014,0.83807373,-4.296875,-3.046875,-3.28125
187,0.6477051,0.14300537,0.854187,1.90625,0.65625,-1.28125
188,0.6179199,0.124694824,0.8422241,1.375,0.96875,-0.375
189,0.5983887,0.14154053,0.85272217,2.71875,-0.3125,0.203125
190,0.6040039,0.13616943,0.8475952,2.359375,-1.734375,0.109375
191,0.6015625,0.13104248,0.85272217,1.046875,-3.359375,0.03125
192,0.6123047,0.13739014,0.871521,1.171875,-2.25,0.515625
193,0.60498047,0.14691162,0.8607788,1.890625,-2.109375,1.203125
194,0.58691406,0.14178467,0.8505249,-1.0,-0.375,0.484375
195,0.59814453,0.13421631,0.8602905,-1.46875,1.3125,0.328125
196,0.5932617,0.113708496,0.8602905,0.515625,2.796875,1.671875
197,0.59887695,0.1161499,0.87542725,1.96875,3.890625,1.546875
198,0.64453125,0.11468506,0.8834839,2.1875,6.15625,0.96875
199,0.6452637,0.121032715,0.87713623,6.0625,4.296875,0.0
200,0.6154785,0.117614746,0.8414917,6.453125,0.390625,0.046875
201,0.60302734,0.105407715,0.8102417,2.859375,-7.5625,0.546875
202,0.6142578,0.11859131,0.7982788,1.84375,-3.4375,-0.34375
203,0.6660156,0.117126465,0.82611084,-0.171875,-1.734375,-0.296875
204,0.6418457,0.13275146,0.824646,-2.640625,-3.34375,1.09375
205,0.6166992,0.13519287,0.83758545,-2.09375,-1.71875,0.90625
206,0.61621094,0.121032715,0.8915405,-0.921875,-0.078125,1.3125
207,0.61621094,0.10272217,0.8859253,1.09375,-0.84375,2.15625
208,0.6135254,0.1227417,0.8451538,0.09375,-1.015625,2.171875
209,0.61450195,0.1317749,0.8287964,-0.546875,0.5625,1.4375
210,0.60913086,0.11590576,0.84906006,-0.453125,3.953125,1.9375
211,0.6191406,0.109069824,0.86932373,1.90625,4.671875,2.015625
212,0.6274414,0.1071167,0.87615967,2.78125,2.578125,1.34375
213,0.6254883,0.12176514,0.8510132,2.328125,-0.5625,0.703125
214,0.62475586,0.12591553,0.83465576,-0.953125,-1.328125,0.328125
215,0.6281738,0.12420654,0.8422241,0.078125,-0.421875,0.125
216,0.6225586,0.11810303,0.83636475,0.15625,0.09375,0.8125
217,0.61865234,0.13226318,0.84173584,-0.359375,0.875,0.984375
218,0.64160156,0.11834717,0.8331909,-1.109375,-0.328125,0.375
219,0.63134766,0.11834717,0.8517456,0.65625,1.765625,0.6875
220,0.63500977,0.121032715,0.84417725,1.453125,2.578125,1.1875
221,0.61694336,0.10809326,0.8239136,-1.265625,-1.734375,1.734375
222,0.6352539,0.12420654,0.8422241,0.484375,3.28125,0.75
223,0.6447754,0.11224365,0.8473511,1.359375,2.359375,1.046875
224,0.6401367,0.13763428,0.8344116,1.046875,-1.625,0.734375
225,0.63720703,0.13470459,0.84198,0.140625,-1.296875,0.609375
226,0.6333008,0.121276855,0.8480835,0.078125,-0.25,0.90625
227,0.62158203,0.11151123,0.84295654,0.578125,-0.078125,1.28125
228,0.6281738,0.11883545,0.8373413,-0.015625,-2.375,1.109375
229,0.63305664,0.11981201,0.8439331,0.125,-0.734375,0.984375
230,0.6442871,0.11126709,0.8517456,-0.078125,0.40625,0.734375
231,0.6320801,0.11248779,0.8510132,0.25,-1.640625,0.78125
232,0.63305664,0.13519287,0.8656616,-0.109375,-2.203125,1.015625
233,0.63671875,0.12860107,0.86590576,4.703125,-5.5625,0.71875
234,0.64575195,0.12884521,0.8114624,-0.09375,-4.46875,0.109375
235,0.5822754,0.121276855,0.8016968,-2.546875,0.1875,1.609375
236,0.58081055,0.11834717,0.83392334,0.203125,2.484375,2.25
237,0.62524414,0.12054443,0.854187,-0.296875,3.734375,2.171875
238,0.6340332,0.11248779,0.8624878,-1.34375,-0.109375,1.796875
239,0.6464844,0.12322998,0.8619995,-0.109375,-0.65625,0.84375
240,0.6401367,0.12738037,0.83270264,-0.96875,-1.78125,0.765625
241,0.61865234,0.13421631,0.8253784,0.703125,0.859375,0.078125
242,0.62597656,0.11785889,0.826355,-1.328125,0.75,0.484375
243,0.6237793,0.13665771,0.836853,0.8125,0.28125,0.359375
244,0.64086914,0.12615967,0.85687256,1.59375,5.59375,0.1875
245,0.640625,0.13006592,0.8500366,1.796875,1.640625,0.796875
246,0.63427734,0.1395874,0.8427124,0.53125,-0.671875,0.671875
247,0.64038086,0.12884521,0.840271,-0.375,-1.53125,0.453125
248,0.63183594,0.1161499,0.86590576,-0.765625,-4.59375,0.140625
249,0.63183594,0.12591553,0.8649292,-0.5625,-6.125,-0.0625
250,0.6196289,0.12982178,0.82489014,-0.09375,-1.921875,1.390625
251,0.5871582,0.13104248,0.8185425,-1.0,2.484375,1.4375
252,0.6086426,0.12615967,0.8485718,1.34375,1.375,0.328125
253,0.62597656,0.12030029,0.8517456,1.1875,-1.515625,0.34375
254,0.6340332,0.12249756,0.8512573,0.78125,-0.765625,0.34375
255,0.6274414,0.13763428,0.8529663,0.234375,0.40625,0.6875
256,0.62890625,0.13153076,0.85565186,0.40625,0.078125,0.9375
257,0.6201172,0.124694824,0.85491943,-0.1875,-2.546875,0.59375
258,0.6188965,0.1317749,0.86151123,0.578125,-5.53125,0.96875
259,0.6086426,0.13031006,0.84539795,-0.828125,-5.921875,1.671875
260,0.5983887,0.13250732,0.83392334,-1.484375,0.328125,1.09375
261,0.6142578,0.121276855,0.86346436,1.265625,3.03125,1.09375
262,0.61694336,0.12200928,0.86468506,1.265625,0.46875,0.90625
263,0.6105957,0.12591553,0.86834717,1.0625,0.953125,0.46875
264,0.6105957,0.12957764,0.8319702,-1.40625,-2.8125,0.4375
265,0.60961914,0.12835693,0.840271,1.53125,2.9375,0.375
266,0.61694336,0.11785889,0.8756714,3.515625,6.78125,0.71875
267,0.6296387,0.11956787,0.8632202,3.59375,2.234375,0.90625
268,0.6335449,0.12615967,0.8656616,3.625,3.0625,0.296875
269,0.6286621,0.11541748,0.8583374,2.46875,2.640625,0.8125
270,0.62939453,0.117126465,0.8422241,1.9375,-0.828125,0.078125
271,0.6320801,0.1083374,0.86053467,1.125,-1.03125,-0.5
272,0.6333008,0.09954834,0.8583374,2.15625,-2.78125,-0.234375
273,0.6274414,0.101257324,0.85614014,2.890625,-3.34375,-0.3125
274,0.6242676,0.09954834,0.84490967,1.96875,-4.390625,-0.6875
275,0.623291,0.10491943,0.8480835,2.109375,-3.609375,-0.53125
276,0.6142578,0.10369873,0.85198975,1.328125,-3.78125,-0.484375
277,0.611084,0.10028076,0.8522339,0.765625,-2.71875,0.0625
278,0.59936523,0.10101318,0.8331909,-0.046875,-2.78125,0.234375
279,0.5996094,0.11102295,0.81585693,-0.453125,-3.265625,0.453125
280,0.5900879,0.0993042,0.84198,1.21875,-2.5,0.84375
281,0.6125488,0.08465576,0.89959717,-0.125,1.921875,0.984375
282,0.61816406,0.07952881,0.9110718,1.96875,2.265625,2.015625
283,0.6052246,0.09051514,0.86761475,1.65625,-4.03125,1.421875
284,0.59936523,0.11102295,0.8373413,-1.390625,-0.78125,0.359375
285,0.60546875,0.10809326,0.8595581,-1.328125,2.859375,0.859375
286,0.60498047,0.09222412,0.8678589,-0.21875,1.515625,1.15625
287,0.61206055,0.09222412,0.8810425,2.734375,4.34375,0.953125
288,0.61621094,0.09637451,0.87615967,1.921875,1.328125,1.25
289,0.6191406,0.1083374,0.85272217,-0.53125,-1.453125,0.484375
290,0.60839844,0.10247803,0.8600464,-1.578125,-0.03125,0.625
291,0.6130371,0.09173584,0.85858154,-0.140625,1.515625,1.03125
292,0.62060547,0.0927124,0.85980225,0.734375,-0.515625,0.71875
293,0.60375977,0.09539795,0.8661499,0.21875,-0.65625,0.53125
294,0.6118164,0.10321045,0.8578491,0.15625,0.203125,1.296875
295,0.60961914,0.097839355,0.85858154,0.171875,-0.46875,0.78125
296,0.61621094,0.09490967,0.87005615,0.609375,0.125,0.828125
297,0.61328125,0.09979248,0.86712646,1.328125,0.015625,1.171875
298,0.61157227,0.09686279,0.8510132,-0.015625,0.53125,1.125
299,0.6074219,0.09881592,0.8595581,-0.484375,0.375,1.046875
300,0.6118164,0.10638428,0.86468506,0.609375,-0.1875,0.796875
301,0.61376953,0.1005249,0.8612671,0.46875,-0.640625,0.734375
302,0.62280273,0.09686279,0.85028076,-0.234375,-1.0625,0.90625
303,0.6118164,0.097595215,0.87420654,0.28125,0.234375,0.734375
304,0.6142578,0.10101318,0.85858154,0.265625,-0.671875,0.921875
305,0.61279297,0.10662842,0.854187,0.265625,-0.046875,0.84375
306,0.6154785,0.093688965,0.8612671,-0.796875,1.625,0.96875
307,0.62060547,0.09954834,0.85443115,-1.734375,-0.90625,0.96875
308,0.6159668,0.09832764,0.86224365,2.140625,3.171875,0.765625
309,0.6203613,0.09564209,0.8624878,1.484375,1.734375,1.546875
310,0.6196289,0.11932373,0.8480835,0.765625,-0.375,0.875
311,0.6203613,0.10614014,0.84539795,-1.109375,0.578125,0.859375
312,0.61694336,0.101257324,0.855896,-0.28125,1.21875,1.15625
313,0.61694336,0.10467529,0.854187,0.15625,2.046875,1.515625
314,0.62109375,0.09906006,0.8463745,-0.390625,1.046875,1.40625
315,0.62109375,0.10614014,0.84906006,-0.6875,1.25,1.546875
316,0.6315918,0.10467529,0.85369873,0.046875,1.828125,1.484375
317,0.6298828,0.1083374,0.84417725,1.09375,0.421875,1.328125
318,0.6357422,0.11004639,0.8497925,1.4375,-0.296875,1.46875
319,0.6418457,0.11932373,0.84539795,0.390625,-2.9375,0.15625
320,0.64208984,0.1149292,0.8300171,0.171875,-2.34375,0.0625
321,0.62231445,0.10394287,0.8324585,-1.0,-0.28125,0.609375
322,0.6298828,0.09124756,0.8612671,0.0,1.34375,0.796875
323,0.6455078,0.09954834,0.8578491,1.28125,-0.65625,0.296875
324,0.64819336,0.11663818,0.8446655,1.015625,-5.796875,-1.359375
325,0.6269531,0.121032715,0.8468628,0.015625,-7.265625,-2.53125
326,0.61279297,0.121520996,0.85858154,1.4375,-3.359375,-0.9375
327,0.5842285,0.10369873,0.83758545,-3.03125,1.390625,1.90625
328,0.5847168,0.10882568,0.86761475,-0.203125,7.3125,3.296875
329,0.5930176,0.11004639,0.852478,-0.5,1.765625,3.296875
330,0.58447266,0.10736084,0.8654175,0.125,0.28125,1.859375
331,0.61816406,0.08123779,0.87957764,0.1875,2.28125,2.25
332,0.6274414,0.08929443,0.8810425,2.578125,-0.984375,2.578125
333,0.6320801,0.10272217,0.8991089,3.03125,3.0,3.578125
334,0.6345215,0.08758545,0.85980225,1.265625,2.265625,5.203125
335,0.6467285,0.121276855,0.822937,-0.90625,-2.703125,1.375
336,0.6411133,0.16156006,0.81829834,-3.1875,-5.109375,-0.875
337,0.6269531,0.18060303,0.80999756,-2.484375,-7.109375,-4.046875
338,0.6442871,0.1383667,0.8209839,-5.75,-1.9375,-4.578125
339,0.62719727,0.11077881,0.82196045,-2.9375,-1.3125,-3.296875
340,0.68652344,0.14227295,0.8656616,3.828125,-2.1875,-5.6875
341,0.6323242,0.13446045,0.87835693,6.890625,-5.625,-2.65625
342,0.60302734,0.08343506,0.83148193,0.328125,-8.53125,-0.9375
343,0.5703125,0.10272217,0.838562,0.453125,-9.046875,0.359375
344,0.5214844,0.08831787,0.86468506,1.03125,-8.546875,1.0625
345,0.5332031,0.101989746,0.93011475,0.328125,-2.921875,1.28125
346,0.5966797,0.070007324,0.9435425,-3.15625,-4.75,1.015625
347,0.5739746,0.08929443,0.92718506,0.1875,-2.390625,4.21875
348,0.53515625,0.09295654,0.92645264,4.78125,3.34375,4.53125
349,0.54003906,0.105895996,0.9081421,5.4375,0.09375,5.140625
350,0.53759766,0.015075684,0.95428467,1.8125,2.578125,4.90625
351,0.5397949,0.09881592,0.8607788,-2.0,1.953125,7.609375
352,0.51904297,0.12982178,0.90374756,5.59375,6.84375,10.171875
353,0.6008301,0.10101318,0.84246826,-3.578125,11.15625,9.671875
354,0.57006836,0.10272217,0.8920288,-1.640625,3.34375,8.53125
355,0.5756836,0.13079834,0.8673706,-7.09375,6.828125,6.625
356,0.5563965,0.15545654,0.8439331,1.890625,2.734375,6.96875
357,0.5793457,0.15960693,0.84124756,1.28125,5.15625,5.03125
358,0.5686035,0.17327881,0.8307495,2.109375,5.71875,4.859375
359,0.578125,0.1317749,0.90618896,2.078125,11.015625,5.859375
360,0.48364258,0.14129639,0.8151245,-6.46875,-10.6875,-5.546875
361,0.4963379,0.121276855,0.86932373,-4.25,-5.40625,-4.890625
362,0.55737305,0.113220215,0.92108154,-2.03125,-1.953125,-4.765625
363,0.5673828,0.10760498,0.92596436,4.234375,2.640625,1.421875
364,0.5336914,0.07928467,0.8876343,0.6875,4.359375,6.5625
365,0.532959,0.10223389,0.86932373,1.03125,5.1875,4.203125
366,0.56030273,0.11444092,0.869812,2.59375,4.078125,2.9375
367,0.57910156,0.13543701,0.85491943,2.3125,2.71875,3.703125
368,0.58935547,0.13372803,0.840271,-2.640625,5.109375,6.5
369,0.61083984,0.16766357,0.8307495,-6.328125,9.21875,8.09375
370,0.62475586,0.17938232,0.83465576,-5.640625,9.671875,7.125
371,0.64746094,0.18377686,0.8366089,0.421875,9.71875,7.765625
372,0.6821289,0.168396,0.8331909,1.921875,7.359375,8.390625
373,0.6977539,0.1642456,0.81903076,-0.859375,3.9375,6.4375
374,0.68188477,0.19256592,0.79437256,0.25,1.078125,2.828125
375,0.6682129,0.19500732,0.78167725,-0.703125,0.546875,2.3125
376,0.6672363,0.1954956,0.8134155,-0.84375,2.59375,2.703125
377,0.67993164,0.19696045,0.81243896,0.140625,1.640625,2.890625
378,0.6726074,0.20770264,0.81585693,0.09375,-0.390625,2.078125
379,0.6723633,0.19671631,0.82318115,-0.234375,1.421875,1.453125
380,0.65893555,0.18133545,0.7958374,-2.8125,-4.0,1.53125
381,0.6491699,0.19232178,0.80145264,-0.6875,-2.9375,0.671875
382,0.6635742,0.18450928,0.8373413,2.765625,0.0,0.484375
383,0.66064453,0.18865967,0.81243896,3.28125,-4.875,0.390625
384,0.6477051,0.2008667,0.7953491,2.078125,-4.203125,0.453125
385,0.64404297,0.19525146,0.79681396,0.1875,-0.640625,0.453125
386,0.64501953,0.20159912,0.80584717,0.75,0.734375,0.5625
387,0.63720703,0.19403076,0.8192749,1.15625,0.359375,0.53125
388,0.63623047,0.18499756,0.82733154,1.515625,-1.703125,0.453125
389,0.62231445,0.18597412,0.82244873,0.84375,-2.46875,0.65625
390,0.6323242,0.18963623,0.8300171,0.0,-2.21875,0.15625
391,0.63012695,0.1798706,0.84198,1.1875,-1.296875,0.640625
392,0.62646484,0.18450928,0.8353882,1.953125,-1.875,0.671875
393,0.6242676,0.18450928,0.82244873,0.296875,-2.0625,0.53125
394,0.6196289,0.17572021,0.83636475,0.140625,-0.984375,0.40625
395,0.6213379,0.17425537,0.84124756,1.21875,0.359375,0.828125
396,0.6196289,0.16619873,0.83636475,0.3125,-0.65625,1.046875
397,0.6225586,0.17669678,0.8275757,0.671875,0.34375,0.90625
398,0.64086914,0.17816162,0.83514404,0.859375,1.28125,0.953125
399,0.6296387,0.18548584,0.8344116,0.34375,0.6875,0.828125
400,0.6257324,0.18328857,0.8432007,0.875,1.421875,0.890625
401,0.63061523,0.18157959,0.8126831,-1.921875,-3.796875,0.84375
402,0.6340332,0.1876831,0.8192749,0.21875,2.859375,0.71875
403,0.6484375,0.18426514,0.83148193,1.6875,4.25,1.21875
404,0.64868164,0.19281006,0.82611084,2.65625,-0.453125,0.90625
405,0.640625,0.18792725,0.81658936,1.734375,-1.625,0.53125
406,0.6376953,0.17059326,0.8287964,-1.65625,0.5,-0.046875
407,0.6242676,0.1671753,0.8307495,-1.609375,-0.59375,0.921875
408,0.62280273,0.16448975,0.8366089,-0.734375,1.109375,0.09375
409,0.6303711,0.17474365,0.82147217,0.859375,-0.046875,-0.015625
410,0.64404297,0.18328857,0.8265991,0.0,0.921875,1.046875
411,0.63842773,0.19476318,0.82733154,-0.25,-0.015625,0.828125
412,0.65112305,0.19134521,0.8173218,-0.296875,0.78125,0.0
413,0.6755371,0.19012451,0.8121948,0.3125,2.09375,0.375
414,0.6533203,0.19696045,0.83270264,2.296875,-0.625,0.15625
415,0.6166992,0.18743896,0.8156128,0.984375,-2.96875,0.359375
416,0.625,0.18841553,0.8031616,-1.546875,-1.21875,1.71875
417,0.6352539,0.1774292,0.8151245,-0.59375,1.484375,2.171875
418,0.6376953,0.16668701,0.8366089,1.25,1.296875,3.25
419,0.6484375,0.15740967,0.822937,1.03125,-1.34375,2.390625
420,0.6447754,0.15838623,0.8226929,-2.734375,-0.328125,0.296875
421,0.6340332,0.17010498,0.8373413,-5.390625,-4.90625,-1.359375
422,0.60424805,0.17352295,0.82196045,-6.953125,-8.953125,-3.984375
423,0.64941406,0.16864014,0.81243896,-3.28125,-5.0,-3.78125
424,0.6569824,0.19720459,0.86468506,-1.859375,2.34375,-3.953125
425,0.61157227,0.22137451,0.8312378,0.0,0.75,-3.734375
426,0.6159668,0.22113037,0.8258667,0.953125,3.140625,-2.3125
427,0.6254883,0.21307373,0.805603,-0.359375,2.421875,-0.28125
428,0.6376953,0.19354248,0.8053589,0.53125,0.3125,0.109375
429,0.6843262,0.2218628,0.82073975,2.671875,-0.453125,1.15625
430,0.6682129,0.21356201,0.8341675,-2.546875,4.609375,2.765625
431,0.62646484,0.17889404,0.8305054,-3.53125,6.140625,1.734375
432,0.58740234,0.15447998,0.8029175,-1.703125,0.71875,0.671875
433,0.62719727,0.15911865,0.8161011,-2.03125,0.03125,0.953125
434,0.66918945,0.18206787,0.7958374,0.28125,-1.15625,1.078125
435,0.6816406,0.20233154,0.807312,-0.734375,3.046875,1.6875
436,0.6652832,0.20672607,0.8278198,-0.078125,5.75,2.125
437,0.6516113,0.20306396,0.8241577,0.140625,3.9375,2.453125
438,0.6315918,0.20111084,0.7897339,0.375,1.640625,3.375
439,0.6411133,0.19989014,0.7921753,1.921875,1.96875,4.09375
440,0.66967773,0.2062378,0.7770386,-0.703125,1.1875,3.640625
441,0.6789551,0.22088623,0.7868042,1.59375,1.96875,1.40625
442,0.66137695,0.19720459,0.79681396,-0.796875,-1.125,1.40625
443,0.66015625,0.20892334,0.758728,-0.40625,-2.4375,0.640625
444,0.6621094,0.20672607,0.77801514,0.765625,2.453125,0.484375
445,0.69799805,0.20819092,0.83099365,6.84375,5.671875,0.328125
446,0.69311523,0.19085693,0.7953491,7.875,1.96875,-0.078125
447,0.6677246,0.1954956,0.8082886,7.875,0.03125,-0.609375
448,0.66503906,0.19647217,0.7977905,6.6875,-0.4375,0.359375
449,0.65844727,0.17254639,0.8024292,3.28125,-4.1875,0.53125
450,0.6611328,0.17156982,0.81365967,3.703125,-7.9375,0.296875
451,0.67333984,0.1486206,0.82733154,3.640625,-4.265625,-0.171875
452,0.6628418,0.16375732,0.8078003,3.109375,-2.984375,-0.21875
453,0.638916,0.17425537,0.83709717,6.203125,-2.171875,0.046875
454,0.63964844,0.14422607,0.8270874,3.71875,-4.890625,-0.125
455,0.6286621,0.15716553,0.7946167,0.734375,-9.984375,-1.40625
456,0.6364746,0.16033936,0.7999878,0.25,-6.25,-1.65625
457,0.625,0.15716553,0.79119873,-1.5625,-3.78125,-0.25
458,0.6062012,0.1552124,0.7885132,-2.546875,-5.203125,1.046875
459,0.61206055,0.16033936,0.84051514,0.515625,-3.546875,0.453125
460,0.63183594,0.14349365,0.8847046,1.671875,1.625,1.109375
461,0.63671875,0.13690186,0.8566284,-0.34375,-0.78125,1.8125
462,0.63183594,0.15960693,0.84661865,1.265625,-4.0625,1.703125
463,0.62060547,0.1564331,0.8414917,-2.96875,-0.8125,1.484375
464,0.5969238,0.1539917,0.8583374,2.234375,0.796875,1.359375
465,0.61694336,0.15496826,0.8427124,3.078125,-1.09375,1.515625
466,0.6184082,0.1720581,0.8356323,-0.46875,-0.0625,1.03125
467,0.61743164,0.16156006,0.85076904,-0.328125,2.078125,0.859375
468,0.62109375,0.15740967,0.8480835,0.34375,1.78125,0.953125
469,0.6142578,0.14105225,0.8439331,-0.375,-1.75,0.6875
470,0.6147461,0.15081787,0.84417725,-0.796875,-4.515625,0.1875
471,0.6220703,0.15618896,0.8512573,-0.671875,-2.515625,0.40625
472,0.61328125,0.15447998,0.8488159,-0.0625,-2.78125,0.8125
473,0.6166992,0.1605835,0.8500366,0.453125,-1.90625,0.890625
474,0.6135254,0.15814209,0.8439331,-0.5,-1.140625,1.09375
475,0.6035156,0.15814209,0.8512573,-1.140625,0.953125,0.953125
476,0.62280273,0.16156006,0.8722534,-0.5,1.453125,0.9375
477,0.6088867,0.15716553,0.8644409,1.21875,-0.25,0.390625
478,0.5961914,0.17010498,0.8456421,0.65625,-2.703125,0.46875
479,0.60791016,0.16522217,0.8656616,-0.546875,-2.1875,-0.046875
480,0.59814453,0.16644287,0.84588623,-0.84375,-1.984375,0.0625
481,0.6086426,0.17132568,0.85858154,-0.109375,0.15625,0.203125
482,0.6032715,0.14666748,0.8727417,-1.265625,1.421875,0.765625
483,0.5961914,0.15179443,0.8571167,-0.265625,-1.59375,0.59375
484,0.6015625,0.14715576,0.869812,2.546875,2.140625,0.609375
485,0.59399414,0.15887451,0.84906006,1.390625,0.515625,1.0
486,0.6040039,0.16937256,0.83270264,0.125,0.75,0.671875
487,0.58374023,0.17059326,0.8500366,0.578125,6.71875,1.546875
488,0.5773926,0.13079834,0.85272217,0.78125,14.234375,5.0
489,0.61572266,0.14642334,0.83709717,-2.328125,12.875,6.203125
490,0.670166,0.18621826,0.8331909,-0.53125,7.21875,0.65625
491,0.6645508,0.15667725,0.8234253,2.0625,5.5625,0.921875
492,0.65185547,0.13861084,0.82244873,3.53125,1.015625,0.15625
493,0.67822266,0.14984131,0.80340576,-0.875,-1.9375,0.0625
494,0.70581055,0.19940186,0.8007202,-2.46875,-3.359375,-2.875
495,0.7097168,0.21380615,0.76312256,-1.953125,-3.234375,-5.421875
496,0.7167969,0.20379639,0.78582764,-2.28125,-1.21875,-6.9375
497,0.6928711,0.17669678,0.80462646,-0.609375,-2.65625,-9.03125
498,0.7216797,0.14959717,0.83392334,-3.875,-5.046875,-11.25
499,0.75268555,0.1762085,0.9196167,-3.265625,-5.515625,-11.890625
500,0.670166,0.15081787,0.8024292,-0.90625,-16.140625,-9.796875
501,0.5876465,0.14715576,0.74920654,2.140625,-9.265625,-11.234375
502,0.5505371,0.10736084,0.774353,0.8125,-1.65625,-9.15625
503,0.53344727,0.059753418,0.8373413,2.265625,-3.9375,-7.546875
504,0.58618164,0.061706543,0.9047241,-1.0625,-0.640625,-6.328125
505,0.6242676,0.059265137,0.8991089,-0.46875,-0.390625,-4.28125
506,0.60131836,0.08099365,0.86590576,1.46875,-5.109375,-3.46875
507,0.5864258,0.093688965,0.88568115,2.390625,-1.59375,-2.609375
508,0.5715332,0.07635498,0.8571167,-0.640625,-4.4375,-1.953125
509,0.5722656,0.08782959,0.8666382,0.34375,-4.5,-1.34375
510,0.58203125,0.08441162,0.87420654,0.65625,-3.203125,-0.96875
511,0.58569336,0.089538574,0.87786865,1.390625,-0.53125,-0.703125
512,0.60546875,0.078063965,0.8744507,1.03125,1.984375,-0.234375
513,0.609375,0.074645996,0.8720093,0.578125,1.890625,0.5
514,0.6147461,0.07293701,0.8810425,0.625,1.25,0.046875
515,0.60717773,0.06781006,0.87615967,0.9375,1.15625,-0.015625
516,0.6269531,0.06341553,0.87542725,1.015625,1.765625,-0.078125
517,0.63305664,0.06488037,0.8739624,-2.203125,3.171875,0.765625
518,0.6352539,0.06536865,0.8878784,-1.75,1.1875,0.59375
519,0.61035156,0.0770874,0.8512573,0.84375,-5.265625,0.71875
520,0.6208496,0.08465576,0.8361206,0.4375,-5.703125,-0.109375
521,0.63500977,0.074157715,0.9345093,-0.53125,-0.8125,0.046875
522,0.62158203,0.0602417,0.89715576,-2.796875,-3.40625,1.296875
523,0.5703125,0.06756592,0.76605225,-3.484375,-3.984375,0.40625
524,0.5605469,0.07611084,0.80804443,1.3125,-0.375,-2.4375
525,0.5942383,0.06756592,0.87420654,3.546875,-2.96875,-3.984375
526,0.6196289,0.05999756,0.9371948,-1.484375,-4.296875,-4.09375
527,0.5966797,0.07318115,0.93255615,-0.734375,-2.859375,-2.6875
528,0.5205078,0.050720215,0.9059448,-0.546875,4.09375,-0.546875
529,0.52075195,0.04827881,0.85028076,-0.125,2.359375,0.796875
530,0.56591797,0.051940918,0.80462646,-0.640625,2.609375,1.875
531,0.65527344,0.0692749,0.83587646,-2.46875,3.703125,-2.109375
532,0.6694336,0.07928467,0.87493896,-1.171875,-1.25,-2.171875
533,0.6335449,0.06072998,0.89837646,-0.640625,-1.734375,-0.78125
534,0.5917969,0.08123779,0.8912964,1.609375,-2.265625,-0.140625
535,0.5786133,0.055847168,0.8739624,0.25,-1.78125,1.140625
536,0.578125,0.051696777,0.8546753,0.625,-1.65625,2.421875
537,0.6003418,0.057556152,0.8685913,1.640625,0.65625,2.359375
538,0.6020508,0.055114746,0.885437,2.78125,1.609375,1.515625
539,0.6140137,0.06072998,0.88934326,-0.140625,0.421875,0.875
540,0.6032715,0.051696777,0.88494873,0.484375,-0.828125,0.390625
541,0.59106445,0.06341553,0.8629761,-0.015625,-1.921875,0.421875
542,0.6010742,0.057556152,0.8876343,-0.578125,2.140625,-0.15625
543,0.6003418,0.06121826,0.8786011,-0.171875,2.140625,0.21875
544,0.58984375,0.05340576,0.8900757,2.328125,2.546875,0.109375
545,0.57373047,0.029968262,0.90667725,3.203125,6.0,0.453125
546,0.6101074,0.036315918,0.87542725,4.328125,3.921875,0.265625
547,0.6208496,0.06097412,0.8529663,3.65625,4.4375,1.859375
548,0.60668945,0.058044434,0.8602905,1.671875,0.8125,0.21875
549,0.6452637,0.05218506,0.84783936,1.296875,2.390625,-1.65625
550,0.6557617,0.051940918,0.8295288,0.421875,1.4375,1.734375
551,0.66064453,0.043151855,0.8641968,0.0625,8.96875,0.515625
552,0.6323242,0.08514404,0.81903076,3.484375,3.40625,1.15625
553,0.607666,0.07220459,0.82684326,0.984375,1.75,2.875
554,0.60717773,0.03656006,0.82318115,-0.625,-2.71875,2.390625
555,0.62939453,0.038513184,0.85198975,4.59375,-2.15625,3.9375
556,0.63793945,0.03387451,0.86932373,2.21875,-5.53125,5.65625
557,0.64746094,0.06317139,0.87835693,3.140625,-5.984375,6.5
558,0.6335449,0.06585693,0.9274292,3.59375,-2.453125,8.796875
559,0.6281738,0.04095459,0.8451538,-0.84375,-1.546875,9.078125
560,0.6279297,0.09564209,0.8175659,0.40625,-2.265625,6.765625
561,0.58325195,0.06756592,0.86468506,4.671875,2.546875,7.28125
562,0.57055664,0.07659912,0.8461304,1.625,1.125,6.65625
563,0.58935547,0.05291748,0.8788452,2.546875,1.4375,5.78125
564,0.62719727,0.055114746,0.85491943,-2.0,-1.484375,5.25
565,0.63720703,0.070495605,0.885437,0.375,-3.171875,0.984375
566,0.6479492,0.044128418,0.86395264,-3.0,-1.796875,0.78125
567,0.6364746,0.059265137,0.87323,0.5625,-4.265625,-0.640625
568,0.623291,0.09490967,0.83880615,-1.890625,-4.921875,-0.90625
569,0.6291504,0.10394287,0.8407593,-3.171875,-3.328125,-1.6875
570,0.6245117,0.09881592,0.84198,-2.03125,-1.8125,-0.234375
571,0.61083984,0.10223389,0.857605,-0.375,-0.5625,1.078125
572,0.5695801,0.09173584,0.88275146,0.984375,2.609375,3.203125
573,0.5427246,0.082458496,0.91864014,4.96875,5.75,4.890625
574,0.55444336,0.053894043,0.87493896,2.09375,2.96875,7.59375
575,0.56640625,0.0692749,0.85565186,-0.84375,1.0,6.75
576,0.60717773,0.10491943,0.87323,-1.984375,-0.921875,3.984375
577,0.62231445,0.10614014,0.87713623,-1.328125,-3.40625,3.484375
578,0.5966797,0.10784912,0.8822632,-3.796875,-1.515625,4.1875
579,0.60595703,0.11126709,0.87542725,-2.546875,-0.875,4.375
580,0.61157227,0.12640381,0.84295654,-4.5,2.25,6.59375
581,0.64160156,0.12738037,0.8859253,-2.8125,6.453125,6.515625
582,0.6508789,0.082458496,0.8578491,-1.046875,5.21875,4.96875
583,0.6623535,0.14642334,0.82806396,0.21875,-0.03125,1.078125
584,0.65283203,0.16278076,0.8522339,1.828125,1.90625,0.921875
585,0.6064453,0.16326904,0.82489014,-1.203125,1.8125,3.265625
586,0.60009766,0.15325928,0.8529663,2.1875,4.203125,4.515625
587,0.6218262,0.121276855,0.8668823,0.4375,6.796875,6.078125
588,0.6345215,0.1317749,0.84124756,-1.84375,-2.59375,4.59375
589,0.66430664,0.17376709,0.8258667,1.25,-1.9375,1.640625
590,0.67700195,0.20233154,0.8434448,-1.390625,5.890625,0.96875
591,0.58813477,0.124694824,0.83270264,-0.546875,9.546875,4.953125
592,0.5463867,0.1449585,0.8078003,-3.25,0.515625,4.9375
593,0.6088867,0.15740967,0.8300171,-0.84375,-0.578125,1.9375
594,0.6738281,0.17523193,0.8175659,-2.609375,-2.84375,2.1875
595,0.66967773,0.17156982,0.8283081,-2.15625,-2.5625,2.484375
596,0.64819336,0.17596436,0.7555542,-4.34375,-4.375,2.125
597,0.60302734,0.22918701,0.7711792,-0.640625,-7.78125,-0.296875
598,0.6513672,0.20574951,0.85321045,0.703125,2.109375,1.265625
599,0.6647949,0.18182373,0.85809326,0.9375,-1.734375,1.34375
600,0.6726074,0.18695068,0.87835693,-0.796875,5.0625,-0.515625
601,0.5966797,0.13787842,0.8903198,4.75,4.65625,4.796875
602,0.58251953,0.12884521,0.7831421,-1.46875,-4.640625,1.71875
603,0.5913086,0.1786499,0.8505249,3.0625,3.84375,2.5
604,0.64086914,0.2020874,0.8637085,0.640625,-1.40625,-0.8125
605,0.65405273,0.20184326,0.85809326,-0.859375,2.0625,1.109375
606,0.68652344,0.21502686,0.8109741,-1.015625,-2.84375,0.96875
607,0.6464844,0.19354248,0.8097534,-0.71875,7.5625,-0.390625
608,0.60913086,0.18865967,0.8019409,-1.6875,3.53125,0.90625
609,0.59716797,0.20184326,0.8185425,-0.984375,0.515625,0.671875
610,0.62109375,0.21502686,0.84002686,0.40625,-0.3125,0.875
611,0.61694336,0.21209717,0.82855225,-0.421875,-6.5,-0.15625
612,0.6345215,0.168396,0.8234253,-0.5625,-7.0625,1.421875
613,0.6464844,0.17816162,0.7860718,-5.625,-9.328125,0.96875
614,0.6750488,0.17645264,0.87542725,2.78125,2.734375,-0.96875
615,0.63012695,0.19256592,0.82196045,0.984375,-1.25,-2.4375
616,0.5891113,0.1942749,0.7977905,0.03125,-2.125,-0.625
617,0.60913086,0.17449951,0.8131714,-2.125,-0.953125,0.484375
618,0.6586914,0.17132568,0.8607788,1.75,3.03125,0.75
619,0.64868164,0.18231201,0.8695679,5.3125,2.0625,2.140625
620,0.6184082,0.20135498,0.82489014,0.9375,0.0625,1.078125
621,0.6105957,0.19744873,0.80999756,-1.828125,-0.6875,0.53125
622,0.6220703,0.19696045,0.8187866,0.859375,-0.125,0.875
623,0.63916016,0.19256592,0.8644409,2.359375,4.90625,1.640625
624,0.64160156,0.1749878,0.83343506,1.484375,0.46875,2.390625
625,0.63623047,0.18597412,0.821228,0.578125,-0.859375,0.515625
626,0.63671875,0.1786499,0.7860718,-0.96875,-2.296875,0.703125
627,0.64160156,0.18988037,0.8126831,-0.84375,1.078125,0.0
628,0.65478516,0.19085693,0.83148193,-0.328125,6.5625,0.0
629,0.66552734,0.18597412,0.83636475,1.609375,5.9375,0.359375
630,0.61328125,0.18109131,0.81903076,2.421875,3.15625,1.109375
631,0.6140137,0.17132568,0.8217163,1.625,3.078125,2.078125
632,0.63256836,0.18035889,0.8065796,0.734375,-0.34375,1.328125
633,0.6538086,0.18231201,0.80804443,0.28125,-1.546875,0.6875
634,0.6550293,0.1864624,0.81903076,-0.453125,-1.21875,0.34375
635,0.6652832,0.17523193,0.8307495,0.125,0.328125,0.609375
636,0.6508789,0.17352295,0.8180542,1.140625,0.03125,0.734375
637,0.6335449,0.17449951,0.7975464,-0.015625,-1.359375,0.5625
638,0.6376953,0.18572998,0.80389404,0.71875,-0.078125,0.640625
639,0.640625,0.18035889,0.8043823,0.3125,0.203125,1.3125
640,0.64453125,0.17669678,0.81585693,-0.765625,0.75,1.40625
641,0.66064453,0.17669678,0.8270874,1.125,0.890625,1.5625
642,0.65649414,0.17718506,0.82562256,1.078125,2.09375,1.609375
643,0.64331055,0.18426514,0.807312,-0.171875,0.578125,1.4375
644,0.64819336,0.18719482,0.8161011,0.53125,0.078125,1.515625
645,0.6437988,0.1749878,0.80340576,0.75,-1.0,1.421875
646,0.64575195,0.18206787,0.81292725,-0.0625,-2.40625,1.265625
647,0.6516113,0.19012451,0.8222046,0.015625,-0.84375,0.765625
648,0.64697266,0.18450928,0.78900146,-1.671875,-4.390625,1.140625
649,0.65112305,0.18597412,0.8097534,-1.5,0.5625,0.71875
650,0.6472168,0.18035889,0.82440186,0.3125,3.25,1.09375
651,0.6582031,0.20306396,0.81829834,1.296875,-0.78125,0.984375
652,0.6418457,0.20257568,0.82366943,1.203125,-1.328125,1.375
653,0.63842773,0.18157959,0.8209839,1.921875,-1.59375,1.609375
654,0.65185547,0.1864624,0.81365967,1.09375,-1.640625,1.96875
655,0.6308594,0.19256592,0.80023193,0.21875,-1.828125,1.78125
656,0.67041016,0.1930542,0.8295288,1.96875,2.625,0.890625
657,0.67871094,0.18719482,0.8468628,2.109375,2.1875,1.1875
658,0.6569824,0.1906128,0.8361206,6.078125,-2.828125,0.609375
659,0.6298828,0.17034912,0.83270264,7.25,-4.078125,0.71875
660,0.59155273,0.16986084,0.8119507,3.234375,-8.578125,0.40625
661,0.5961914,0.17913818,0.80145264,-0.203125,-9.0625,-0.546875
662,0.6135254,0.17303467,0.81365967,-2.03125,-6.546875,-0.6875
663,0.60424805,0.16741943,0.81781006,-4.296875,-3.78125,0.109375
664,0.609375,0.16986084,0.8632202,-1.375,0.15625,0.609375
665,0.6159668,0.16400146,0.8746948,0.15625,0.171875,1.484375
666,0.6147461,0.17059326,0.8866577,2.53125,0.515625,1.234375
667,0.6113281,0.17962646,0.807312,0.984375,-5.03125,1.078125
668,0.6118164,0.18865967,0.8119507,-1.5,-0.140625,0.546875
669,0.6242676,0.18597412,0.84906006,-0.8125,6.078125,1.484375
670,0.62158203,0.17401123,0.83099365,-0.75,3.21875,1.703125
671,0.6254883,0.1828003,0.85369873,1.140625,3.9375,1.4375
672,0.6315918,0.18011475,0.8468628,1.71875,2.515625,1.1875
673,0.6281738,0.18719482,0.8336792,1.171875,0.03125,1.46875
674,0.6308594,0.1864624,0.81903076,-0.65625,0.609375,1.125
675,0.62719727,0.17669678,0.821228,-1.1875,2.5,0.625
676,0.6447754,0.18182373,0.8446655,0.4375,1.8125,0.328125
677,0.6291504,0.17254639,0.8336792,0.15625,-0.46875,0.359375
678,0.62158203,0.17889404,0.8383179,-0.21875,-0.59375,0.625
679,0.625,0.17181396,0.8397827,0.5625,-0.25,0.40625
680,0.6296387,0.1749878,0.82684326,0.984375,0.0625,0.78125
681,0.626709,0.17840576,0.8290405,1.5625,-0.046875,0.703125
682,0.6281738,0.18035889,0.82025146,0.53125,0.203125,0.890625
683,0.62158203,0.18133545,0.83099365,0.703125,1.015625,1.1875
684,0.63305664,0.18353271,0.82733154,0.375,0.015625,0.84375
685,0.6328125,0.17840576,0.82318115,0.765625,-0.390625,1.25
686,0.62402344,0.18084717,0.8287964,-0.0625,0.4375,1.21875
687,0.63671875,0.17669678,0.8305054,0.09375,0.234375,1.125
688,0.6352539,0.17352295,0.8439331,0.71875,1.359375,0.9375
689,0.65185547,0.17156982,0.82440186,1.875,0.65625,0.984375
690,0.6347656,0.1798706,0.82733154,0.859375,-1.65625,0.625
691,0.6323242,0.1786499,0.83587646,1.140625,0.109375,0.875
692,0.6311035,0.18060303,0.7965698,-1.609375,-2.71875,0.84375
693,0.6376953,0.18182373,0.8192749,-0.90625,2.140625,0.578125
694,0.64746094,0.18011475,0.83587646,1.40625,4.78125,0.796875
695,0.642334,0.18621826,0.8295288,2.125,1.0625,1.140625
696,0.6386719,0.18695068,0.82318115,0.921875,-0.546875,0.96875
697,0.64038086,0.17327881,0.82318115,1.0,-0.3125,1.0625
698,0.6464844,0.16937256,0.8185425,1.015625,-0.296875,1.0
699,0.63842773,0.17352295,0.82147217,0.375,-0.546875,0.828125
700,0.640625,0.17474365,0.8258667,0.234375,-0.78125,0.84375
701,0.638916,0.1762085,0.8275757,0.421875,1.078125,1.046875
702,0.63623047,0.17401123,0.8283081,0.203125,0.4375,0.8125
703,0.640625,0.17449951,0.8200073,1.265625,0.109375,1.046875
704,0.6347656,0.17645264,0.8187866,0.5,0.03125,0.96875
705,0.63793945,0.18597412,0.8053589,-0.59375,0.484375,0.96875
706,0.6452637,0.17596436,0.81536865,-0.890625,1.984375,0.90625
707,0.6513672,0.18304443,0.83807373,0.5625,3.4375,0.796875
708,0.6501465,0.17718506,0.88323975,4.03125,2.515625,0.75
709,0.6386719,0.1552124,0.8468628,6.09375,-5.921875,1.71875
710,0.64086914,0.16522217,0.7897339,1.484375,-9.8125,0.59375
711,0.6291504,0.17303467,0.8012085,-0.140625,-3.015625,-0.234375
712,0.63916016,0.18353271,0.80804443,-1.53125,-1.65625,-0.546875
713,0.6328125,0.17010498,0.8353882,-0.125,2.21875,-0.421875
714,0.6447754,0.16766357,0.82489014,-1.25,-0.8125,0.0625
715,0.63720703,0.17523193,0.80804443,-1.65625,0.46875,-0.09375
716,0.64208984,0.16668701,0.83270264,-0.125,6.078125,0.40625
717,0.6452637,0.17547607,0.8373413,2.203125,2.921875,0.8125
718,0.64086914,0.17034912,0.8185425,0.9375,0.578125,1.046875
719,0.6413574,0.1671753,0.8109741,-0.546875,0.90625,1.21875
720,0.6386719,0.16986084,0.8156128,0.0,1.75,1.078125
721,0.6582031,0.16107178,0.8366089,0.09375,3.125,1.265625
722,0.65649414,0.16864014,0.8641968,3.75,0.890625,0.8125
723,0.6594238,0.15814209,0.8468628,5.328125,-5.03125,0.984375
724,0.6357422,0.15594482,0.82440186,4.6875,-12.09375,-0.453125
725,0.61621094,0.15228271,0.8109741,-0.28125,-8.890625,-0.609375
726,0.6254883,0.14349365,0.8390503,0.4375,-0.84375,-0.515625
727,0.61865234,0.1486206,0.8461304,3.640625,-1.078125,-0.0625
728,0.6201172,0.14984131,0.8468628,4.359375,-2.078125,-0.109375
729,0.61328125,0.14422607,0.8366089,1.921875,-5.25,-0.53125
730,0.6081543,0.14910889,0.82855225,0.546875,-6.34375,-0.328125
731,0.6044922,0.14910889,0.8012085,-2.265625,-5.671875,0.46875
732,0.5883789,0.15740967,0.8161011,-2.296875,-4.546875,0.8125
733,0.6159668,0.15301514,0.8969116,-0.921875,2.453125,0.765625
734,0.62841797,0.12445068,0.9118042,3.0625,3.78125,1.84375
735,0.5925293,0.13690186,0.8744507,1.53125,-0.546875,1.953125
736,0.5961914,0.14593506,0.85565186,-0.203125,-0.25,1.28125
737,0.6130371,0.1395874,0.8307495,-1.671875,-2.0,0.8125
738,0.6044922,0.15325928,0.84295654,0.828125,0.8125,0.6875
739,0.6140137,0.14154053,0.8781128,0.609375,4.78125,0.734375
740,0.60717773,0.15203857,0.8554077,-0.078125,1.25,0.96875
741,0.6101074,0.16107178,0.8270874,-2.75,0.796875,1.203125
742,0.6130371,0.16326904,0.8265991,-5.046875,2.859375,1.09375
743,0.6298828,0.15350342,0.83807373,-3.890625,5.21875,0.78125
744,0.63134766,0.15594482,0.8463745,-3.0625,4.28125,1.0
745,0.63720703,0.16229248,0.85491943,-1.09375,3.84375,1.28125
746,0.64086914,0.16668701,0.8480835,0.65625,2.3125,1.421875
747,0.63549805,0.16668701,0.83392334,1.078125,0.765625,1.296875
748,0.6311035,0.17547607,0.84002686,0.984375,0.90625,1.0625
749,0.6347656,0.16864014,0.8529663,2.421875,0.609375,1.625
750,0.6166992,0.16033936,0.85369873,2.609375,-0.46875,1.3125
751,0.6311035,0.16448975,0.8336792,2.0,-2.09375,1.03125
752,0.6298828,0.16131592,0.8173218,-0.171875,-1.640625,0.8125
753,0.62402344,0.16156006,0.8192749,-1.109375,0.0,0.640625
754,0.6320801,0.15716553,0.8319702,-0.125,-0.171875,1.265625
755,0.6364746,0.15692139,0.8439331,0.8125,0.21875,0.9375
756,0.6459961,0.16033936,0.8251343,0.734375,-0.8125,1.125
757,0.6333008,0.17303467,0.81463623,0.4375,-1.140625,0.65625
758,0.6333008,0.16815186,0.8410034,1.515625,1.328125,0.609375
759,0.63842773,0.16082764,0.82366943,0.921875,-1.28125,1.25
