sample_no,accel_x,accel_y,accel_z,gyro_x,gyro_y,gyro_z
0,-0.7277832,-1.1712036,1.25579834,0.796875,0.125,0.0625
1,-0.7297363299999999,-1.178772,1.24749756,-0.015625,-0.125,-0.421875
2,-0.7414550799999999,-1.1707153300000002,1.2435912999999998,0.59375,0.890625,-0.59375
3,-0.73266602,-1.1565552,1.24798584,-0.671875,-0.515625,-0.75
4,-0.73876953,-1.16534424,1.2350464,-0.03125,-0.34375,-0.375
5,-0.7297363299999999,-1.15875244,1.2501831,-0.46875,-1.03125,-0.1875
6,-0.73925781,-1.15875244,1.2367553999999998,-0.9375,-1.765625,-0.40625
7,-0.7475586,-1.16729736,1.2589721699999998,-0.640625,-1.734375,0.0
8,-0.7368164,-1.1626587000000002,1.24627686,-0.9375,-0.75,-0.046875
9,-0.72705078,-1.16534424,1.25457764,-1.59375,-2.796875,-0.125
10,-0.73852539,-1.16973877,1.24017334,-1.09375,-3.15625,0.15625
11,-0.7429199200000001,-1.163147,1.25213623,-0.953125,-2.953125,0.21875
12,-0.75976562,-1.15411377,1.274353,1.046875,-2.703125,0.796875
13,-0.76708984,-1.1543579,1.2511596699999998,0.40625,-1.9375,0.46875
14,-0.74902344,-1.1567993,1.2379761,0.578125,-2.671875,0.78125
15,-0.7607421999999999,-1.1524048,1.25213623,0.84375,-3.390625,1.171875
16,-0.75732422,-1.1675415,1.2352905,0.6875,-2.984375,0.84375
17,-0.7624511700000001,-1.1773071000000002,1.2418823,1.359375,-2.640625,0.671875
18,-0.76831055,-1.16607666,1.2225952,1.15625,0.140625,0.234375
19,-0.75146484,-1.1724243,1.2411499,0.515625,-1.28125,0.28125
20,-0.74780273,-1.177063,1.2196655,0.921875,-0.234375,0.203125
21,-0.74414062,-1.17437744,1.2243042,-0.15625,-2.609375,-0.5
22,-0.77075195,-1.19244385,1.2338257,-0.125,-2.3125,-0.546875
23,-0.76416016,-1.1797485399999998,1.2435912999999998,-0.03125,-1.265625,0.34375
24,-0.7663574200000001,-1.1843872,1.2394409,-1.140625,-1.6875,0.25
25,-0.7680663999999999,-1.1814575,1.2355346699999998,-1.484375,-1.53125,-0.125
26,-0.7668457,-1.1716919,1.22039795,-0.71875,-0.1875,0.21875
27,-0.76464844,-1.1641235399999998,1.23187256,-0.984375,-1.015625,0.28125
28,-0.7678222699999999,-1.1626587000000002,1.2404175,-0.703125,-1.890625,-0.03125
29,-0.7626953000000001,-1.16485596,1.23651123,-0.703125,-1.203125,-0.234375
30,-0.7709961000000001,-1.16900635,1.2423706,-0.796875,-0.65625,-0.109375
31,-0.7678222699999999,-1.1724243,1.2399292,-1.109375,-0.171875,-0.359375
32,-0.76464844,-1.1719360399999998,1.2247925,0.25,0.78125,-0.015625
33,-0.76293945,-1.1633911,1.2277221699999998,-0.625,-0.1875,-0.21875
34,-0.7712402300000001,-1.16729736,1.2304077,-1.0,0.875,-0.5625
35,-0.76904297,-1.1694946000000002,1.243103,-1.0625,0.140625,-0.28125
36,-0.7712402300000001,-1.1707153300000002,1.2213745,-0.390625,0.921875,0.1875
37,-0.77075195,-1.1643677,1.2304077,0.65625,-0.203125,0.28125
38,-0.7663574200000001,-1.1643677,1.2470093,-0.28125,-1.640625,-0.6875
39,-0.7634277300000001,-1.15704346,1.2328491,-0.53125,-0.765625,-0.234375
40,-0.7756347699999999,-1.17755127,1.2423706,-1.234375,-1.578125,-0.296875
41,-0.77490234,-1.1682739,1.2357787999999998,-0.609375,-0.78125,0.15625
42,-0.7712402300000001,-1.1721802,1.2404175,0.03125,0.0625,-0.015625
43,-0.7680663999999999,-1.1675415,1.229187,0.546875,-0.0625,-0.25
44,-0.76538086,-1.1658325,1.24749756,0.28125,-0.125,0.203125
45,-0.77392578,-1.1663208,1.2343139600000002,0.078125,-0.390625,-0.09375
46,-0.7717285199999999,-1.16534424,1.2247925,-0.5625,-0.375,-0.25
47,-0.7680663999999999,-1.16534424,1.2243042,-0.21875,-0.0625,-0.046875
48,-0.76293945,-1.18341064,1.2350464,1.484375,-0.375,-0.078125
49,-0.75976562,-1.1741333,1.22576904,1.46875,-1.21875,0.65625
50,-0.76953125,-1.1675415,1.2350464,0.640625,-1.65625,0.125
51,-0.7697754,-1.1807251,1.215271,1.46875,-0.015625,-0.3125
52,-0.7678222699999999,-1.1602173,1.2345581,0.015625,-1.390625,-0.03125
53,-0.77001953,-1.1748657,1.2196655,1.5,-0.484375,0.796875
54,-0.76586914,-1.17633057,1.2172241,2.4375,-1.9375,0.515625
55,-0.78076172,-1.18927,1.23602295,1.109375,-2.375,-0.484375
56,-0.77978516,-1.17266846,1.23236084,0.484375,-1.578125,-0.59375
57,-0.7980957,-1.192688,1.21698,1.859375,-0.1875,-0.1875
58,-0.7600097699999999,-1.18927,1.2172241,1.46875,-0.84375,-0.09375
59,-0.77441406,-1.1790161,1.215271,0.28125,0.109375,0.46875
60,-0.7805175799999999,-1.18878174,1.2238159,0.171875,0.234375,0.625
61,-0.7751464800000001,-1.1812134,1.2238159,0.1875,0.375,0.25
62,-0.77368164,-1.1863403300000002,1.2194214,-1.359375,-0.859375,-0.59375
63,-0.7775879,-1.1946411,1.22332764,-1.34375,-0.125,-0.75
64,-0.78027344,-1.18292236,1.2225952,-1.34375,0.359375,-0.96875
65,-0.77148438,-1.1812134,1.21258545,-1.6875,2.46875,-1.390625
66,-0.76953125,-1.1616821000000002,1.21698,0.40625,1.609375,-0.875
67,-0.76831055,-1.1712036,1.2103882,-0.3125,-0.078125,-0.84375
68,-0.7709961000000001,-1.19903564,1.2345581,0.8125,1.734375,-0.359375
69,-0.78564453,-1.17633057,1.2238159,-1.84375,0.765625,-0.828125
70,-0.76831055,-1.1729126,1.2025757,-1.046875,1.9375,-0.375
71,-0.7756347699999999,-1.1760864,1.22576904,1.234375,0.796875,-0.203125
72,-0.78076172,-1.1790161,1.2355346699999998,0.28125,-0.34375,-0.375
73,-0.76293945,-1.1748657,1.2177124,1.234375,0.203125,0.5625
74,-0.75805664,-1.18707275,1.2213745,1.046875,0.09375,0.40625
75,-0.7766113299999999,-1.1807251,1.2470093,-0.9375,-1.265625,0.1875
76,-0.77001953,-1.1782837000000002,1.2157593,-0.328125,0.4375,0.109375
77,-0.74438477,-1.1785278300000002,1.2189331,1.90625,0.5625,0.359375
78,-0.7795410199999999,-1.1765747,1.2160034,0.90625,-2.0625,0.921875
79,-0.7756347699999999,-1.1987915,1.23309326,-0.078125,-0.546875,-0.296875
80,-0.76904297,-1.192688,1.22088623,0.21875,0.203125,-0.015625
81,-0.75976562,-1.1860962000000002,1.2111206,0.296875,0.921875,0.125
82,-0.76660156,-1.1880493,1.2120971699999998,1.265625,0.453125,0.265625
83,-0.7741699200000001,-1.1958618,1.2265014600000002,0.34375,-0.34375,-0.125
84,-0.7639160199999999,-1.192688,1.2272339,-1.25,-0.1875,-0.640625
85,-0.7578125,-1.1941528300000002,1.2196655,0.390625,1.734375,-0.265625
86,-0.76757812,-1.18341064,1.21307373,-1.21875,1.328125,-0.09375
87,-0.7531738299999999,-1.1777954,1.2103882,1.546875,1.734375,0.28125
88,-0.7595214800000001,-1.1760864,1.2186889600000002,2.015625,-0.390625,0.21875
89,-0.77441406,-1.1992798,1.2262573,-0.859375,0.15625,-0.8125
90,-0.7595214800000001,-1.20025635,1.22698975,-0.234375,1.0625,-0.421875
91,-0.75439453,-1.1885376,1.20648193,-0.5625,0.734375,-0.34375
92,-0.7351074200000001,-1.1865845,1.20721436,1.171875,2.25,0.015625
93,-0.7607421999999999,-1.19366455,1.2272339,1.59375,0.921875,0.140625
94,-0.74658203,-1.2036743,1.2304077,-1.046875,-0.0625,-0.453125
95,-0.75390625,-1.1868286,1.2172241,-0.125,-0.390625,0.34375
96,-0.7556152300000001,-1.19366455,1.20477295,-1.515625,-0.8125,0.0625
97,-0.75830078,-1.19195557,1.2250366,-0.140625,0.25,-0.078125
98,-0.74951172,-1.19073486,1.21429443,-0.671875,0.375,-0.28125
99,-0.74829102,-1.2007446000000002,1.2230835,-1.1875,1.0625,-0.40625
100,-0.76171875,-1.18585205,1.21136475,-1.03125,0.75,-0.21875
101,-0.75,-1.1904907,1.20965576,-0.484375,1.03125,-0.3125
102,-0.74389648,-1.18829346,1.246521,0.6875,-1.796875,-0.28125
103,-0.73999023,-1.22857666,1.2201537999999998,-2.734375,-2.265625,-4.4375
104,-0.73291016,-1.16119385,1.1923218,3.78125,-0.015625,-3.6875
105,-0.80664062,-1.1362915,1.2040405,-0.0625,-5.359375,0.375
106,-0.7956543,-1.2229614,1.25579834,-1.71875,-1.09375,0.890625
107,-0.76953125,-1.1873169,1.2199096699999998,0.84375,1.875,-0.796875
108,-0.7639160199999999,-1.173645,1.1942749,-1.71875,-0.078125,-0.515625
109,-0.76611328,-1.19488525,1.2206421,-1.484375,-0.296875,-0.234375
110,-0.7702636700000001,-1.1902466,1.2345581,-1.765625,-0.140625,-0.59375
111,-0.7595214800000001,-1.1873169,1.2355346699999998,-0.921875,0.484375,-0.921875
112,-0.76586914,-1.1651001,1.2265014600000002,-1.9375,-0.28125,-0.09375
113,-0.7590332,-1.1799927,1.22698975,-2.5,-0.6875,-0.484375
114,-0.7678222699999999,-1.18707275,1.2177124,-1.078125,0.125,-0.46875
115,-0.76513672,-1.17388916,1.2194214,-0.578125,-0.4375,-0.5625
116,-0.77539062,-1.1758423,1.23724365,-2.375,0.671875,-0.484375
117,-0.7788086000000001,-1.1824341,1.23968506,-2.296875,1.59375,-0.609375
118,-0.75878906,-1.17755127,1.22283936,-0.484375,2.828125,-1.234375
119,-0.75097656,-1.1704712000000002,1.21551514,-0.625,1.421875,0.265625
120,-0.74365234,-1.16778564,1.22454834,2.09375,0.4375,0.234375
121,-0.7529296999999999,-1.17144775,1.23773193,0.40625,-0.828125,0.75
122,-0.76049805,-1.19073486,1.2321167,1.265625,-0.140625,0.6875
123,-0.7609863299999999,-1.1785278300000002,1.21380615,1.140625,-0.75,0.265625
124,-0.76611328,-1.1826782,1.2367553999999998,0.34375,-0.296875,0.3125
125,-0.76953125,-1.1814575,1.2279662999999998,-0.796875,-0.625,-0.234375
126,-0.7644043,-1.1765747,1.2265014600000002,-0.609375,-0.0625,-0.15625
127,-0.7648925799999999,-1.1848755,1.2369995,-0.546875,-0.109375,-0.8125
128,-0.76660156,-1.1758423,1.2406616,-2.828125,0.265625,-1.0
129,-0.74780273,-1.17681885,1.21380615,0.140625,2.046875,-0.0625
130,-0.7487793,-1.1748657,1.243103,0.65625,-0.640625,-0.109375
131,-0.7529296999999999,-1.17755127,1.23236084,-0.234375,-0.234375,-0.234375
132,-0.7512207,-1.16363525,1.24139404,0.1875,-0.6875,0.296875
133,-0.7692871,-1.1694946000000002,1.2213745,-1.140625,-0.375,0.0
134,-0.77001953,-1.1748657,1.232605,0.0625,0.0625,-0.703125
135,-0.75927734,-1.1716919,1.2548218,1.203125,1.3125,0.109375
136,-0.75585938,-1.159729,1.227478,-0.5625,1.171875,0.546875
137,-0.75341797,-1.1716919,1.21917725,0.0,0.46875,0.53125
138,-0.78173828,-1.18218994,1.2404175,0.40625,0.109375,-0.171875
139,-0.7507324200000001,-1.1860962000000002,1.229187,1.40625,1.21875,-0.375
140,-0.74633789,-1.17437744,1.2238159,1.328125,-1.109375,0.71875
141,-0.74975586,-1.1760864,1.2184448,0.1875,-0.8125,0.796875
142,-0.75390625,-1.19000244,1.22528076,0.234375,0.21875,0.3125
143,-0.7517089800000001,-1.1836548,1.2433471699999998,0.5,0.78125,0.28125
144,-0.74316406,-1.1790161,1.22406006,0.125,-0.328125,0.0
145,-0.75097656,-1.1831665,1.23358154,-0.25,-0.296875,0.125
146,-0.75146484,-1.1831665,1.23846436,-0.390625,-0.71875,-0.40625
147,-0.7619629,-1.1863403300000002,1.2262573,-1.71875,-0.109375,-0.265625
148,-0.75683594,-1.1934204,1.227478,-0.359375,0.765625,-0.3125
149,-0.7521972699999999,-1.1719360399999998,1.2289428999999998,0.1875,1.3125,-0.625
150,-0.7521972699999999,-1.1790161,1.2382202,0.625,2.5625,-0.046875
151,-0.7434082,-1.1995239,1.2536011,1.484375,1.828125,-0.953125
152,-0.72827148,-1.1746216,1.20721436,0.078125,0.71875,-0.625
153,-0.73803711,-1.17633057,1.21429443,0.546875,0.78125,0.078125
154,-0.76049805,-1.18341064,1.23480225,-0.90625,-1.28125,0.1875
155,-0.76757812,-1.1914673,1.23065186,1.34375,-0.203125,0.109375
156,-0.74243164,-1.19000244,1.22210693,1.125,-0.09375,-0.015625
157,-0.74438477,-1.1838989,1.22576904,0.0625,-0.625,0.40625
158,-0.7626953000000001,-1.19781494,1.2345581,-1.765625,0.140625,-0.078125
159,-0.74804688,-1.1956177,1.243103,-0.53125,0.78125,-0.390625
160,-0.73486328,-1.16778564,1.2120971699999998,-0.140625,1.578125,0.078125
161,-0.73803711,-1.1917114,1.2262573,1.75,2.90625,0.734375
162,-0.73876953,-1.1831665,1.2277221699999998,2.015625,0.90625,1.15625
163,-0.74047852,-1.18707275,1.23236084,0.8125,0.15625,0.796875
164,-0.7319336,-1.1831665,1.2272339,-1.109375,-0.796875,0.34375
165,-0.7277832,-1.177063,1.2243042,-0.296875,-0.9375,0.1875
166,-0.72680664,-1.17681885,1.21795654,0.359375,-1.203125,0.0625
167,-0.74194336,-1.19317627,1.2343139600000002,-0.359375,-0.296875,-0.265625
168,-0.74707031,-1.19195557,1.23480225,-0.609375,-0.5625,-0.4375
169,-0.72436523,-1.1921997,1.2042846699999998,2.0625,2.28125,0.65625
170,-0.74047852,-1.1875610399999998,1.2123412999999998,2.484375,-0.984375,0.546875
171,-0.75439453,-1.19976807,1.244812,-0.375,-1.96875,0.0625
172,-0.74487305,-1.18927,1.2267456,0.484375,-1.28125,0.359375
173,-0.73657227,-1.18707275,1.2199096699999998,-1.21875,-3.15625,-0.296875
174,-0.7421875,-1.206604,1.20721436,-3.671875,-3.296875,-0.59375
175,-0.75390625,-1.2036743,1.2172241,-2.890625,-2.78125,-0.609375
176,-0.7531738299999999,-1.19854736,1.2272339,-5.203125,-2.546875,-0.3125
177,-0.7590332,-1.1958618,1.22943115,-3.484375,-1.65625,0.359375
178,-0.75097656,-1.1567993,1.24432373,-1.6875,-3.453125,0.0
179,-0.74633789,-1.1553345,1.2260132,-5.4375,-2.359375,0.1875
180,-0.74902344,-1.177063,1.2350464,-4.515625,-1.046875,0.0625
181,-0.76831055,-1.1760864,1.27996826,0.609375,2.0625,0.375
182,-0.73144531,-1.1675415,1.22088623,2.5,3.171875,0.515625
183,-0.7421875,-1.1704712000000002,1.227478,0.484375,1.046875,1.296875
184,-0.72802734,-1.1790161,1.24139404,0.109375,0.390625,0.015625
185,-0.73657227,-1.16485596,1.229187,0.046875,-1.46875,0.203125
186,-0.74389648,-1.1629028300000002,1.2055053999999998,-0.1875,-0.71875,0.625
187,-0.76464844,-1.1758423,1.2238159,0.328125,-1.703125,0.015625
188,-0.7648925799999999,-1.18414307,1.24749756,-1.78125,-3.03125,-0.125
189,-0.76586914,-1.1704712000000002,1.23895264,-2.21875,0.375,-0.15625
190,-0.74975586,-1.17510986,1.25408936,-0.625,-1.0,-0.671875
191,-0.74487305,-1.1719360399999998,1.25653076,-0.90625,-0.3125,-0.25
192,-0.7614746,-1.1663208,1.2577514600000002,0.171875,0.515625,-0.171875
193,-0.74609375,-1.1687622,1.25701904,0.515625,1.5625,-0.734375
194,-0.7546386700000001,-1.1646118,1.24432373,0.703125,1.765625,-0.640625
195,-0.7590332,-1.1460571000000002,1.24871826,6.03125,2.8125,-1.328125
196,-0.71435547,-1.131897,1.2333374,5.328125,2.828125,-2.4375
197,-0.70800781,-1.1782837000000002,1.19744873,-0.15625,-0.046875,-1.734375
198,-0.7705078000000001,-1.2131958,1.2694702,-0.375,0.6875,-0.375
199,-0.7600097699999999,-1.2329712000000002,1.2484741,-1.421875,1.375,0.328125
200,-0.75146484,-1.2234497,1.22943115,0.515625,0.265625,3.515625
201,-0.74414062,-1.20758057,1.2033081,2.640625,-0.5,3.921875
202,-0.7163086,-1.1721802,1.2020874,3.65625,-2.03125,2.921875
203,-0.72924805,-1.1602173,1.1808471699999998,5.84375,2.515625,2.1875
204,-0.7336425799999999,-1.15216064,1.21258545,1.3125,-1.53125,-0.84375
205,-0.75,-1.18292236,1.2289428999999998,-3.625,0.15625,-3.140625
206,-0.7529296999999999,-1.2029419,1.24090576,-4.15625,1.1875,-2.734375
207,-0.7648925799999999,-1.1992798,1.26312256,-1.421875,1.140625,-0.875
208,-0.7272949200000001,-1.1951294,1.25653076,0.453125,0.515625,0.1875
209,-0.7233886700000001,-1.20025635,1.2243042,3.25,1.25,0.875
210,-0.7233886700000001,-1.1878052,1.23065186,5.296875,1.125,1.828125
211,-0.7258300799999999,-1.1904907,1.2067261,2.21875,-0.171875,0.6875
212,-0.72460938,-1.19000244,1.20111084,0.296875,-1.078125,0.125
213,-0.7319336,-1.2036743,1.2045287999999998,-1.265625,-0.921875,-0.015625
214,-0.73095703,-1.2017212000000002,1.20770264,-2.34375,-0.25,-0.796875
215,-0.73583984,-1.1939087000000002,1.2008667,-0.328125,1.03125,-0.484375
216,-0.7233886700000001,-1.1968384,1.22161865,0.78125,0.34375,-0.390625
217,-0.72998047,-1.2058716,1.2243042,1.765625,1.25,0.03125
218,-0.7109375,-1.2283325,1.2445678999999998,2.390625,1.671875,0.75
219,-0.74365234,-1.1958618,1.20892334,0.390625,1.34375,1.171875
220,-0.72021484,-1.194397,1.2184448,2.390625,0.828125,4.1875
221,-0.73657227,-1.2005005,1.23846436,-0.65625,-0.28125,2.078125
222,-0.73413086,-1.20928955,1.2194214,-0.390625,0.4375,0.421875
223,-0.70458984,-1.1939087000000002,1.19940186,1.890625,0.84375,-0.359375
224,-0.70581055,-1.21221924,1.1898803999999998,1.828125,1.8125,-1.03125
225,-0.70947266,-1.2070923,1.20355225,2.328125,0.21875,-1.28125
226,-0.70996094,-1.20440674,1.1937866,-0.140625,-0.984375,-1.421875
227,-0.70727539,-1.22613525,1.2040405,-1.953125,-0.671875,-0.859375
228,-0.72167969,-1.22442627,1.21698,-1.984375,-2.59375,-0.28125
229,-0.72753906,-1.21832275,1.21673584,-0.671875,-0.9375,0.390625
230,-0.72998047,-1.2061157,1.211853,1.5,0.296875,0.796875
231,-0.72802734,-1.2127075,1.21258545,0.5,-0.1875,0.875
232,-0.7290039,-1.2085571000000002,1.2079468,0.71875,1.21875,1.0625
233,-0.7084961,-1.2012329,1.19940186,2.34375,0.265625,0.03125
234,-0.7175293,-1.19244385,1.2062378,0.328125,-1.921875,0.0
235,-0.71459961,-1.20098877,1.199646,-1.71875,-2.03125,-0.703125
236,-0.7265625,-1.2300415,1.2289428999999998,-0.6875,-2.65625,-1.359375
237,-0.71264648,-1.21343994,1.2030639600000002,-1.09375,-3.359375,-1.234375
238,-0.7355957,-1.20635986,1.21551514,-1.4375,-3.0,-0.46875
239,-0.74316406,-1.2266235399999998,1.2289428999999998,-2.5625,-3.328125,-1.640625
240,-0.73828125,-1.2197876,1.2123412999999998,-2.046875,-0.84375,-1.15625
241,-0.73657227,-1.2022095,1.2094116,-1.75,-0.890625,-0.578125
242,-0.73950195,-1.2019653300000002,1.20477295,-2.59375,0.21875,-0.375
243,-0.74365234,-1.19244385,1.2045287999999998,-2.21875,0.140625,0.359375
244,-0.73852539,-1.19000244,1.2182007,-2.9375,0.125,0.875
245,-0.72680664,-1.19122314,1.2172241,-1.828125,0.359375,0.453125
246,-0.73071289,-1.1826782,1.2172241,-1.6875,-0.4375,-0.65625
247,-0.73242188,-1.1963501,1.2057495,-1.515625,-0.734375,-1.25
248,-0.73217773,-1.19976807,1.2199096699999998,-0.5625,-0.328125,-0.625
249,-0.73583984,-1.204895,1.21551514,0.21875,0.125,-0.65625
250,-0.7368164,-1.19073486,1.2206421,0.890625,0.296875,-0.421875
251,-0.72949219,-1.1890259,1.2177124,1.46875,-0.078125,-0.28125
252,-0.7397461,-1.19122314,1.2211303999999998,0.8125,-1.8125,-0.265625
253,-0.75024414,-1.1851196000000002,1.2145386,-0.640625,-1.671875,-0.359375
254,-0.73828125,-1.1968384,1.2399292,0.59375,-0.984375,-0.328125
255,-0.7517089800000001,-1.1904907,1.19818115,-1.859375,-0.734375,-0.4375
256,-0.74194336,-1.1946411,1.2223511,0.953125,-0.078125,-0.3125
257,-0.7434082,-1.18414307,1.23065186,0.90625,-1.46875,0.015625
258,-0.73925781,-1.1914673,1.22528076,-0.453125,-0.671875,-0.4375
259,-0.73706055,-1.2041626,1.2213745,1.421875,-0.125,-0.046875
260,-0.73461914,-1.2000122,1.21673584,0.59375,-0.796875,0.09375
261,-0.7429199200000001,-1.20806885,1.2050171,-0.09375,-0.203125,0.265625
262,-0.7492675799999999,-1.2034302,1.20770264,0.375,-0.453125,0.109375
263,-0.7507324200000001,-1.20147705,1.215271,0.171875,-0.28125,0.109375
264,-0.7531738299999999,-1.1975708,1.2094116,-0.9375,-1.09375,-0.15625
265,-0.74853516,-1.19659424,1.2015991,0.078125,-0.09375,-0.109375
266,-0.7453613299999999,-1.20147705,1.21258545,-0.5,-0.25,-0.34375
267,-0.74853516,-1.1987915,1.2206421,-0.640625,0.0,-0.421875
268,-0.74731445,-1.20758057,1.2223511,-1.234375,0.25,-0.578125
269,-0.73608398,-1.18829346,1.19573975,-0.046875,2.40625,-0.328125
270,-0.7241211,-1.18927,1.2030639600000002,3.984375,4.765625,0.65625
271,-0.74853516,-1.20391846,1.2238159,2.71875,1.265625,0.40625
272,-0.74047852,-1.20880127,1.2523803999999998,1.09375,-0.828125,-0.546875
273,-0.72631836,-1.2036743,1.1937866,-0.125,0.953125,0.109375
274,-0.7336425799999999,-1.19732666,1.1923218,1.03125,0.234375,0.59375
275,-0.74804688,-1.2131958,1.22528076,-0.09375,-1.484375,-0.765625
276,-0.73461914,-1.2095337000000002,1.211853,0.09375,1.15625,-0.328125
277,-0.72607422,-1.21173096,1.20599365,0.484375,0.546875,-0.171875
278,-0.73022461,-1.20806885,1.2140503,-0.5,0.96875,-0.28125
279,-0.7319336,-1.2029419,1.2062378,-0.09375,1.140625,-0.28125
280,-0.73071289,-1.19854736,1.2120971699999998,0.5,1.6875,-0.46875
281,-0.72314453,-1.2012329,1.20184326,1.78125,1.4375,0.46875
282,-0.7355957,-1.20269775,1.2140503,-0.3125,-1.59375,0.21875
283,-0.7319336,-1.21173096,1.2098999,-0.3125,-1.09375,-0.0625
284,-0.73266602,-1.21221924,1.2042846699999998,-0.3125,-0.671875,-0.015625
285,-0.73925781,-1.21173096,1.21795654,-1.484375,-0.515625,-0.21875
286,-0.72070312,-1.208313,1.1901245,0.046875,1.703125,-0.25
287,-0.72290039,-1.2061157,1.2106323,1.828125,1.546875,0.0625
288,-0.72509766,-1.21466064,1.2201537999999998,-0.015625,0.78125,-0.359375
289,-0.73071289,-1.21710205,1.19036865,0.015625,2.015625,-0.375
290,-0.7368164,-1.19854736,1.21258545,-0.796875,-0.828125,0.046875
291,-0.71386719,-1.20391846,1.1937866,1.734375,1.734375,0.265625
292,-0.72875977,-1.20880127,1.1935425,1.328125,-0.609375,0.09375
293,-0.7336425799999999,-1.2227173,1.21917725,-1.015625,-1.875,-0.53125
294,-0.72875977,-1.2107544,1.20599365,-0.40625,-0.34375,-0.078125
295,-0.71679688,-1.2139282,1.1959839,-0.671875,-0.390625,-0.25
296,-0.72607422,-1.2127075,1.20965576,-0.265625,-0.671875,0.140625
297,-0.7194824200000001,-1.20880127,1.2030639600000002,-1.234375,0.15625,-0.734375
298,-0.72363281,-1.2136841,1.2177124,0.265625,1.21875,0.109375
299,-0.72509766,-1.2149048,1.2123412999999998,0.609375,-0.1875,-0.296875
300,-0.7331543,-1.19976807,1.2028198,-1.0625,-0.34375,-0.15625
301,-0.72631836,-1.20684814,1.20355225,0.140625,-0.953125,-0.109375
302,-0.7312011700000001,-1.20440674,1.20233154,0.21875,-0.28125,0.140625
303,-0.73046875,-1.2136841,1.2160034,-0.0625,0.15625,-0.15625
304,-0.73657227,-1.2251587000000002,1.20965576,-1.34375,1.34375,-0.671875
305,-0.71459961,-1.21539307,1.2030639600000002,1.21875,3.265625,-0.375
306,-0.71386719,-1.1917114,1.20355225,0.390625,0.171875,-0.078125
307,-0.70922852,-1.2268677,1.2184448,0.015625,1.0625,-0.03125
308,-0.72290039,-1.2041626,1.1950073,-1.421875,-1.625,-0.125
309,-0.73022461,-1.20928955,1.19451904,1.203125,2.390625,0.3125
310,-0.72436523,-1.2107544,1.2267456,1.28125,1.375,0.1875
311,-0.7219238299999999,-1.2022095,1.19573975,-0.265625,0.21875,-0.5
312,-0.6960449200000001,-1.208313,1.2086792,1.15625,-0.5,0.03125
313,-0.71850586,-1.2144165,1.2098999,-0.6875,-1.046875,0.234375
314,-0.71508789,-1.2070923,1.2120971699999998,0.6875,0.171875,0.671875
315,-0.7180175799999999,-1.21832275,1.19989014,-0.828125,0.890625,-0.109375
316,-0.70996094,-1.22320557,1.20648193,1.203125,0.28125,0.015625
317,-0.71508789,-1.2112427,1.2008667,-0.734375,-1.171875,-0.1875
318,-0.71655273,-1.21417236,1.2008667,-0.671875,-1.171875,-0.140625
319,-0.72607422,-1.21221924,1.2094116,-1.34375,-0.046875,-0.046875
320,-0.71606445,-1.21221924,1.1874389600000002,0.578125,0.375,-0.078125
321,-0.71289062,-1.2241821000000002,1.19940186,-0.21875,0.71875,0.296875
322,-0.7194824200000001,-1.2168579,1.1950073,0.375,-0.328125,-0.0625
323,-0.72241211,-1.22613525,1.21746826,-1.265625,0.8125,0.109375
324,-0.72241211,-1.2053833,1.2074585,-1.421875,1.3125,0.640625
325,-0.70117188,-1.2266235399999998,1.23065186,-1.28125,1.671875,0.25
326,-0.7006836,-1.2266235399999998,1.1950073,1.203125,0.859375,0.859375
327,-0.69726562,-1.1958618,1.1947632,-0.96875,-0.359375,1.3125
328,-0.72314453,-1.22247314,1.22088623,-2.859375,-2.625,0.0
329,-0.72045898,-1.2197876,1.2145386,-1.0,-0.75,0.34375
330,-0.70654297,-1.2007446000000002,1.1942749,-0.46875,-0.359375,0.890625
331,-0.69873047,-1.2031860399999998,1.2074585,-0.734375,-0.375,0.03125
332,-0.71508789,-1.19610596,1.20648193,-1.5625,-0.5,-0.359375
333,-0.7199707,-1.208313,1.2238159,-0.9375,-0.640625,-0.5625
334,-0.7180175799999999,-1.2119751,1.22943115,-1.734375,-0.609375,-0.5
335,-0.7219238299999999,-1.1953735399999998,1.21795654,-1.4375,-0.84375,-0.375
336,-0.71679688,-1.2053833,1.21502686,-0.828125,0.25,-0.03125
337,-0.72021484,-1.2156372,1.2206421,-0.046875,0.390625,-0.046875
338,-0.69702148,-1.2036743,1.2172241,1.609375,1.9375,0.125
339,-0.70703125,-1.1980591,1.20477295,0.46875,1.03125,0.328125
340,-0.70727539,-1.20269775,1.22991943,0.390625,0.453125,-0.515625
341,-0.70947266,-1.2090454,1.2123412999999998,-1.25,1.3125,-0.53125
342,-0.70361328,-1.2070923,1.23236084,0.421875,1.71875,-0.828125
343,-0.69824219,-1.2119751,1.1964721699999998,1.59375,4.0,-0.375
344,-0.72631836,-1.21466064,1.2230835,-1.09375,1.5,-0.34375
345,-0.70654297,-1.2500610399999998,1.2391968,-0.4375,0.515625,0.03125
346,-0.72216797,-1.2564087000000002,1.23309326,-2.609375,2.984375,-0.5625
347,-0.69506836,-1.175354,1.1911011,0.40625,2.875,1.296875
348,-0.67529297,-1.15704346,1.20355225,-0.3125,3.0,-0.546875
349,-0.6726074200000001,-1.2078247,1.2116089,-1.25,0.828125,-0.734375
350,-0.67333984,-1.2024536,1.2247925,0.828125,1.1875,-0.71875
351,-0.6875,-1.21051025,1.22454834,0.15625,0.53125,0.15625
352,-0.68164062,-1.1995239,1.21673584,0.671875,-1.46875,0.265625
353,-0.69433594,-1.2202759,1.2186889600000002,-0.625,-1.796875,0.078125
354,-0.6977539,-1.210022,1.2189331,1.078125,-0.875,-0.296875
355,-0.70458984,-1.2246704,1.2243042,0.828125,-0.375,0.734375
356,-0.68530273,-1.2217407,1.20526123,1.140625,1.171875,3.109375
357,-0.66503906,-1.1421509,1.2091675,-3.578125,-1.015625,1.90625
358,-0.69018555,-1.2136841,1.2440796,-4.5625,-1.1875,-0.546875
359,-0.69433594,-1.22491455,1.2665405,-2.453125,0.875,0.53125
360,-0.68481445,-1.2046509,1.20599365,2.9375,-0.546875,0.25
361,-0.67773438,-1.18218994,1.20892334,3.015625,-0.609375,0.90625
362,-0.67993164,-1.21173096,1.21698,1.46875,-2.25,-1.1875
363,-0.6850586,-1.1694946000000002,1.1935425,-1.0,-5.125,-2.6875
364,-0.68969727,-1.18170166,1.21917725,-1.75,-5.015625,-2.546875
365,-0.71655273,-1.2300415,1.2433471699999998,-1.046875,-5.046875,-2.078125
366,-0.70996094,-1.2168579,1.23236084,-0.015625,-1.703125,-0.828125
367,-0.7097168,-1.2149048,1.2445678999999998,-0.890625,-3.21875,-1.0625
368,-0.72924805,-1.21466064,1.23309326,-1.84375,-2.34375,-0.671875
369,-0.7258300799999999,-1.2085571000000002,1.22576904,-2.390625,-1.96875,-1.421875
370,-0.72998047,-1.2000122,1.2189331,-0.671875,-1.03125,-1.03125
371,-0.72143555,-1.1848755,1.20965576,-1.46875,-0.25,-0.421875
372,-0.72265625,-1.1860962000000002,1.2111206,-2.375,-0.21875,-0.625
373,-0.7211914,-1.1914673,1.2194214,-1.203125,-0.953125,-0.734375
374,-0.72070312,-1.19000244,1.2289428999999998,-1.796875,-1.46875,-0.671875
375,-0.72949219,-1.192688,1.2206421,-1.34375,-1.21875,-0.578125
376,-0.72436523,-1.2036743,1.2418823,0.1875,-0.90625,-0.59375
377,-0.71533203,-1.1904907,1.2108764600000002,0.34375,-0.328125,-0.296875
378,-0.73779297,-1.1921997,1.2262573,0.828125,-0.703125,-0.140625
379,-0.73339844,-1.19366455,1.2367553999999998,0.40625,-2.015625,-0.625
380,-0.73486328,-1.1951294,1.23065186,0.546875,-1.65625,0.265625
381,-0.72875977,-1.19317627,1.2247925,0.1875,-1.03125,0.1875
382,-0.72851562,-1.18585205,1.2211303999999998,0.125,-0.84375,0.046875
383,-0.73657227,-1.192688,1.215271,-1.328125,-1.390625,-0.265625
384,-0.73388672,-1.18927,1.2238159,-0.265625,-1.03125,-0.03125
385,-0.7297363299999999,-1.18829346,1.2340698,-0.546875,-1.09375,-0.375
386,-0.73779297,-1.194397,1.22698975,-0.96875,-1.0625,-0.390625
387,-0.73925781,-1.1941528300000002,1.22821045,0.0625,-0.6875,-0.1875
388,-0.73388672,-1.1963501,1.2243042,-0.3125,-0.578125,-0.203125
389,-0.73730469,-1.1995239,1.22283936,-0.125,-0.09375,-0.109375
390,-0.7397461,-1.1934204,1.2350464,0.453125,0.125,-0.0625
391,-0.73413086,-1.17803955,1.2243042,-0.359375,-0.3125,-0.578125
392,-0.72802734,-1.1975708,1.22869873,0.703125,0.46875,-0.40625
393,-0.74633789,-1.1824341,1.2164917,-1.390625,-1.0625,0.0
394,-0.73876953,-1.1873169,1.2189331,0.21875,0.34375,0.3125
395,-0.74267578,-1.19317627,1.23968506,-0.34375,-1.3125,-0.671875
396,-0.74023438,-1.19903564,1.2284546,-1.09375,0.625,-0.71875
397,-0.73266602,-1.1856079,1.21307373,0.171875,0.546875,-0.65625
398,-0.72607422,-1.19610596,1.227478,-0.1875,0.203125,-0.4375
399,-0.73291016,-1.1799927,1.2211303999999998,-0.09375,0.6875,0.15625
400,-0.73852539,-1.18463135,1.2313843,0.453125,0.1875,0.015625
401,-0.73876953,-1.18463135,1.2255249,0.109375,0.484375,0.0625
402,-0.73339844,-1.19659424,1.229187,0.21875,0.390625,-0.046875
403,-0.73706055,-1.1934204,1.2211303999999998,-0.4375,0.3125,-0.125
404,-0.72949219,-1.1983032,1.230896,-1.125,0.1875,-0.453125
405,-0.73046875,-1.18536377,1.2235718,-0.625,1.0,-0.53125
406,-0.72827148,-1.1802368,1.2235718,1.0625,0.96875,-0.25
407,-0.73828125,-1.1890259,1.2277221699999998,0.3125,-0.921875,0.234375
408,-0.75097656,-1.194397,1.232605,-0.015625,-1.34375,0.3125
409,-0.74072266,-1.20391846,1.2536011,0.171875,-0.59375,0.15625
410,-0.7265625,-1.1797485399999998,1.2067261,0.21875,0.765625,0.40625
411,-0.72851562,-1.1934204,1.20648193,0.015625,0.53125,0.203125
412,-0.7434082,-1.2012329,1.2428589,-0.4375,-0.875,-1.0
413,-0.73339844,-1.1868286,1.2265014600000002,0.234375,1.265625,-0.9375
414,-0.71313477,-1.1917114,1.2194214,1.203125,0.75,-0.0625
415,-0.7390136700000001,-1.20147705,1.2213745,0.46875,-0.328125,-0.046875
416,-0.7253418,-1.19073486,1.2255249,1.703125,-1.515625,0.3125
417,-0.7319336,-1.19488525,1.22943115,-0.34375,-1.484375,0.75
418,-0.74047852,-1.1917114,1.2120971699999998,-1.296875,-0.765625,0.265625
419,-0.73583984,-1.1880493,1.2186889600000002,0.4375,-0.328125,-0.078125
420,-0.7355957,-1.1980591,1.2206421,-0.15625,-0.171875,-0.4375
421,-0.73999023,-1.206604,1.2194214,0.1875,0.3125,-0.75
422,-0.72045898,-1.18707275,1.2081909,0.234375,0.578125,-0.609375
423,-0.73071289,-1.19976807,1.22088623,0.265625,0.515625,0.3125
424,-0.73168945,-1.19244385,1.2238159,0.671875,0.203125,-0.1875
425,-0.74389648,-1.1963501,1.2196655,0.5,-0.4375,-0.125
426,-0.73706055,-1.2019653300000002,1.2164917,0.359375,-0.03125,-0.015625
427,-0.72705078,-1.2102661,1.2301636,1.265625,0.578125,0.328125
428,-0.72924805,-1.194397,1.2045287999999998,-1.015625,0.09375,0.078125
429,-0.7336425799999999,-1.1951294,1.21551514,0.421875,0.3125,0.046875
430,-0.734375,-1.1975708,1.22528076,-0.640625,-1.671875,-0.640625
431,-0.74365234,-1.19659424,1.2265014600000002,-1.046875,-1.296875,-0.9375
432,-0.72680664,-1.1980591,1.23065186,-1.4375,-0.9375,-0.28125
433,-0.7375488299999999,-1.1951294,1.22698975,-1.21875,-0.671875,-0.546875
434,-0.73144531,-1.194397,1.23236084,-2.125,-0.765625,-0.171875
435,-0.7253418,-1.1951294,1.2235718,-1.390625,-0.359375,0.03125
436,-0.7397461,-1.1904907,1.2304077,-2.75,0.71875,-0.25
437,-0.74707031,-1.19366455,1.2355346699999998,-2.9375,1.015625,-0.5625
438,-0.734375,-1.17926025,1.21795654,-2.3125,1.109375,-0.296875
439,-0.72680664,-1.1799927,1.2106323,-2.03125,-0.421875,-0.453125
440,-0.72705078,-1.18707275,1.2206421,-1.234375,-0.546875,-0.484375
441,-0.72241211,-1.19976807,1.21307373,-0.75,0.3125,-0.828125
442,-0.734375,-1.19659424,1.20770264,4.046875,0.421875,-1.234375
443,-0.73535156,-1.18414307,1.25408936,4.140625,-1.953125,-0.390625
444,-0.72851562,-1.1616821000000002,1.22528076,1.5625,-1.671875,-0.09375
445,-0.7512207,-1.20391846,1.2094116,-2.109375,-2.46875,-1.4375
446,-0.7548828000000001,-1.1992798,1.2196655,1.03125,-2.03125,0.03125
447,-0.74511719,-1.1856079,1.21795654,0.90625,0.203125,0.8125
448,-0.7517089800000001,-1.18927,1.2177124,-0.671875,-1.078125,-0.265625
449,-0.74243164,-1.1897583,1.24090576,-0.046875,-1.3125,-0.921875
450,-0.73706055,-1.19073486,1.2225952,0.671875,0.234375,0.078125
451,-0.7446289,-1.18707275,1.22454834,-0.640625,-1.65625,0.203125
452,-0.73779297,-1.19976807,1.2333374,-0.75,-1.953125,-0.015625
453,-0.74853516,-1.1946411,1.2186889600000002,-1.1875,-0.90625,-0.25
454,-0.75683594,-1.1897583,1.2199096699999998,-0.703125,0.390625,0.015625
455,-0.75195312,-1.1885376,1.22406006,0.046875,-0.25,-0.328125
456,-0.73632812,-1.1875610399999998,1.2172241,-1.9375,-2.0625,-0.875
457,-0.74560547,-1.19317627,1.2238159,0.453125,-0.125,-1.140625
458,-0.75927734,-1.18341064,1.21502686,-0.3125,-0.1875,-0.828125
459,-0.76220703,-1.1956177,1.2218628,-0.265625,0.015625,-0.125
460,-0.75634766,-1.1799927,1.2243042,-1.296875,-0.75,0.09375
461,-0.7546386700000001,-1.1814575,1.2279662999999998,-0.4375,-0.734375,-0.296875
462,-0.75024414,-1.1860962000000002,1.2172241,0.0,0.15625,0.015625
463,-0.75634766,-1.1934204,1.23114014,0.515625,0.859375,0.328125
464,-0.7541504,-1.1941528300000002,1.2213745,-1.578125,0.484375,-0.15625
465,-0.75195312,-1.18341064,1.2160034,0.703125,1.765625,0.078125
466,-0.7507324200000001,-1.18536377,1.227478,1.484375,-0.25,-0.140625
467,-0.7475586,-1.1890259,1.2225952,0.4375,-0.65625,-0.078125
468,-0.7492675799999999,-1.1929321000000002,1.2211303999999998,-0.328125,-0.234375,-0.0625
469,-0.74609375,-1.1914673,1.21917725,-0.421875,0.0625,0.09375
470,-0.7536621,-1.1929321000000002,1.2313843,0.109375,0.4375,0.171875
471,-0.7487793,-1.1939087000000002,1.2189331,-0.3125,0.890625,-0.375
472,-0.73999023,-1.1914673,1.2194214,-0.09375,1.375,-0.171875
473,-0.74414062,-1.1860962000000002,1.2321167,0.390625,0.25,-0.25
474,-0.7531738299999999,-1.1860962000000002,1.22332764,-0.4375,0.0625,0.09375
475,-0.74804688,-1.1890259,1.22528076,-0.671875,-0.078125,-0.25
476,-0.74438477,-1.1826782,1.21673584,0.0625,0.3125,-0.109375
477,-0.7468261700000001,-1.1885376,1.2301636,0.0,0.40625,-0.015625
478,-0.74438477,-1.1863403300000002,1.22943115,0.484375,1.734375,0.015625
479,-0.74780273,-1.1785278300000002,1.2160034,-1.0,0.109375,-0.484375
480,-0.74047852,-1.1856079,1.22161865,-0.140625,1.0625,-0.21875
481,-0.75097656,-1.18341064,1.2421264600000002,-1.203125,0.3125,-0.34375
482,-0.73657227,-1.1951294,1.2194214,1.140625,2.5,0.078125
483,-0.7336425799999999,-1.1860962000000002,1.196228,0.921875,0.75,-0.359375
484,-0.74243164,-1.1995239,1.22943115,-0.421875,-0.8125,-0.328125
485,-0.74609375,-1.1963501,1.2352905,-0.328125,0.890625,-0.171875
486,-0.73803711,-1.19610596,1.2177124,0.421875,1.28125,-0.203125
487,-0.73461914,-1.1878052,1.21624756,0.28125,0.828125,-0.203125
488,-0.74121094,-1.1880493,1.211853,-0.015625,1.203125,-0.328125
489,-0.7355957,-1.1939087000000002,1.23114014,0.359375,0.40625,-0.296875
490,-0.72851562,-1.19244385,1.2196655,0.359375,0.484375,0.1875
491,-0.74487305,-1.1819458,1.2265014600000002,-1.03125,-0.640625,-0.03125
492,-0.73779297,-1.2034302,1.2350464,0.5625,0.34375,0.125
493,-0.72680664,-1.17559814,1.22161865,1.171875,-0.671875,0.234375
494,-0.7219238299999999,-1.192688,1.2098999,0.59375,-0.921875,0.109375
495,-0.74047852,-1.1941528300000002,1.21624756,1.34375,-1.296875,-0.078125
496,-0.7524413999999999,-1.1983032,1.2284546,-0.078125,-0.484375,0.03125
497,-0.73779297,-1.1987915,1.21746826,0.328125,1.171875,-0.375
498,-0.72216797,-1.2109985399999998,1.229187,1.703125,1.5,-0.0625
499,-0.72924805,-1.19122314,1.2057495,-0.5,0.125,-0.28125
500,-0.73413086,-1.1951294,1.2120971699999998,1.28125,0.9375,0.359375
501,-0.73632812,-1.19976807,1.2279662999999998,0.609375,-1.0625,-0.59375
502,-0.73950195,-1.1975708,1.2157593,0.46875,1.015625,-0.21875
503,-0.73291016,-1.2024536,1.2074585,0.546875,0.703125,-0.125
504,-0.71606445,-1.2078247,1.2211303999999998,1.1875,0.046875,0.015625
505,-0.72924805,-1.1953735399999998,1.2123412999999998,-0.265625,-0.046875,-0.203125
506,-0.73339844,-1.20880127,1.22161865,0.328125,0.375,-0.3125
507,-0.73413086,-1.1921997,1.21673584,0.375,-0.34375,0.0
508,-0.73779297,-1.1929321000000002,1.2120971699999998,-0.9375,-0.6875,0.0
509,-0.734375,-1.21588135,1.2160034,-0.328125,-0.4375,-0.390625
510,-0.73608398,-1.2005005,1.2040405,0.109375,1.203125,-0.265625
511,-0.71826172,-1.2019653300000002,1.20721436,-0.34375,2.0625,-0.28125
512,-0.71533203,-1.2000122,1.2003784,1.3125,1.59375,-0.515625
513,-0.72436523,-1.1987915,1.22991943,0.96875,-2.015625,-0.484375
514,-0.73876953,-1.21417236,1.21624756,1.125,1.078125,-0.390625
515,-0.7241211,-1.206604,1.20892334,1.953125,1.921875,-0.359375
516,-0.7331543,-1.1941528300000002,1.1967162999999998,-1.125,-1.265625,0.171875
517,-0.71679688,-1.20391846,1.2098999,1.6875,1.734375,0.65625
518,-0.72363281,-1.2114868,1.2128296,0.53125,-0.453125,-0.53125
519,-0.7277832,-1.20758057,1.2040405,0.359375,0.0625,-0.90625
520,-0.72167969,-1.21295166,1.2033081,0.796875,1.3125,0.109375
521,-0.71289062,-1.2114868,1.20233154,2.078125,0.578125,-0.328125
522,-0.70507812,-1.20440674,1.21136475,1.375,-1.03125,-0.234375
523,-0.72167969,-1.22125244,1.21917725,1.203125,-0.453125,0.125
524,-0.73046875,-1.22198486,1.21429443,-0.25,-0.6875,-0.125
525,-0.73339844,-1.2163696000000002,1.1906128,-0.5,0.609375,-0.53125
526,-0.73461914,-1.225647,1.1976928999999998,0.703125,1.0,-0.53125
527,-0.7233886700000001,-1.22247314,1.197937,0.765625,1.484375,0.03125
528,-0.71777344,-1.21539307,1.1889037999999998,-0.640625,1.453125,0.140625
529,-0.70898438,-1.2168579,1.18499756,-0.015625,1.046875,0.140625
530,-0.7175293,-1.2263794,1.21258545,0.65625,0.046875,-0.296875
531,-0.72485352,-1.2007446000000002,1.1984253,-2.265625,-1.171875,-0.296875
532,-0.7241211,-1.2190552,1.1918335,-0.421875,0.015625,-0.34375
533,-0.7331543,-1.222229,1.2201537999999998,-3.546875,-1.671875,-0.140625
534,-0.7116699200000001,-1.21051025,1.1828003,0.71875,3.015625,0.0625
535,-0.72167969,-1.21343994,1.2128296,-0.140625,-0.40625,0.21875
536,-0.73461914,-1.2217407,1.21258545,-1.625,1.171875,-0.21875
537,-0.69946289,-1.2168579,1.20184326,0.96875,2.203125,0.8125
538,-0.70751953,-1.2073364,1.21258545,-0.46875,-1.015625,0.796875
539,-0.70703125,-1.21173096,1.20721436,-0.890625,-1.140625,0.765625
540,-0.7368164,-1.26153564,1.2040405,-2.265625,0.90625,1.015625
541,-0.69677734,-1.20635986,1.229187,-3.90625,1.59375,2.546875
542,-0.7019043,-1.15997314,1.2030639600000002,0.125,-0.125,0.8125
543,-0.7109375,-1.2131958,1.2177124,-1.0625,0.03125,0.375
544,-0.6984863299999999,-1.21295166,1.2111206,1.046875,-0.875,0.09375
545,-0.70654297,-1.2234497,1.2199096699999998,-0.234375,-0.703125,-0.09375
546,-0.71484375,-1.21295166,1.21746826,-1.1875,0.5625,-0.09375
547,-0.7055664,-1.2163696000000002,1.2081909,-0.625,1.953125,-0.28125
548,-0.68920898,-1.1836548,1.2030639600000002,0.375,0.65625,0.0
549,-0.70458984,-1.2097778300000002,1.21502686,-0.28125,0.046875,-0.09375
550,-0.6965332,-1.2041626,1.2387085,-2.703125,-1.40625,-0.15625
551,-0.7055664,-1.2114868,1.1964721699999998,0.765625,1.375,1.359375
552,-0.69628906,-1.19659424,1.2033081,-0.6875,0.46875,0.65625
553,-0.71582031,-1.2266235399999998,1.22528076,-1.171875,-0.1875,-0.3125
554,-0.69873047,-1.2109985399999998,1.21258545,-0.65625,0.859375,-0.421875
555,-0.68530273,-1.19781494,1.2050171,-1.0625,-1.171875,0.5
556,-0.70043945,-1.2061157,1.2333374,-2.0625,-3.953125,2.078125
557,-0.70458984,-1.22198486,1.22283936,-2.5,-2.25,1.765625
558,-0.69750977,-1.1885376,1.21746826,-2.40625,-2.453125,0.359375
559,-0.69311523,-1.1914673,1.2184448,-2.453125,-0.71875,-0.609375
560,-0.6906738299999999,-1.1836548,1.22332764,0.0,-2.6875,-0.828125
561,-0.69873047,-1.18341064,1.2255249,2.578125,-3.421875,-0.59375
562,-0.71728516,-1.1875610399999998,1.2133178999999998,-2.0,-4.75,-1.9375
563,-0.72021484,-1.22003174,1.24432373,-0.59375,-3.359375,-2.46875
564,-0.72851562,-1.19366455,1.23114014,-4.265625,-5.078125,-0.65625
565,-0.71972656,-1.19244385,1.22943115,-5.0625,-3.796875,-1.453125
566,-0.73779297,-1.1885376,1.24139404,-4.203125,-2.6875,-1.171875
567,-0.7434082,-1.2019653300000002,1.24505615,-3.546875,-0.546875,-1.125
568,-0.73413086,-1.1748657,1.22576904,-1.65625,-0.734375,-0.59375
569,-0.74194336,-1.177063,1.2328491,-1.203125,1.078125,0.171875
570,-0.7492675799999999,-1.173645,1.2453003,-2.34375,-0.234375,-0.90625
571,-0.73046875,-1.1890259,1.21746826,-2.21875,-0.34375,-1.09375
572,-0.73022461,-1.1790161,1.2223511,-1.515625,-1.09375,-0.765625
573,-0.73291016,-1.1838989,1.2374878,-1.21875,0.25,-0.25
574,-0.74072266,-1.1748657,1.2199096699999998,-1.640625,0.625,-0.578125
575,-0.74267578,-1.1807251,1.2523803999999998,0.671875,0.953125,-0.421875
576,-0.73144531,-1.16485596,1.22698975,1.0625,1.671875,-0.265625
577,-0.72387695,-1.1646118,1.2343139600000002,-1.125,-1.484375,-0.46875
578,-0.7409668,-1.17266846,1.2489624,-1.578125,-1.34375,-0.578125
579,-0.7368164,-1.1643677,1.2509155,0.046875,-1.984375,-0.234375
580,-0.74194336,-1.1629028300000002,1.2499389600000002,-1.953125,-2.1875,-0.1875
581,-0.7355957,-1.1626587000000002,1.24383545,0.125,-0.796875,-0.125
582,-0.75195312,-1.1577759,1.2440796,1.03125,-2.4375,0.0625
583,-0.74169922,-1.18292236,1.2445678999999998,0.046875,-0.078125,-0.78125
584,-0.74731445,-1.17144775,1.24749756,-0.328125,-0.484375,-0.203125
585,-0.7434082,-1.17681885,1.2518921,0.296875,0.390625,-0.015625
586,-0.72949219,-1.15948486,1.23065186,1.71875,-0.890625,-0.609375
587,-0.74804688,-1.16778564,1.2296753,1.421875,-2.296875,-0.296875
588,-0.7609863299999999,-1.1983032,1.2501831,0.28125,-1.46875,-0.375
589,-0.75756836,-1.1802368,1.2445678999999998,-0.546875,-0.296875,-0.1875
590,-0.7409668,-1.1719360399999998,1.2194214,0.0,1.65625,0.03125
591,-0.74658203,-1.1716919,1.23236084,0.546875,0.953125,-0.28125
592,-0.7446289,-1.1729126,1.2460327,0.625,0.53125,-0.0625
593,-0.73583984,-1.1719360399999998,1.23236084,-0.9375,-0.234375,-0.109375
594,-0.74414062,-1.18218994,1.2423706,0.234375,-0.875,-0.1875
595,-0.7561035199999999,-1.1707153300000002,1.24261475,-0.28125,-0.71875,0.109375
596,-0.75732422,-1.17559814,1.23724365,-0.640625,0.34375,-0.171875
597,-0.7409668,-1.1746216,1.23773193,0.53125,0.984375,-0.296875
598,-0.7397461,-1.1782837000000002,1.2421264600000002,0.734375,0.421875,-0.34375
599,-0.75341797,-1.177063,1.23358154,-1.59375,0.5625,-0.40625
600,-0.7331543,-1.1860962000000002,1.2404175,1.96875,3.515625,-0.140625
601,-0.75512695,-1.18292236,1.23846436,-1.328125,0.96875,-0.390625
602,-0.73144531,-1.1682739,1.2328491,1.53125,2.578125,-0.3125
603,-0.74072266,-1.1746216,1.2316284,0.15625,-0.703125,-0.484375
604,-0.73852539,-1.18463135,1.2518921,0.171875,-0.734375,-0.421875
605,-0.7390136700000001,-1.17803955,1.2357787999999998,-0.171875,-0.3125,-0.125
606,-0.73706055,-1.17559814,1.2343139600000002,0.125,0.203125,0.234375
607,-0.72924805,-1.17266846,1.2428589,0.296875,0.40625,-0.046875
608,-0.73291016,-1.17559814,1.2367553999999998,0.53125,0.359375,-0.34375
609,-0.7319336,-1.18096924,1.2255249,0.28125,0.4375,0.046875
610,-0.73291016,-1.18218994,1.2404175,-0.078125,-0.140625,-0.1875
611,-0.74584961,-1.1790161,1.2262573,-0.359375,0.203125,0.140625
612,-0.72998047,-1.1863403300000002,1.2279662999999998,0.609375,1.015625,-0.140625
613,-0.72851562,-1.18463135,1.2316284,1.4375,0.421875,0.125
614,-0.73046875,-1.1848755,1.23065186,0.140625,0.0625,0.125
615,-0.72875977,-1.1856079,1.2362671,0.484375,-0.171875,0.109375
616,-0.73779297,-1.18218994,1.2357787999999998,-0.34375,-0.21875,-0.109375
617,-0.73486328,-1.1838989,1.2265014600000002,-0.671875,1.25,-0.1875
618,-0.72094727,-1.1790161,1.2120971699999998,1.03125,1.984375,0.390625
619,-0.7102050799999999,-1.15753174,1.2338257,4.640625,0.671875,2.125
620,-0.73486328,-1.1860962000000002,1.2338257,-0.8125,-2.296875,0.234375
621,-0.74975586,-1.21954346,1.2338257,1.125,0.546875,-0.484375
622,-0.7253418,-1.2156372,1.2243042,3.421875,2.265625,-0.15625
623,-0.71899414,-1.1875610399999998,1.211853,3.453125,2.578125,1.0
624,-0.72460938,-1.19073486,1.22943115,-1.265625,0.34375,0.078125
625,-0.72314453,-1.2029419,1.2145386,-1.125,1.359375,-0.21875
626,-0.70898438,-1.20025635,1.2211303999999998,-0.171875,0.453125,0.4375
627,-0.7175293,-1.1951294,1.23968506,0.03125,-1.28125,-0.1875
628,-0.7180175799999999,-1.18463135,1.22161865,-2.5,-2.515625,-0.671875
629,-0.71972656,-1.1929321000000002,1.21624756,-1.609375,-0.5,-0.59375
630,-0.71582031,-1.18951416,1.23602295,1.765625,-0.625,-0.6875
631,-0.7233886700000001,-1.18951416,1.22454834,0.09375,-1.671875,-0.3125
632,-0.72998047,-1.2046509,1.2272339,-2.15625,-2.953125,-1.203125
633,-0.74316406,-1.1773071000000002,1.2108764600000002,-2.203125,-2.3125,-0.21875
634,-0.7492675799999999,-1.18048096,1.22528076,-4.25,-1.75,-0.171875
635,-0.74121094,-1.1992798,1.25042725,-2.90625,-1.34375,-0.71875
636,-0.72265625,-1.1934204,1.2225952,-2.03125,-0.21875,-1.09375
637,-0.73095703,-1.1878052,1.24627686,-2.875,-2.171875,-1.125
638,-0.75390625,-1.19195557,1.2719116,-3.734375,-2.390625,-1.796875
639,-0.73486328,-1.1836548,1.2411499,-2.6875,0.34375,-1.484375
640,-0.73608398,-1.16607666,1.2404175,-1.40625,0.390625,-0.25
641,-0.7375488299999999,-1.15216064,1.2352905,-0.34375,0.46875,0.5
642,-0.7355957,-1.1572876,1.2411499,-1.78125,0.53125,-0.015625
643,-0.72998047,-1.1621704,1.2362671,-0.296875,0.234375,-0.15625
644,-0.73925781,-1.1724243,1.2328491,-0.625,-1.34375,-0.90625
645,-0.74023438,-1.1668091,1.2406616,-1.703125,-1.53125,-0.828125
646,-0.74560547,-1.1765747,1.2321167,-1.0625,-1.21875,-0.640625
647,-0.7368164,-1.17266846,1.2172241,-0.15625,-1.15625,-0.84375
648,-0.74731445,-1.17022705,1.2343139600000002,2.359375,-2.0,-0.453125
649,-0.75585938,-1.1790161,1.2626343,1.28125,-3.78125,-0.765625
650,-0.7553711000000001,-1.1724243,1.244812,-1.25,0.375,-0.140625
651,-0.7507324200000001,-1.1704712000000002,1.25823975,-1.078125,0.0,-0.765625
652,-0.74609375,-1.1629028300000002,1.21380615,-1.0625,-0.59375,0.0625
653,-0.74194336,-1.15753174,1.2279662999999998,1.28125,-2.09375,0.59375
654,-0.76904297,-1.16729736,1.2575073,0.015625,-4.234375,-0.296875
655,-0.77148438,-1.16900635,1.2470093,-1.34375,-1.078125,-0.1875
656,-0.75268555,-1.1655884,1.2374878,-1.0,-1.65625,-0.171875
657,-0.7619629,-1.1641235399999998,1.24823,-1.6875,-2.0625,-0.109375
658,-0.77856445,-1.15411377,1.2538452,0.28125,-0.84375,-0.078125
659,-0.7634277300000001,-1.1680298,1.2477417,1.3125,0.359375,0.421875
660,-0.75,-1.1633911,1.23236084,1.625,0.5625,0.359375
661,-0.74609375,-1.1675415,1.23480225,-0.609375,-1.125,0.125
662,-0.7639160199999999,-1.1641235399999998,1.2362671,-0.234375,-1.5625,-0.046875
663,-0.7673339800000001,-1.1668091,1.23724365,-0.765625,-1.34375,-0.40625
664,-0.765625,-1.1655884,1.23602295,0.375,0.21875,-0.234375
665,-0.7634277300000001,-1.16656494,1.2340698,-0.171875,-0.34375,-0.125
666,-0.7648925799999999,-1.1785278300000002,1.2367553999999998,0.125,0.3125,0.21875
667,-0.7565918,-1.17388916,1.2589721699999998,1.1875,-0.109375,-0.078125
668,-0.75683594,-1.1641235399999998,1.2304077,-0.546875,0.21875,-0.015625
669,-0.75732422,-1.1704712000000002,1.21746826,1.015625,0.53125,-0.046875
670,-0.7673339800000001,-1.1716919,1.2531128,1.609375,-1.234375,-0.234375
671,-0.76293945,-1.1555786,1.2262573,-0.046875,0.328125,0.046875
672,-0.76757812,-1.1799927,1.2313843,0.390625,-0.125,-0.03125
673,-0.75683594,-1.1831665,1.24383545,1.46875,-0.015625,-0.0625
674,-0.7590332,-1.1694946000000002,1.22454834,0.15625,0.640625,0.015625
675,-0.7541504,-1.1773071000000002,1.2247925,1.234375,-0.0625,-0.046875
676,-0.76220703,-1.18536377,1.2379761,2.703125,0.828125,0.546875
677,-0.75976562,-1.17144775,1.2301636,3.796875,1.1875,0.359375
678,-0.75878906,-1.1663208,1.2025757,5.125,1.046875,0.0625
679,-0.7570800799999999,-1.2095337000000002,1.227478,5.796875,1.125,0.59375
680,-0.7507324200000001,-1.2041626,1.20526123,5.9375,2.96875,0.796875
681,-0.7529296999999999,-1.208313,1.2160034,2.234375,1.59375,0.265625
682,-0.74633789,-1.2090454,1.2055053999999998,0.65625,0.96875,-1.421875
683,-0.74121094,-1.1951294,1.2120971699999998,-0.875,-0.4375,-0.390625
684,-0.74487305,-1.1975708,1.20965576,0.34375,0.5,0.234375
685,-0.74365234,-1.2012329,1.20843506,1.015625,-0.5,0.125
686,-0.75512695,-1.2007446000000002,1.2025757,-0.4375,-1.125,-0.421875
687,-0.74584961,-1.2151489,1.2020874,0.40625,-0.15625,-0.15625
688,-0.74658203,-1.21343994,1.20233154,0.40625,-0.828125,0.03125
689,-0.74169922,-1.19732666,1.2123412999999998,-0.1875,-0.578125,-0.015625
690,-0.75683594,-1.2112427,1.20599365,-1.03125,-0.078125,-0.203125
691,-0.74829102,-1.20562744,1.2164917,-0.625,-0.5625,-0.03125
692,-0.74804688,-1.2000122,1.2081909,-0.796875,0.015625,-0.140625
693,-0.74707031,-1.1968384,1.1989136,-0.234375,0.046875,-0.3125
694,-0.74853516,-1.2139282,1.2098999,0.203125,-0.171875,-0.375
695,-0.7475586,-1.2007446000000002,1.2067261,-0.5625,-0.546875,0.015625
696,-0.75146484,-1.2070923,1.19989014,-0.09375,0.40625,0.234375
697,-0.74487305,-1.20025635,1.20526123,0.609375,0.015625,-0.234375
698,-0.7521972699999999,-1.2046509,1.2091675,0.5625,0.875,-0.015625
699,-0.7475586,-1.2131958,1.2379761,0.03125,-0.484375,-0.5
700,-0.74267578,-1.20440674,1.19403076,-2.359375,0.765625,-0.859375
701,-0.74902344,-1.19000244,1.1913452,-0.03125,2.46875,0.0625
702,-0.74658203,-1.19366455,1.20770264,1.328125,0.625,-0.296875
703,-0.73486328,-1.2107544,1.2145386,1.671875,0.578125,-0.109375
704,-0.7355957,-1.21466064,1.2194214,-0.21875,-0.6875,0.109375
705,-0.75976562,-1.2102661,1.20233154,-1.40625,-0.640625,-0.625
706,-0.7565918,-1.2031860399999998,1.1845093,0.453125,2.078125,1.078125
707,-0.73876953,-1.2097778300000002,1.21624756,0.578125,0.25,0.78125
708,-0.74194336,-1.19610596,1.2074585,-0.890625,1.421875,0.359375
709,-0.73632812,-1.1975708,1.1984253,-0.234375,0.703125,-0.234375
710,-0.74072266,-1.2175903300000002,1.2062378,-0.15625,0.78125,-0.375
711,-0.734375,-1.22125244,1.21502686,0.4375,0.609375,-0.765625
712,-0.72265625,-1.210022,1.201355,0.265625,-0.109375,-0.328125
713,-0.73535156,-1.2024536,1.2116089,-0.484375,-0.953125,-0.015625
714,-0.7507324200000001,-1.1917114,1.2120971699999998,-1.0625,-1.3125,0.40625
715,-0.72753906,-1.20562744,1.2042846699999998,0.359375,0.4375,-0.203125
716,-0.73168945,-1.21343994,1.20184326,1.234375,0.390625,-0.296875
717,-0.73291016,-1.22003174,1.211853,-0.4375,0.0625,-0.34375
718,-0.74560547,-1.2053833,1.19158936,0.125,-0.71875,0.125
719,-0.75268555,-1.21343994,1.22332764,-0.9375,-1.921875,-1.03125
720,-0.74316406,-1.2058716,1.1984253,-0.46875,0.5625,-0.109375
721,-0.74243164,-1.2085571000000002,1.2020874,0.0,-0.0625,0.40625
722,-0.73266602,-1.2061157,1.213562,0.734375,0.265625,0.078125
723,-0.7390136700000001,-1.20806885,1.2133178999999998,-0.328125,0.265625,0.109375
724,-0.73852539,-1.2175903300000002,1.20892334,-0.390625,0.171875,-0.203125
725,-0.74731445,-1.20635986,1.21624756,-2.640625,-0.375,-0.40625
726,-0.72851562,-1.19000244,1.2074585,-2.984375,-0.34375,-0.890625
727,-0.73168945,-1.2000122,1.21380615,-2.09375,0.6875,-0.703125
728,-0.74267578,-1.21051025,1.2238159,-3.4375,4.125,-1.1875
729,-0.68652344,-1.2498169,1.1864624,7.96875,15.359375,5.234375
730,-0.71435547,-1.1824341,1.2067261,1.6875,6.015625,1.4375
731,-0.7121582,-1.1773071000000002,1.2304077,5.328125,-2.484375,0.03125
732,-0.70703125,-1.2102661,1.213562,-1.734375,-0.28125,1.671875
733,-0.72680664,-1.2349243,1.2062378,-0.40625,-3.40625,-1.21875
734,-0.71533203,-1.2109985399999998,1.21917725,0.484375,-2.328125,-0.09375
735,-0.72363281,-1.2131958,1.19573975,-0.921875,0.09375,0.53125
736,-0.7121582,-1.2029419,1.2015991,1.203125,-1.640625,0.0
737,-0.72436523,-1.21710205,1.2189331,-0.265625,-1.5625,-0.265625
738,-0.7163086,-1.21588135,1.2103882,-1.265625,0.53125,-0.546875
739,-0.69116211,-1.2151489,1.2103882,0.359375,0.84375,-0.21875
740,-0.69946289,-1.2012329,1.2042846699999998,0.171875,-1.1875,-0.28125
741,-0.71533203,-1.2053833,1.1989136,-1.03125,-0.515625,-0.171875
742,-0.72607422,-1.20806885,1.2177124,-0.078125,-1.015625,-0.171875
743,-0.7319336,-1.21221924,1.2160034,-0.34375,0.375,-0.140625
744,-0.72509766,-1.20758057,1.1950073,-0.203125,0.703125,-0.421875
745,-0.7141113299999999,-1.22247314,1.1947632,0.5,1.046875,-0.34375
746,-0.71606445,-1.21832275,1.21258545,0.265625,-1.40625,-0.828125
747,-0.71289062,-1.2227173,1.1925659,0.0625,1.5625,-0.78125
748,-0.71826172,-1.2036743,1.2177124,-1.1875,0.34375,-0.734375
749,-0.72021484,-1.2078247,1.20526123,0.265625,1.1875,-0.109375
750,-0.7163086,-1.21173096,1.2103882,-1.1875,0.96875,-0.765625
751,-0.7199707,-1.2112427,1.2062378,-1.203125,1.578125,-0.53125
752,-0.72021484,-1.2124634,1.2296753,-0.390625,0.3125,-0.421875
753,-0.70898438,-1.21588135,1.199646,0.109375,2.15625,-0.34375
754,-0.7155761700000001,-1.1995239,1.1989136,1.734375,0.71875,-0.40625
755,-0.7211914,-1.2102661,1.22943115,0.765625,-2.234375,-0.125
756,-0.72143555,-1.2161255,1.19866943,-1.109375,-0.546875,0.09375
757,-0.70947266,-1.2124634,1.20184326,1.640625,0.5625,0.0625
758,-0.70751953,-1.2149048,1.1989136,2.1875,0.6875,1.515625
759,-0.7121582,-1.20391846,1.2001343,1.640625,-0.921875,-0.703125
