sample_no,accel_x,accel_y,accel_z,gyro_x,gyro_y,gyro_z
0,-0.6081543,0.031188965,-0.7876587,-0.078125,-2.15625,0.15625
1,-0.60717773,0.03704834,-0.77545166,0.859375,-2.484375,0.109375
2,-0.61206055,0.04046631,-0.7966919,1.015625,-2.890625,0.28125
3,-0.60180664,0.03363037,-0.80010986,0.609375,-2.265625,0.125
4,-0.61035156,0.039001465,-0.79815674,0.09375,-0.796875,-0.109375
5,-0.6062012,0.03704834,-0.8115845,-0.609375,-1.4375,-0.125
6,-0.6081543,0.042419434,-0.7786255,0.03125,-0.734375,-0.109375
7,-0.60595703,0.030212402,-0.7954712,-0.375,-1.265625,0.234375
8,-0.6105957,0.03314209,-0.78692627,-0.5625,-1.125,0.234375
9,-0.60180664,0.039978027,-0.78253174,0.125,-1.296875,-0.0625
10,-0.60961914,0.03753662,-0.78375244,0.625,-1.171875,-0.15625
11,-0.6015625,0.03656006,-0.7871704,0.515625,-1.1875,-0.03125
12,-0.6047363,0.034851074,-0.78863525,-0.03125,-1.046875,0.15625
13,-0.6105957,0.034851074,-0.8010864,0.578125,-1.265625,-0.21875
14,-0.60058594,0.04046631,-0.78497314,0.296875,-1.3125,-0.1875
15,-0.6088867,0.03753662,-0.78619385,0.1875,-1.28125,-0.1875
16,-0.6101074,0.034851074,-0.79766846,0.203125,-1.53125,-0.09375
17,-0.6020508,0.043151855,-0.7866821,0.265625,-1.40625,-0.046875
18,-0.60302734,0.04437256,-0.80303955,0.171875,-1.390625,0.0
19,-0.5969238,0.038024902,-0.78131104,0.140625,-0.859375,0.0
20,-0.6118164,0.04071045,-0.7984009,-0.578125,-0.609375,0.109375
21,-0.60546875,0.03753662,-0.79351807,0.03125,-0.671875,0.015625
22,-0.60717773,0.034606934,-0.7920532,0.46875,-0.8125,-0.125
23,-0.6052246,0.04071045,-0.78790283,0.109375,-0.703125,-0.09375
24,-0.60546875,0.04046631,-0.7905884,0.109375,-0.90625,0.109375
25,-0.6035156,0.038513184,-0.78570557,0.03125,-0.65625,-0.09375
26,-0.60498047,0.045837402,-0.78009033,0.015625,-0.609375,-0.109375
27,-0.6015625,0.042907715,-0.7827759,0.03125,-0.640625,-0.171875
28,-0.61157227,0.03729248,-0.78912354,0.140625,-1.125,0.015625
29,-0.6140137,0.04168701,-0.7932739,-0.03125,-0.921875,0.140625
30,-0.611084,0.040222168,-0.7896118,0.25,-0.84375,-0.015625
31,-0.61450195,0.038269043,-0.8052368,-0.078125,-0.828125,-0.078125
32,-0.60595703,0.035339355,-0.77667236,0.078125,0.125,-0.09375
33,-0.61035156,0.03778076,-0.79278564,-0.171875,-0.265625,-0.25
34,-0.60913086,0.039489746,-0.772522,0.46875,-0.234375,-0.1875
35,-0.60375977,0.045837402,-0.79107666,0.125,-1.8125,0.0
36,-0.6101074,0.04144287,-0.78692627,0.0,-0.53125,0.0625
37,-0.61450195,0.039978027,-0.78131104,0.03125,-0.828125,-0.078125
38,-0.61376953,0.03387451,-0.7727661,0.015625,-0.53125,0.078125
39,-0.6113281,0.031677246,-0.7810669,-0.34375,-0.703125,0.171875
40,-0.6147461,0.04119873,-0.7788696,0.265625,-0.28125,0.078125
41,-0.6191406,0.04071045,-0.7893677,0.109375,-0.765625,-0.046875
42,-0.609375,0.044128418,-0.78375244,0.328125,-0.921875,0.109375
43,-0.61865234,0.039489746,-0.77911377,0.3125,-0.40625,0.0625
44,-0.6086426,0.039978027,-0.7756958,0.671875,-0.328125,0.03125
45,-0.62280273,0.04144287,-0.76934814,0.03125,-0.703125,-0.078125
46,-0.6208496,0.04046631,-0.79351807,-0.28125,-1.21875,0.078125
47,-0.6203613,0.046569824,-0.7769165,-0.140625,-0.828125,-0.125
48,-0.6176758,0.043640137,-0.7749634,0.125,-1.125,-0.015625
49,-0.6184082,0.042419434,-0.7732544,0.046875,-0.9375,-0.109375
50,-0.61621094,0.04071045,-0.7769165,-0.078125,-0.671875,-0.03125
51,-0.625,0.04510498,-0.78448486,0.40625,-0.46875,0.46875
52,-0.6225586,0.042907715,-0.7822876,0.546875,0.015625,0.78125
53,-0.62890625,0.03753662,-0.77593994,0.59375,1.125,1.015625
54,-0.6257324,0.0368042,-0.7835083,0.96875,0.390625,0.515625
55,-0.6274414,0.043884277,-0.7710571,0.328125,0.265625,0.46875
56,-0.6257324,0.043151855,-0.7798462,-0.21875,-0.265625,0.296875
57,-0.62890625,0.043884277,-0.77301025,0.234375,-0.78125,0.15625
58,-0.6279297,0.04144287,-0.7949829,-0.625,-1.125,0.109375
59,-0.6279297,0.038757324,-0.7737427,0.078125,-1.046875,-0.09375
60,-0.6303711,0.04095459,-0.77960205,-0.359375,-0.84375,0.03125
61,-0.6254883,0.03387451,-0.7710571,0.203125,-0.890625,0.015625
62,-0.6303711,0.038024902,-0.77667236,0.15625,-0.953125,-0.109375
63,-0.6296387,0.046081543,-0.7720337,0.125,-0.9375,0.015625
64,-0.6262207,0.039733887,-0.77667236,0.109375,-1.078125,-0.0625
65,-0.6386719,0.042907715,-0.7798462,-0.25,-1.203125,0.453125
66,-0.62402344,0.040222168,-0.7803345,-0.078125,-1.140625,0.234375
67,-0.63256836,0.03704834,-0.77593994,0.21875,-0.796875,0.3125
68,-0.6315918,0.043151855,-0.7793579,0.109375,-1.25,-0.140625
69,-0.63549805,0.040222168,-0.7710571,0.203125,-1.25,0.046875
70,-0.6279297,0.03314209,-0.7764282,0.078125,-1.0,-0.03125
71,-0.6296387,0.04046631,-0.7798462,-0.046875,-1.1875,-0.015625
72,-0.6245117,0.04827881,-0.7593384,0.046875,-0.703125,-0.203125
73,-0.6359863,0.042175293,-0.77423096,-0.46875,-0.9375,0.21875
74,-0.6298828,0.040222168,-0.7588501,0.0,-0.5625,0.171875
75,-0.6323242,0.04144287,-0.7661743,0.328125,-0.625,0.21875
76,-0.6298828,0.042419434,-0.7732544,0.0625,-0.578125,0.125
77,-0.63134766,0.035095215,-0.7678833,0.28125,-0.28125,0.1875
78,-0.63183594,0.04144287,-0.76690674,0.265625,-0.140625,0.234375
79,-0.6298828,0.038513184,-0.76153564,-0.046875,-0.890625,0.1875
80,-0.62719727,0.03729248,-0.77349854,0.328125,-0.546875,0.046875
81,-0.63378906,0.038269043,-0.7715454,0.21875,-0.671875,-0.078125
82,-0.6386719,0.040222168,-0.7798462,0.5,-1.140625,-0.21875
83,-0.638916,0.03729248,-0.7659302,0.0,-0.671875,0.03125
84,-0.63793945,0.04437256,-0.7637329,0.0625,-0.9375,0.0
85,-0.6364746,0.036071777,-0.7908325,-0.75,-1.328125,0.171875
86,-0.63671875,0.036315918,-0.76885986,-0.59375,-0.875,0.109375
87,-0.64086914,0.03704834,-0.77471924,-0.609375,-0.90625,0.03125
88,-0.6411133,0.035827637,-0.76104736,0.265625,-1.125,-0.1875
89,-0.6347656,0.040222168,-0.77301025,0.125,-1.46875,-0.171875
90,-0.6345215,0.04095459,-0.7654419,0.03125,-0.953125,-0.140625
91,-0.6357422,0.0368042,-0.7686157,-0.171875,-1.078125,-0.046875
92,-0.63623047,0.038757324,-0.7744751,0.0,-1.6875,0.015625
93,-0.6394043,0.038269043,-0.76348877,-0.015625,-1.46875,-0.1875
94,-0.63916016,0.034606934,-0.7698364,0.078125,-1.421875,-0.21875
95,-0.6357422,0.03387451,-0.77911377,-0.015625,-1.828125,-0.046875
96,-0.63964844,0.038513184,-0.7761841,-0.203125,-2.125,-0.203125
97,-0.6418457,0.042175293,-0.7727661,0.203125,-2.234375,-0.375
98,-0.62768555,0.03778076,-0.76690674,0.359375,-1.5,-0.546875
99,-0.63500977,0.04486084,-0.77227783,-0.9375,-1.203125,-0.453125
100,-0.6364746,0.039001465,-0.77545166,-0.640625,-0.65625,0.046875
101,-0.63183594,0.030944824,-0.7671509,-1.328125,-0.25,0.03125
102,-0.6303711,0.03729248,-0.76153564,-0.59375,-0.125,-0.21875
103,-0.63500977,0.04095459,-0.77716064,-1.359375,-1.015625,-0.25
104,-0.63500977,0.03387451,-0.7666626,-1.640625,-0.390625,-0.203125
105,-0.6352539,0.035095215,-0.7625122,-1.5625,-1.296875,-0.203125
106,-0.6381836,0.035583496,-0.7817993,-1.96875,-2.40625,-0.09375
107,-0.63720703,0.02557373,-0.7659302,-2.0625,-2.21875,-0.1875
108,-0.63623047,0.030700684,-0.7678833,-1.546875,-2.203125,-0.234375
109,-0.63012695,0.028015137,-0.7654419,-1.046875,-2.328125,-0.125
110,-0.6296387,0.020935059,-0.7793579,-1.625,-2.5,-0.203125
111,-0.63623047,0.018737793,-0.77130127,-1.046875,-2.203125,-0.046875
112,-0.62060547,0.023132324,-0.77423096,-0.765625,-2.390625,-0.3125
113,-0.6257324,0.018005371,-0.7683716,-0.96875,-1.875,-0.4375
114,-0.6257324,0.023864746,-0.78790283,-0.8125,-2.453125,-0.109375
115,-0.62109375,0.019714355,-0.7737427,-1.28125,-1.546875,-0.21875
116,-0.6218262,0.018005371,-0.7715454,-0.15625,-1.828125,-0.21875
117,-0.62060547,0.018981934,-0.7793579,-0.203125,-1.6875,-0.171875
118,-0.6196289,0.023864746,-0.7666626,0.015625,-1.453125,-0.15625
119,-0.62524414,0.02142334,-0.7839966,-0.171875,-1.890625,0.140625
120,-0.6179199,0.017028809,-0.77545166,0.515625,-1.71875,0.078125
121,-0.61743164,0.022644043,-0.77667236,0.59375,-2.0625,0.21875
122,-0.62158203,0.012145996,-0.7788696,1.15625,-2.359375,0.421875
123,-0.62231445,0.016540527,-0.7815552,0.921875,-1.890625,0.3125
124,-0.61987305,0.022399902,-0.7781372,0.296875,-1.5,0.375
125,-0.6208496,0.01776123,-0.77716064,0.703125,-1.421875,-0.03125
126,-0.6191406,0.018249512,-0.7920532,-0.171875,-0.703125,-0.0625
127,-0.6086426,0.022644043,-0.7798462,-0.125,-0.578125,-0.015625
128,-0.62402344,0.020690918,-0.79644775,-0.375,-0.8125,-0.109375
129,-0.61621094,0.023376465,-0.77716064,0.453125,-1.0,-0.109375
130,-0.61157227,0.021911621,-0.7805786,0.90625,-1.53125,0.0625
131,-0.62109375,0.027038574,-0.78082275,0.65625,-1.375,0.015625
132,-0.61450195,0.02557373,-0.7839966,0.03125,-1.109375,0.09375
133,-0.6218262,0.027526855,-0.7805786,0.34375,-0.625,0.015625
134,-0.6208496,0.020202637,-0.7798462,0.734375,-0.78125,-0.0625
135,-0.61499023,0.027038574,-0.7859497,0.234375,-0.84375,-0.015625
136,-0.61694336,0.02508545,-0.7842407,0.546875,-0.734375,-0.109375
137,-0.62475586,0.019958496,-0.7893677,0.078125,-0.84375,-0.140625
138,-0.61938477,0.020935059,-0.78131104,0.25,-0.828125,-0.046875
139,-0.6147461,0.026794434,-0.78448486,0.3125,-1.015625,-0.171875
140,-0.62475586,0.027282715,-0.7788696,0.484375,-0.59375,-0.140625
141,-0.6254883,0.030700684,-0.7876587,-0.203125,-0.84375,0.046875
142,-0.6269531,0.028503418,-0.78253174,0.0,-0.484375,-0.03125
143,-0.61572266,0.027282715,-0.7781372,0.484375,-0.96875,0.0625
144,-0.62475586,0.030212402,-0.78082275,0.234375,-1.28125,0.140625
145,-0.6220703,0.032409668,-0.76397705,0.125,-1.125,-0.109375
146,-0.62158203,0.026550293,-0.7835083,-0.046875,-1.0,-0.03125
147,-0.6203613,0.02557373,-0.7695923,0.0,-1.0,-0.0625
148,-0.6245117,0.031433105,-0.77349854,-0.109375,-0.75,-0.03125
149,-0.6201172,0.022399902,-0.78131104,0.015625,-0.828125,-0.015625
150,-0.6262207,0.02923584,-0.77471924,0.125,-0.34375,-0.078125
151,-0.62109375,0.0289917,-0.7788696,0.25,-0.421875,-0.0625
152,-0.6281738,0.0289917,-0.77301025,0.15625,-0.71875,-0.03125
153,-0.626709,0.032165527,-0.78912354,-0.484375,-0.296875,0.015625
154,-0.626709,0.031677246,-0.7659302,0.1875,-0.03125,0.171875
155,-0.63500977,0.03289795,-0.7732544,-0.53125,-0.5625,0.21875
156,-0.6303711,0.02557373,-0.77178955,0.171875,0.03125,0.375
157,-0.6281738,0.027770996,-0.77227783,0.109375,-0.765625,0.125
158,-0.63134766,0.02508545,-0.78082275,-0.375,-0.734375,-0.09375
159,-0.623291,0.02923584,-0.76934814,-0.0625,-0.765625,0.03125
160,-0.6359863,0.02923584,-0.7769165,-0.296875,-0.890625,0.046875
161,-0.62597656,0.022155762,-0.772522,-0.125,-1.234375,0.015625
162,-0.63061523,0.023376465,-0.7686157,0.125,-0.6875,-0.09375
163,-0.63183594,0.027282715,-0.7727661,-0.015625,-0.734375,-0.046875
164,-0.6359863,0.031921387,-0.7761841,-0.09375,-0.890625,0.015625
165,-0.63183594,0.026062012,-0.77471924,-0.3125,-0.78125,0.375
166,-0.6279297,0.01776123,-0.77227783,-0.296875,-0.140625,0.546875
167,-0.6323242,0.023132324,-0.7761841,-0.234375,-0.171875,0.15625
168,-0.6335449,0.023620605,-0.7737427,-0.265625,-0.390625,0.0625
169,-0.63916016,0.024597168,-0.7798462,-0.453125,-0.421875,0.25
170,-0.6296387,0.022155762,-0.76275635,0.328125,-0.9375,-0.046875
171,-0.63671875,0.028015137,-0.77349854,0.375,-1.203125,-0.078125
172,-0.6315918,0.021911621,-0.7732544,0.0625,-1.0625,0.0
173,-0.6364746,0.026306152,-0.77471924,-0.28125,-1.03125,0.109375
174,-0.63623047,0.020202637,-0.76812744,-0.09375,-0.203125,0.140625
175,-0.62939453,0.022155762,-0.76519775,-0.03125,-0.875,0.21875
176,-0.6394043,0.02166748,-0.76763916,0.171875,-0.796875,0.125
177,-0.6340332,0.02166748,-0.7698364,0.1875,-1.25,0.078125
178,-0.6386719,0.027038574,-0.76275635,0.078125,-1.40625,-0.0625
179,-0.6308594,0.022644043,-0.7781372,-0.25,-1.484375,0.125
180,-0.6298828,0.024353027,-0.76397705,0.078125,-1.015625,0.015625
181,-0.6323242,0.019226074,-0.76763916,0.34375,-0.921875,0.125
182,-0.6359863,0.022399902,-0.7510376,0.140625,-0.546875,-0.046875
183,-0.64331055,0.02557373,-0.78302,-0.375,-1.0625,0.203125
184,-0.6376953,0.023864746,-0.76226807,0.1875,-0.8125,-0.015625
185,-0.6347656,0.022155762,-0.76446533,0.328125,-1.609375,-0.03125
186,-0.6286621,0.028747559,-0.76641846,0.03125,-1.421875,-0.0625
187,-0.63256836,0.027282715,-0.76763916,0.140625,-1.328125,-0.046875
188,-0.63500977,0.028259277,-0.7671509,-0.109375,-1.359375,-0.0625
189,-0.6386719,0.02557373,-0.7866821,-0.28125,-1.984375,0.0
190,-0.6333008,0.02508545,-0.76641846,-0.34375,-1.453125,-0.140625
191,-0.63012695,0.02923584,-0.7761841,-0.15625,-1.8125,-0.296875
192,-0.6345215,0.022399902,-0.76397705,-0.078125,-1.59375,-0.203125
193,-0.62890625,0.024597168,-0.7727661,-0.21875,-1.78125,-0.21875
194,-0.6308594,0.030212402,-0.7727661,-0.46875,-1.125,-0.21875
195,-0.63500977,0.024108887,-0.7671509,-0.6875,-1.5,-0.140625
196,-0.63134766,0.023132324,-0.7908325,-1.671875,-1.453125,-0.203125
197,-0.63134766,0.019226074,-0.7749634,-1.453125,-1.125,-0.25
198,-0.63427734,0.018493652,-0.7774048,-1.46875,-1.390625,-0.125
199,-0.63061523,0.019958496,-0.7698364,-1.125,-1.5625,-0.171875
200,-0.6340332,0.02142334,-0.7769165,-0.984375,-2.265625,-0.125
201,-0.6279297,0.018005371,-0.77227783,-1.015625,-2.15625,-0.25
202,-0.62597656,0.011657715,-0.7788696,-1.0,-2.046875,-0.25
203,-0.6281738,0.015808105,-0.7744751,-0.390625,-1.859375,-0.234375
204,-0.6230469,0.011169434,-0.77716064,-0.46875,-1.953125,-0.03125
205,-0.62719727,0.016540527,-0.77056885,0.0,-1.890625,0.03125
206,-0.6230469,0.015319824,-0.7776489,0.9375,-2.09375,-0.046875
207,-0.6279297,0.018737793,-0.7761841,0.734375,-2.15625,0.0
208,-0.61572266,0.014099121,-0.7793579,0.6875,-1.953125,0.109375
209,-0.62524414,0.01776123,-0.78082275,0.546875,-1.640625,-0.125
210,-0.6208496,0.022399902,-0.78326416,0.15625,-1.734375,0.140625
211,-0.61572266,0.021911621,-0.7793579,0.953125,-0.703125,0.125
212,-0.6203613,0.018493652,-0.79571533,-0.1875,-1.046875,0.25
213,-0.6135254,0.014831543,-0.78082275,-0.390625,-0.734375,-0.015625
214,-0.6201172,0.017028809,-0.78204346,0.140625,-0.46875,-0.125
215,-0.626709,0.018493652,-0.7815552,-0.140625,-0.859375,0.0
216,-0.62402344,0.0138549805,-0.7698364,0.484375,-1.234375,-0.015625
217,-0.611084,0.019470215,-0.78375244,0.625,-1.65625,-0.078125
218,-0.6184082,0.018005371,-0.78253174,-0.265625,-1.421875,0.015625
219,-0.61816406,0.019958496,-0.7727661,0.046875,-1.171875,-0.171875
220,-0.6230469,0.021911621,-0.7756958,0.125,-1.328125,-0.046875
221,-0.6164551,0.016540527,-0.77301025,0.484375,-1.171875,-0.140625
222,-0.6245117,0.02166748,-0.7776489,0.328125,-1.296875,0.015625
223,-0.62109375,0.022644043,-0.77349854,0.296875,-1.28125,0.046875
224,-0.6179199,0.02142334,-0.78302,-0.171875,-0.8125,0.03125
225,-0.6125488,0.024597168,-0.77545166,0.296875,-0.328125,-0.0625
226,-0.62280273,0.023620605,-0.79229736,-0.046875,-0.84375,-0.03125
227,-0.62719727,0.030700684,-0.77349854,-0.078125,-0.65625,-0.140625
228,-0.626709,0.019714355,-0.7744751,0.3125,-0.921875,-0.21875
229,-0.61938477,0.019714355,-0.7774048,0.03125,-1.09375,0.0625
230,-0.6179199,0.021911621,-0.77667236,0.078125,-1.203125,-0.09375
231,-0.6188965,0.020446777,-0.76885986,0.328125,-0.71875,-0.15625
232,-0.61816406,0.022888184,-0.77423096,0.265625,-1.09375,-0.046875
233,-0.6196289,0.016540527,-0.77789307,0.125,-1.140625,-0.140625
234,-0.61987305,0.019470215,-0.7798462,0.375,-1.15625,0.03125
235,-0.62475586,0.023132324,-0.7817993,0.390625,-1.15625,-0.0625
236,-0.61694336,0.019958496,-0.78253174,-0.09375,-1.03125,-0.171875
237,-0.6245117,0.027526855,-0.7822876,-0.015625,-0.671875,-0.1875
238,-0.62402344,0.022399902,-0.77349854,0.46875,-0.890625,-0.171875
239,-0.6254883,0.022155762,-0.7678833,0.484375,-0.921875,-0.140625
240,-0.6176758,0.022155762,-0.78570557,-0.125,-1.40625,0.0625
241,-0.6303711,0.023864746,-0.77227783,0.09375,-1.046875,-0.125
242,-0.61572266,0.020690918,-0.77545166,0.203125,-1.25,0.015625
243,-0.61938477,0.027282715,-0.7815552,0.03125,-1.28125,-0.0625
244,-0.6203613,0.03338623,-0.7737427,-0.125,-0.890625,-0.09375
245,-0.62402344,0.02557373,-0.7798462,-0.140625,-1.046875,0.078125
246,-0.6237793,0.024841309,-0.7752075,-0.171875,-1.21875,-0.015625
247,-0.62402344,0.024841309,-0.78692627,-0.3125,-0.890625,0.0625
248,-0.625,0.023864746,-0.77349854,0.09375,-0.75,0.09375
249,-0.6230469,0.020202637,-0.78302,0.125,-0.6875,-0.109375
250,-0.61865234,0.023620605,-0.7749634,-0.03125,-0.984375,-0.140625
251,-0.6308594,0.02532959,-0.77667236,0.0625,-0.984375,-0.15625
252,-0.61987305,0.02923584,-0.7727661,0.21875,-1.0,-0.125
253,-0.6166992,0.02923584,-0.78253174,0.578125,-0.90625,0.078125
254,-0.6218262,0.02532959,-0.77008057,0.359375,-0.234375,-0.015625
255,-0.62524414,0.030944824,-0.78790283,-0.5,-0.953125,0.140625
256,-0.6225586,0.028015137,-0.7703247,0.109375,-0.6875,-0.078125
257,-0.62280273,0.029968262,-0.7761841,0.359375,-1.234375,-0.25
258,-0.6230469,0.026062012,-0.78131104,0.109375,-0.8125,0.03125
259,-0.62475586,0.025817871,-0.7793579,0.0,-0.953125,-0.09375
260,-0.6269531,0.020202637,-0.7715454,0.15625,-0.9375,0.03125
261,-0.6298828,0.024597168,-0.7739868,-0.1875,-1.140625,-0.03125
262,-0.6269531,0.024108887,-0.7744751,-0.203125,-1.046875,-0.0625
263,-0.623291,0.018981934,-0.77178955,0.0625,-1.140625,-0.09375
264,-0.6281738,0.027770996,-0.7756958,0.265625,-0.921875,0.0
265,-0.62231445,0.02557373,-0.77667236,-0.234375,-0.765625,0.015625
266,-0.6335449,0.022155762,-0.78131104,-0.1875,-0.421875,0.09375
267,-0.6262207,0.02142334,-0.78497314,-0.09375,-0.578125,0.296875
268,-0.6262207,0.029724121,-0.7776489,-0.296875,-1.015625,0.15625
269,-0.62597656,0.027038574,-0.7576294,0.15625,-1.015625,0.046875
270,-0.63061523,0.022644043,-0.79156494,-0.640625,-1.609375,0.25
271,-0.62280273,0.02557373,-0.7654419,0.328125,-0.828125,-0.0625
272,-0.62524414,0.024108887,-0.7703247,0.3125,-1.375,-0.21875
273,-0.625,0.026794434,-0.77349854,0.03125,-1.03125,-0.1875
274,-0.62719727,0.022155762,-0.77789307,-0.09375,-0.90625,-0.171875
275,-0.62646484,0.020690918,-0.7752075,0.140625,-0.671875,-0.09375
276,-0.6315918,0.026550293,-0.7703247,-0.1875,-0.765625,-0.046875
277,-0.62841797,0.019958496,-0.7695923,-0.171875,-0.3125,-0.046875
278,-0.6308594,0.022399902,-0.7761841,-0.015625,-0.65625,-0.109375
279,-0.6303711,0.028747559,-0.7595825,0.78125,-0.75,-0.234375
280,-0.6320801,0.023376465,-0.77471924,0.265625,-0.828125,-0.015625
281,-0.63671875,0.032409668,-0.7744751,0.140625,-0.640625,-0.078125
282,-0.6347656,0.031433105,-0.77130127,0.109375,-0.875,-0.015625
283,-0.6281738,0.019714355,-0.76519775,0.515625,-0.796875,0.03125
284,-0.62841797,0.024108887,-0.76153564,0.125,-0.28125,0.0
285,-0.63623047,0.027038574,-0.7739868,-0.171875,-0.625,0.0625
286,-0.64160156,0.028015137,-0.7617798,0.140625,0.609375,0.3125
287,-0.6340332,0.022644043,-0.7617798,0.609375,-0.40625,0.265625
288,-0.6347656,0.030700684,-0.7695923,0.0,-0.046875,0.109375
289,-0.64038086,0.028747559,-0.76519775,-0.15625,0.015625,0.109375
290,-0.63500977,0.02166748,-0.7612915,0.0625,-0.59375,0.140625
291,-0.63916016,0.031677246,-0.7617798,-0.28125,-1.453125,0.0625
292,-0.63720703,0.035583496,-0.76568604,-0.296875,-1.609375,0.0625
293,-0.64086914,0.026306152,-0.7666626,-0.109375,-1.1875,-0.125
294,-0.64208984,0.031433105,-0.7732544,-0.140625,-1.703125,-0.078125
295,-0.6328125,0.026062012,-0.76885986,-0.453125,-2.140625,-0.03125
296,-0.6257324,0.018981934,-0.7595825,-0.609375,-1.078125,-0.359375
297,-0.6477051,0.027526855,-0.77789307,-0.28125,-1.859375,-0.40625
298,-0.63720703,0.026794434,-0.76397705,0.453125,-2.859375,-0.234375
299,-0.6411133,0.02557373,-0.77008057,-0.4375,-2.546875,-0.3125
300,-0.6347656,0.029724121,-0.772522,-1.203125,-2.0625,0.0
301,-0.6298828,0.022399902,-0.75738525,-0.984375,-1.5625,-0.125
302,-0.6237793,0.015808105,-0.76275635,-0.34375,-2.015625,0.125
303,-0.63183594,0.016784668,-0.7698364,-0.21875,-1.859375,0.28125
304,-0.62353516,0.026794434,-0.767395,0.234375,-1.25,0.03125
305,-0.6386719,0.024597168,-0.7769165,0.609375,-1.25,0.109375
306,-0.62939453,0.02166748,-0.7769165,0.3125,-1.625,0.21875
307,-0.62280273,0.022888184,-0.7781372,0.265625,-1.15625,-0.21875
308,-0.62939453,0.022644043,-0.7678833,0.125,-1.3125,0.03125
309,-0.6279297,0.020446777,-0.7737427,0.3125,-1.6875,-0.078125
310,-0.6291504,0.02557373,-0.77130127,0.28125,-1.3125,0.078125
311,-0.62768555,0.027770996,-0.7803345,0.140625,-1.296875,0.09375
312,-0.6257324,0.028015137,-0.7671509,0.21875,-0.65625,-0.078125
313,-0.63842773,0.023376465,-0.7710571,0.203125,-0.796875,-0.078125
314,-0.63793945,0.019958496,-0.7788696,-0.34375,-1.03125,-0.109375
315,-0.62597656,0.022644043,-0.7710571,-0.234375,-1.109375,0.078125
316,-0.63256836,0.027038574,-0.78570557,-0.28125,-1.03125,0.078125
317,-0.6303711,0.021911621,-0.770813,0.15625,-1.59375,-0.15625
318,-0.6281738,0.019470215,-0.77056885,0.3125,-1.6875,-0.171875
319,-0.6291504,0.02557373,-0.7788696,-0.015625,-1.40625,-0.03125
320,-0.6286621,0.02142334,-0.77301025,-0.171875,-1.125,-0.0625
321,-0.62719727,0.01727295,-0.7600708,0.15625,-0.15625,-0.203125
322,-0.6281738,0.017028809,-0.77349854,0.21875,-0.25,0.109375
323,-0.6308594,0.02142334,-0.76763916,0.0,-0.0625,-0.09375
324,-0.6328125,0.016784668,-0.7727661,0.03125,-0.203125,0.046875
325,-0.6345215,0.019470215,-0.77423096,0.125,-0.984375,-0.25
326,-0.62890625,0.019470215,-0.77056885,0.140625,-1.109375,-0.1875
327,-0.6303711,0.02532959,-0.76397705,-0.171875,-1.015625,-0.078125
328,-0.62841797,0.022155762,-0.7710571,-0.09375,-1.09375,0.015625
329,-0.6308594,0.014831543,-0.7625122,0.328125,-0.59375,0.140625
330,-0.6274414,0.022644043,-0.7642212,0.140625,-0.53125,0.03125
331,-0.6386719,0.019958496,-0.77349854,0.0,-0.734375,0.15625
332,-0.6311035,0.024597168,-0.76446533,0.0,-0.21875,0.0625
333,-0.64160156,0.023864746,-0.7595825,0.203125,-0.46875,0.3125
334,-0.62890625,0.019226074,-0.7686157,0.46875,-0.703125,0.1875
335,-0.6430664,0.020690918,-0.76690674,0.125,-0.4375,-0.03125
336,-0.63623047,0.024597168,-0.7749634,-0.234375,-0.984375,0.0625
337,-0.6398926,0.02557373,-0.76885986,0.171875,-1.875,0.015625
338,-0.6298828,0.029724121,-0.7671509,-0.0625,-1.328125,-0.125
339,-0.64038086,0.018249512,-0.76446533,0.015625,-1.078125,0.03125
340,-0.6345215,0.023132324,-0.76934814,0.15625,-1.03125,0.046875
341,-0.6435547,0.028015137,-0.7678833,0.125,-0.640625,0.0
342,-0.6386719,0.022399902,-0.7647095,-0.109375,-0.6875,0.140625
343,-0.6425781,0.022888184,-0.77056885,-0.125,-0.5,0.328125
344,-0.640625,0.02532959,-0.75909424,0.046875,-0.28125,0.296875
345,-0.64208984,0.020690918,-0.76519775,-0.015625,-1.046875,0.140625
346,-0.63623047,0.024841309,-0.76031494,-0.015625,-0.6875,0.0625
347,-0.63500977,0.023864746,-0.75909424,0.28125,-0.46875,0.171875
348,-0.64038086,0.02508545,-0.77178955,0.375,0.578125,1.421875
349,-0.6542969,0.0211792,-0.76104736,0.84375,0.875,1.359375
350,-0.640625,0.021911621,-0.7620239,0.28125,0.5625,1.34375
351,-0.6525879,0.024353027,-0.7554321,-0.28125,0.921875,0.828125
352,-0.6516113,0.020935059,-0.75494385,-0.75,-0.609375,0.109375
353,-0.64990234,0.020446777,-0.7529907,-1.15625,-0.71875,-0.171875
354,-0.6582031,0.018981934,-0.76153564,-0.8125,-1.234375,-0.375
355,-0.6645508,0.027770996,-0.7620239,-0.28125,-3.1875,-0.0625
356,-0.64697266,0.023132324,-0.75372314,-0.546875,-4.140625,-0.171875
357,-0.63671875,0.018737793,-0.75860596,-0.375,-3.375,0.4375
358,-0.6425781,0.020935059,-0.75860596,-0.3125,-2.78125,0.21875
359,-0.63549805,0.009460449,-0.7600708,0.4375,-1.859375,0.375
360,-0.6364746,0.013366699,-0.76641846,0.078125,0.09375,0.375
361,-0.64941406,0.019958496,-0.7810669,0.34375,-0.328125,0.125
362,-0.64038086,0.015808105,-0.7649536,0.578125,-0.515625,-0.078125
363,-0.6489258,0.0211792,-0.7424927,0.5625,-0.734375,-0.375
364,-0.64282227,0.022399902,-0.7671509,0.203125,-1.015625,0.015625
365,-0.64160156,0.017028809,-0.75201416,0.0625,-0.546875,-0.03125
366,-0.64282227,0.01751709,-0.75860596,0.546875,-1.25,-0.015625
367,-0.6437988,0.019958496,-0.7637329,0.15625,-1.34375,-0.015625
368,-0.6513672,0.01751709,-0.7625122,0.015625,-1.15625,-0.046875
369,-0.6472168,0.023376465,-0.7671509,0.015625,-1.046875,-0.15625
370,-0.6472168,0.019226074,-0.7649536,-0.015625,-1.4375,0.015625
371,-0.6447754,0.019470215,-0.75445557,-0.28125,-1.0625,0.09375
372,-0.64404297,0.021911621,-0.7595825,-0.046875,-1.03125,0.0625
373,-0.6401367,0.016784668,-0.7649536,-0.109375,-1.46875,0.015625
374,-0.63916016,0.0119018555,-0.75860596,0.203125,-1.4375,-0.125
375,-0.64404297,0.01751709,-0.7647095,0.21875,-1.578125,-0.09375
376,-0.6411133,0.02142334,-0.7695923,0.078125,-1.21875,-0.078125
377,-0.6435547,0.015563965,-0.7661743,0.046875,-1.109375,-0.078125
378,-0.6479492,0.023376465,-0.7581177,0.1875,-0.75,-0.03125
379,-0.64331055,0.025817871,-0.76641846,0.09375,-0.703125,-0.03125
380,-0.64208984,0.018005371,-0.7625122,-0.421875,-0.734375,0.0625
381,-0.64453125,0.018005371,-0.7588501,-0.3125,-0.3125,-0.078125
382,-0.6459961,0.020690918,-0.7593384,0.21875,-0.84375,-0.0625
383,-0.64038086,0.020446777,-0.7576294,0.03125,-1.0,-0.203125
384,-0.6447754,0.022399902,-0.7661743,0.171875,-1.015625,-0.140625
385,-0.64624023,0.016296387,-0.76275635,0.125,-1.203125,-0.078125
386,-0.64624023,0.017028809,-0.7666626,0.0,-0.921875,-0.25
387,-0.64941406,0.01776123,-0.7593384,-0.21875,-1.109375,0.0
388,-0.64404297,0.020446777,-0.76275635,0.078125,-0.609375,0.0
389,-0.64331055,0.019226074,-0.7588501,0.0625,-0.640625,-0.171875
390,-0.6425781,0.022644043,-0.756897,0.234375,-0.515625,0.03125
391,-0.6484375,0.014831543,-0.75909424,0.1875,-0.234375,0.25
392,-0.6489258,0.024597168,-0.7686157,0.1875,0.625,1.234375
393,-0.6555176,0.018737793,-0.7581177,0.578125,1.328125,1.796875
394,-0.6459961,0.0211792,-0.75079346,0.5625,0.1875,0.71875
395,-0.6530762,0.019470215,-0.7637329,-0.1875,-0.125,0.171875
396,-0.6542969,0.018981934,-0.74664307,0.1875,-0.484375,0.3125
397,-0.65649414,0.015808105,-0.7605591,-0.25,-0.703125,0.40625
398,-0.6591797,0.018249512,-0.7505493,0.703125,-0.515625,0.296875
399,-0.6520996,0.016296387,-0.7583618,0.25,-1.25,0.078125
400,-0.65478516,0.026550293,-0.74346924,0.09375,-0.421875,0.03125
401,-0.6582031,0.014831543,-0.7485962,0.59375,0.859375,0.75
402,-0.65722656,0.015075684,-0.74542236,1.03125,1.1875,1.3125
403,-0.6611328,0.018981934,-0.753479,0.296875,-0.1875,1.078125
404,-0.66674805,0.014587402,-0.741272,0.09375,-0.21875,0.765625
405,-0.6623535,0.018737793,-0.75323486,0.015625,-0.796875,0.484375
406,-0.66430664,0.010437012,-0.7522583,-0.1875,-0.78125,0.125
407,-0.6628418,0.014587402,-0.74005127,0.125,-0.9375,-0.0625
408,-0.6652832,0.010681152,-0.74298096,-0.0625,-1.09375,-0.03125
409,-0.66137695,0.011657715,-0.7371216,0.1875,-0.796875,0.140625
410,-0.66308594,0.012634277,-0.7451782,0.21875,-1.140625,-0.046875
411,-0.6623535,0.011413574,-0.7515259,0.078125,-1.109375,0.078125
412,-0.6672363,0.01727295,-0.74664307,-0.03125,-0.609375,0.28125
413,-0.6672363,0.015319824,-0.7522583,-0.15625,0.109375,0.546875
414,-0.67041016,0.014831543,-0.7305298,0.484375,-0.515625,0.625
415,-0.6640625,0.0045776367,-0.74224854,0.4375,-0.734375,0.125
416,-0.6706543,0.01361084,-0.74713135,1.046875,0.75,0.9375
417,-0.6748047,0.013366699,-0.74346924,1.234375,0.90625,1.453125
418,-0.6669922,0.012878418,-0.73687744,0.5,-0.03125,0.703125
419,-0.6711426,0.0138549805,-0.73394775,-0.0625,-0.390625,1.0625
420,-0.67163086,0.0119018555,-0.7415161,0.171875,-0.234375,0.75
421,-0.6791992,0.009216309,-0.7390747,0.34375,-0.625,0.46875
422,-0.6687012,0.010925293,-0.73760986,0.109375,-0.28125,0.59375
423,-0.6796875,0.0138549805,-0.73687744,0.640625,-0.03125,1.03125
424,-0.67578125,0.011413574,-0.7317505,0.609375,0.0,0.96875
425,-0.6743164,0.020935059,-0.7312622,1.671875,1.703125,1.828125
426,-0.68408203,0.007751465,-0.7317505,1.921875,1.90625,1.796875
427,-0.68066406,0.009460449,-0.7258911,0.984375,-0.40625,0.96875
428,-0.6738281,0.012145996,-0.72662354,0.21875,-0.46875,0.703125
429,-0.6879883,0.010925293,-0.7307739,-0.125,0.125,0.578125
430,-0.6821289,0.0119018555,-0.7202759,0.453125,-0.828125,0.015625
431,-0.6816406,0.009460449,-0.73443604,0.015625,-0.90625,0.125
432,-0.685791,0.015319824,-0.72442627,-0.1875,-0.578125,0.140625
433,-0.6828613,0.00579834,-0.72442627,0.59375,0.09375,0.625
434,-0.6928711,0.014099121,-0.7234497,1.796875,0.625,0.890625
435,-0.689209,0.0060424805,-0.71832275,2.765625,2.015625,1.359375
436,-0.69189453,0.006286621,-0.71343994,0.890625,0.6875,0.40625
437,-0.6945801,0.00970459,-0.7136841,0.5,-0.984375,0.140625
438,-0.70336914,0.016540527,-0.71710205,0.765625,0.3125,0.453125
439,-0.69750977,0.006286621,-0.7178345,-0.140625,-1.21875,0.1875
440,-0.6928711,0.015075684,-0.7136841,-0.328125,-1.5625,-0.109375
441,-0.69555664,0.012878418,-0.71588135,-0.25,-1.453125,-0.171875
442,-0.6911621,0.012634277,-0.71954346,-0.40625,-1.546875,-0.046875
443,-0.6911621,0.016052246,-0.7214966,-0.109375,-1.734375,0.0
444,-0.7023926,0.011657715,-0.72491455,0.078125,-0.8125,-0.0625
445,-0.6972656,0.01361084,-0.71954346,-0.28125,-0.359375,0.15625
446,-0.69311523,0.0038452148,-0.7090454,-0.4375,-0.53125,-0.03125
447,-0.69311523,0.011413574,-0.71295166,-0.265625,-1.53125,-0.015625
448,-0.69750977,0.008239746,-0.71881104,-0.078125,-0.453125,-0.046875
449,-0.6982422,0.012878418,-0.71710205,-0.4375,-1.71875,0.03125
450,-0.68896484,0.0026245117,-0.7307739,-0.046875,1.203125,0.09375
451,-0.69750977,0.010925293,-0.70758057,0.03125,0.484375,0.03125
452,-0.70214844,0.0067749023,-0.7070923,0.015625,-2.078125,-0.296875
453,-0.69677734,0.0099487305,-0.7139282,0.03125,-2.515625,-0.0625
454,-0.6972656,0.010437012,-0.71173096,-0.21875,-1.90625,-0.09375
455,-0.6940918,0.016296387,-0.7180786,-0.65625,-3.40625,-0.03125
456,-0.69311523,0.009216309,-0.7234497,-1.328125,-4.09375,-0.71875
457,-0.6953125,0.0006713867,-0.71099854,-3.015625,-6.703125,-2.234375
458,-0.67163086,0.003112793,-0.7295532,-0.96875,-8.5,-2.375
459,-0.6801758,0.0119018555,-0.72784424,0.65625,-5.4375,-1.703125
460,-0.67407227,0.008483887,-0.74224854,0.0,-6.96875,-2.078125
461,-0.67407227,0.018981934,-0.7334595,-1.015625,-7.0625,-2.1875
462,-0.6557617,0.015319824,-0.74346924,0.359375,-5.453125,-0.421875
463,-0.6569824,0.015319824,-0.7678833,-0.375,-5.0625,-0.46875
464,-0.654541,0.015319824,-0.75323486,-0.59375,-3.03125,-1.703125
465,-0.6533203,0.0138549805,-0.7451782,-2.8125,-4.203125,-2.1875
466,-0.6411133,0.010192871,-0.75177,-0.9375,-2.953125,-1.25
467,-0.6513672,0.015808105,-0.77423096,-1.203125,-3.03125,-0.8125
468,-0.65063477,0.02142334,-0.7647095,-1.515625,-2.828125,-1.6875
469,-0.6381836,0.0119018555,-0.7600708,-1.828125,-2.984375,-1.609375
470,-0.6398926,0.018005371,-0.7605591,-0.984375,-2.375,-1.15625
471,-0.63793945,0.015808105,-0.76934814,-1.0,-2.5625,-0.609375
472,-0.6381836,0.018005371,-0.7695923,-0.921875,-2.03125,-0.609375
473,-0.626709,0.014343262,-0.76934814,-0.890625,-2.078125,-0.765625
474,-0.6335449,0.018493652,-0.7605591,-0.171875,-1.796875,-0.5
475,-0.6359863,0.0079956055,-0.7649536,-0.84375,-1.84375,-0.609375
476,-0.6376953,0.016784668,-0.769104,0.171875,-2.046875,-0.4375
477,-0.63427734,0.019226074,-0.7649536,-0.40625,-1.515625,-0.28125
478,-0.6359863,0.014831543,-0.76226807,0.09375,-1.625,-0.203125
479,-0.6279297,0.01727295,-0.77545166,0.0,-1.671875,-0.234375
480,-0.63012695,0.016784668,-0.77301025,0.09375,-1.421875,-0.203125
481,-0.62939453,0.011169434,-0.7659302,0.28125,-1.421875,-0.078125
482,-0.63183594,0.018005371,-0.77716064,0.25,-1.6875,-0.125
483,-0.6345215,0.010681152,-0.7761841,0.390625,-1.625,-0.015625
484,-0.6308594,0.028259277,-0.77349854,0.984375,-1.765625,-0.140625
485,-0.6225586,0.014831543,-0.76348877,1.234375,-1.671875,-0.1875
486,-0.623291,0.021911621,-0.7893677,-0.140625,-1.859375,0.0625
487,-0.6323242,0.015808105,-0.7727661,0.328125,-0.890625,-0.046875
488,-0.63012695,0.01776123,-0.77716064,0.03125,-1.25,-0.125
489,-0.62890625,0.015808105,-0.7798462,-0.078125,-1.5625,-0.109375
490,-0.61816406,0.01776123,-0.76885986,0.28125,-0.984375,-0.03125
491,-0.6320801,0.02166748,-0.78302,-0.046875,-1.65625,-0.015625
492,-0.6225586,0.019958496,-0.77178955,0.09375,-1.171875,-0.09375
493,-0.6218262,0.02532959,-0.7695923,0.1875,-1.203125,-0.15625
494,-0.6237793,0.01776123,-0.7815552,0.078125,-1.28125,-0.015625
495,-0.623291,0.016296387,-0.77545166,0.0,-1.21875,-0.234375
496,-0.63012695,0.01751709,-0.77911377,-0.265625,-1.375,0.125
497,-0.62280273,0.01776123,-0.78204346,0.078125,-1.46875,0.03125
498,-0.6171875,0.017028809,-0.7720337,0.125,-1.09375,-0.125
499,-0.62475586,0.016540527,-0.7788696,0.0625,-1.15625,-0.09375
500,-0.6254883,0.02166748,-0.7781372,0.21875,-1.140625,-0.015625
501,-0.62719727,0.02508545,-0.77838135,0.21875,-1.15625,-0.1875
502,-0.62402344,0.020690918,-0.77471924,0.328125,-1.046875,-0.046875
503,-0.6257324,0.01751709,-0.7737427,0.609375,-1.125,-0.078125
504,-0.623291,0.022888184,-0.7761841,0.25,-0.828125,-0.125
505,-0.6345215,0.01727295,-0.78619385,-0.03125,-1.078125,0.171875
506,-0.6257324,0.0211792,-0.77301025,-0.03125,-0.921875,-0.1875
507,-0.625,0.01776123,-0.7671509,0.296875,-0.84375,-0.046875
508,-0.62402344,0.020935059,-0.7798462,0.0625,-0.859375,-0.046875
509,-0.62109375,0.019226074,-0.7703247,-0.125,-0.90625,-0.09375
510,-0.62646484,0.024353027,-0.77838135,0.0625,-1.140625,-0.171875
511,-0.6296387,0.018981934,-0.7739868,0.21875,-1.515625,-0.078125
512,-0.6340332,0.0138549805,-0.7793579,-0.109375,-1.40625,0.0
513,-0.6303711,0.019714355,-0.77593994,-0.03125,-1.09375,0.046875
514,-0.6296387,0.02142334,-0.77471924,0.328125,-1.140625,-0.03125
515,-0.62475586,0.020202637,-0.77667236,-0.03125,-1.203125,0.0
516,-0.6245117,0.016540527,-0.7686157,0.203125,-0.84375,-0.1875
517,-0.62719727,0.021911621,-0.7588501,0.703125,-0.734375,-0.140625
518,-0.6281738,0.023864746,-0.78912354,-0.515625,-1.09375,-0.125
519,-0.63427734,0.025817871,-0.7815552,-0.171875,-0.921875,-0.078125
520,-0.62719727,0.01751709,-0.77008057,-0.171875,-0.9375,-0.015625
521,-0.625,0.024108887,-0.7683716,0.109375,-1.0625,-0.140625
522,-0.6257324,0.020202637,-0.77349854,-0.03125,-1.0625,0.046875
523,-0.6281738,0.026306152,-0.7715454,-0.03125,-1.078125,-0.0625
524,-0.62890625,0.02142334,-0.77593994,-0.03125,-1.21875,0.0
525,-0.63720703,0.022155762,-0.78375244,0.0,-1.578125,0.109375
526,-0.62597656,0.019958496,-0.7786255,0.03125,-1.3125,-0.125
527,-0.62475586,0.023864746,-0.7727661,0.15625,-1.09375,0.078125
528,-0.6286621,0.01751709,-0.77960205,0.0,-1.28125,0.0625
529,-0.6279297,0.022155762,-0.7756958,-0.09375,-1.09375,0.03125
530,-0.6286621,0.020446777,-0.7764282,-0.28125,-1.25,-0.046875
531,-0.6345215,0.023864746,-0.77667236,-0.09375,-1.125,0.0
532,-0.6203613,0.0211792,-0.77960205,-0.0625,-1.0625,-0.03125
533,-0.6201172,0.023864746,-0.76446533,0.15625,-1.09375,-0.140625
534,-0.6340332,0.016296387,-0.7815552,-0.375,-1.25,-0.109375
535,-0.6254883,0.020690918,-0.77056885,-0.0625,-1.09375,-0.078125
536,-0.6291504,0.024597168,-0.77545166,0.25,-1.125,-0.09375
537,-0.6279297,0.029724121,-0.77227783,-0.09375,-0.953125,-0.109375
538,-0.62939453,0.024597168,-0.7776489,-0.09375,-0.65625,0.015625
539,-0.6303711,0.023864746,-0.7720337,0.0625,-0.734375,-0.15625
540,-0.62841797,0.022155762,-0.77667236,-0.015625,-1.09375,0.03125
541,-0.63183594,0.023376465,-0.772522,0.078125,-1.078125,-0.046875
542,-0.6303711,0.016540527,-0.7752075,0.15625,-0.9375,-0.015625
543,-0.61987305,0.022888184,-0.77056885,0.265625,-0.953125,0.046875
544,-0.6340332,0.024108887,-0.7769165,-0.21875,-1.265625,0.015625
545,-0.6279297,0.017028809,-0.76568604,0.109375,-1.015625,-0.0625
546,-0.63378906,0.020202637,-0.769104,0.171875,-0.96875,-0.03125
547,-0.6257324,0.020446777,-0.7737427,-0.421875,-0.859375,-0.046875
548,-0.6296387,0.024108887,-0.77593994,-0.4375,-0.71875,0.015625
549,-0.6237793,0.02557373,-0.76568604,-0.75,-0.359375,0.0
550,-0.6291504,0.01727295,-0.77301025,-0.828125,-1.03125,-0.09375
551,-0.6298828,0.018981934,-0.7661743,-0.328125,-0.5625,-0.421875
552,-0.6328125,0.018493652,-0.76812744,-0.609375,-0.796875,-0.15625
553,-0.63378906,0.016052246,-0.7678833,-0.765625,-1.140625,0.078125
554,-0.6364746,0.02142334,-0.77960205,-0.828125,-1.5625,0.0
555,-0.63134766,0.0138549805,-0.7654419,-0.75,-1.578125,0.109375
556,-0.6296387,0.01361084,-0.770813,-0.390625,-1.921875,0.125
557,-0.6274414,0.010192871,-0.77301025,-0.140625,-2.234375,0.265625
558,-0.62719727,0.016296387,-0.77838135,0.03125,-2.28125,0.078125
559,-0.6286621,0.015808105,-0.7744751,0.28125,-2.109375,-0.140625
560,-0.6237793,0.018981934,-0.7703247,1.046875,-1.59375,0.078125
561,-0.6225586,0.022399902,-0.7749634,0.8125,-1.609375,-0.125
562,-0.6237793,0.016052246,-0.77008057,0.296875,-0.59375,0.03125
563,-0.63134766,0.02166748,-0.7817993,0.125,-1.0,-0.078125
564,-0.623291,0.019470215,-0.7744751,0.140625,-0.875,-0.203125
565,-0.6269531,0.022888184,-0.770813,0.5625,-1.09375,-0.171875
566,-0.62524414,0.018249512,-0.77471924,0.390625,-1.109375,-0.265625
567,-0.625,0.019958496,-0.76763916,0.234375,-1.109375,-0.25
568,-0.6262207,0.021911621,-0.7803345,-0.046875,-1.0625,0.015625
569,-0.6333008,0.024597168,-0.7839966,-0.3125,-1.375,0.09375
570,-0.6311035,0.01727295,-0.7769165,-0.25,-1.28125,0.015625
571,-0.62353516,0.01751709,-0.7683716,-0.25,-1.109375,0.015625
572,-0.62719727,0.015075684,-0.77593994,0.046875,-1.328125,-0.15625
573,-0.63134766,0.0211792,-0.769104,-0.046875,-1.296875,-0.15625
574,-0.6281738,0.022644043,-0.77423096,0.015625,-1.34375,-0.046875
575,-0.62475586,0.0211792,-0.7744751,0.078125,-0.9375,-0.171875
576,-0.6286621,0.018737793,-0.77227783,0.34375,-0.796875,-0.171875
577,-0.6296387,0.026794434,-0.7710571,-0.171875,-0.921875,-0.046875
578,-0.63012695,0.024353027,-0.7803345,0.125,-1.015625,0.0
579,-0.62646484,0.018005371,-0.77911377,-0.078125,-0.875,0.015625
580,-0.6254883,0.021911621,-0.76568604,0.203125,-1.015625,-0.0625
581,-0.6274414,0.020690918,-0.7776489,0.234375,-1.03125,-0.140625
582,-0.6274414,0.020202637,-0.77178955,0.21875,-1.0,-0.078125
583,-0.62475586,0.02142334,-0.7710571,0.09375,-1.0,0.09375
584,-0.6345215,0.022155762,-0.77227783,0.515625,-0.765625,-0.15625
585,-0.6269531,0.022644043,-0.76812744,0.1875,-0.84375,-0.109375
586,-0.6308594,0.016540527,-0.7686157,0.46875,-1.015625,-0.109375
587,-0.6203613,0.02532959,-0.7703247,0.171875,-1.3125,-0.171875
588,-0.6296387,0.0211792,-0.7720337,0.09375,-1.140625,-0.09375
589,-0.6315918,0.026062012,-0.7732544,-0.125,-1.28125,-0.046875
590,-0.6279297,0.024597168,-0.77349854,-0.171875,-1.0,0.03125
591,-0.62475586,0.023376465,-0.7715454,-0.03125,-1.234375,-0.015625
592,-0.6213379,0.022155762,-0.76812744,0.015625,-0.921875,-0.09375
593,-0.62280273,0.01776123,-0.76885986,0.234375,-1.0,-0.046875
594,-0.63183594,0.022155762,-0.784729,-0.25,-1.15625,-0.046875
595,-0.6254883,0.018981934,-0.7595825,0.234375,-1.015625,-0.140625
596,-0.62475586,0.020202637,-0.76763916,0.28125,-1.3125,-0.140625
597,-0.6298828,0.020446777,-0.77911377,-0.125,-1.078125,-0.203125
598,-0.6262207,0.019226074,-0.77545166,0.015625,-1.078125,0.0
599,-0.6320801,0.027526855,-0.7727661,0.375,-1.109375,-0.109375
600,-0.63256836,0.020202637,-0.77838135,0.5,-1.078125,0.1875
601,-0.6257324,0.018737793,-0.77471924,0.140625,-1.15625,0.078125
602,-0.6254883,0.029724121,-0.7715454,0.140625,-1.0,0.015625
603,-0.626709,0.024841309,-0.7817993,0.234375,-1.0625,-0.03125
604,-0.6308594,0.024597168,-0.77667236,0.03125,-1.109375,-0.203125
605,-0.6298828,0.028015137,-0.7744751,0.328125,-0.59375,-0.25
606,-0.6286621,0.021911621,-0.7744751,0.65625,-0.234375,-0.359375
607,-0.63061523,0.027038574,-0.770813,0.3125,0.078125,-0.0625
608,-0.63378906,0.023864746,-0.7703247,0.3125,1.234375,0.0
609,-0.625,0.029724121,-0.75250244,0.3125,1.015625,0.125
610,-0.6447754,0.023132324,-0.7866821,-0.3125,-0.171875,0.453125
611,-0.638916,0.02166748,-0.7554321,0.0625,-0.375,0.15625
612,-0.640625,0.024841309,-0.76397705,0.15625,-0.78125,0.078125
613,-0.63793945,0.029724121,-0.7661743,-0.15625,-1.15625,0.046875
614,-0.6359863,0.026062012,-0.76104736,0.140625,-1.609375,0.109375
615,-0.64086914,0.022644043,-0.7659302,-0.078125,-1.390625,-0.0625
616,-0.638916,0.0211792,-0.76446533,-0.140625,-1.421875,0.015625
617,-0.6413574,0.026306152,-0.76934814,-0.234375,-0.890625,-0.0625
618,-0.640625,0.026794434,-0.77178955,-0.015625,-1.140625,-0.15625
619,-0.6386719,0.023132324,-0.7649536,-0.046875,-1.296875,-0.171875
620,-0.62939453,0.018737793,-0.76397705,-0.421875,-1.375,-0.171875
621,-0.6359863,0.022399902,-0.7593384,-0.21875,-1.15625,-0.078125
622,-0.63500977,0.025817871,-0.7661743,-0.265625,-1.0,0.125
623,-0.6376953,0.026306152,-0.76226807,0.0625,-1.09375,-0.078125
624,-0.6345215,0.026550293,-0.76690674,-0.140625,-0.921875,-0.03125
625,-0.63623047,0.023864746,-0.75738525,-0.15625,-0.75,0.0625
626,-0.6413574,0.026306152,-0.77349854,-0.4375,-1.09375,0.03125
627,-0.64086914,0.02532959,-0.7559204,-0.078125,-0.640625,0.171875
628,-0.63256836,0.022399902,-0.7600708,-0.15625,-1.59375,0.203125
629,-0.638916,0.024108887,-0.76812744,-0.53125,-0.84375,0.265625
630,-0.6435547,0.023132324,-0.7683716,-0.625,-0.78125,0.296875
631,-0.64282227,0.022155762,-0.76397705,-0.359375,-0.9375,0.015625
632,-0.64282227,0.023132324,-0.76104736,-0.0625,-1.15625,0.171875
633,-0.642334,0.025817871,-0.7632446,-0.015625,-0.890625,-0.015625
634,-0.6425781,0.018981934,-0.7564087,0.15625,-1.203125,0.125
635,-0.64501953,0.024353027,-0.77130127,0.109375,-1.0,0.015625
636,-0.63964844,0.018981934,-0.76519775,0.0,-0.953125,-0.03125
637,-0.638916,0.02532959,-0.7756958,-0.234375,-0.625,0.109375
638,-0.6491699,0.018493652,-0.772522,-0.90625,-0.203125,0.53125
639,-0.6442871,0.0099487305,-0.75860596,-0.78125,1.03125,0.78125
640,-0.64086914,0.010925293,-0.7583618,-0.765625,0.046875,0.703125
641,-0.6467285,0.015319824,-0.756897,-0.40625,0.375,0.515625
642,-0.654541,0.014587402,-0.7559204,0.0625,-0.34375,0.625
643,-0.64941406,0.010192871,-0.753479,0.015625,-0.265625,0.375
644,-0.6513672,0.014587402,-0.75201416,0.234375,-0.78125,0.125
645,-0.65478516,0.015563965,-0.76031494,0.03125,-0.140625,0.140625
646,-0.64941406,0.018249512,-0.75250244,0.046875,-0.125,0.34375
647,-0.65893555,0.018493652,-0.75982666,-0.078125,0.453125,0.90625
648,-0.6611328,0.009460449,-0.75494385,0.03125,2.625,1.828125
649,-0.6591797,0.013366699,-0.7529907,0.078125,1.421875,1.671875
650,-0.6599121,0.0045776367,-0.7444458,0.203125,0.734375,1.1875
651,-0.66064453,0.009460449,-0.74884033,0.46875,0.03125,0.703125
652,-0.6567383,0.008239746,-0.7420044,0.015625,-0.484375,0.578125
653,-0.6611328,0.010437012,-0.74224854,-0.0625,-0.546875,0.171875
654,-0.6645508,0.011657715,-0.74835205,-0.03125,-1.03125,0.171875
655,-0.6665039,0.006286621,-0.75006104,0.0,-0.25,0.265625
656,-0.6706543,0.0028686523,-0.7341919,0.515625,-0.9375,0.078125
657,-0.66845703,0.008239746,-0.7451782,1.265625,0.75,0.359375
658,-0.6699219,0.018005371,-0.7424927,1.0625,1.28125,0.921875
659,-0.6765137,0.008972168,-0.7373657,0.625,0.3125,0.984375
660,-0.6723633,0.012145996,-0.7329712,0.6875,-0.34375,0.890625
661,-0.67529297,0.0067749023,-0.7449341,0.34375,-0.921875,0.40625
662,-0.6706543,0.008728027,-0.7341919,0.125,-1.828125,-0.09375
663,-0.67211914,0.012878418,-0.7407837,-0.0625,-1.875,-0.09375
664,-0.670166,0.0045776367,-0.73565674,-0.171875,-1.203125,0.078125
665,-0.6682129,0.008239746,-0.73272705,0.0,-0.90625,0.046875
666,-0.67529297,0.007751465,-0.736145,0.0,-1.359375,0.015625
667,-0.6726074,0.0053100586,-0.7346802,-0.078125,-1.734375,0.015625
668,-0.66845703,0.013366699,-0.7371216,-0.15625,-1.453125,0.15625
669,-0.67944336,0.00579834,-0.736145,0.046875,-0.890625,-0.046875
670,-0.66796875,0.007751465,-0.7481079,-0.140625,-1.0625,0.078125
671,-0.67285156,0.007019043,-0.7402954,-0.078125,-0.40625,0.15625
672,-0.6672363,0.0033569336,-0.7359009,-0.03125,-1.0625,-0.09375
673,-0.6677246,0.008972168,-0.7271118,0.265625,-1.171875,-0.03125
674,-0.67089844,0.011413574,-0.7456665,0.578125,-0.453125,-0.1875
675,-0.6772461,0.014343262,-0.7390747,-0.0625,-0.453125,0.109375
676,-0.67333984,0.0099487305,-0.7349243,0.359375,0.796875,0.078125
677,-0.68066406,0.008239746,-0.7300415,0.65625,-0.109375,0.046875
678,-0.68066406,0.010192871,-0.74542236,0.5625,0.4375,0.296875
679,-0.6801758,0.0079956055,-0.7251587,0.90625,3.078125,1.046875
680,-0.6828613,0.009216309,-0.72979736,0.640625,0.84375,1.34375
681,-0.6887207,0.0014038086,-0.7271118,0.3125,0.40625,0.890625
682,-0.6838379,0.0119018555,-0.72076416,0.15625,-0.125,0.4375
683,-0.68530273,-0.0029907227,-0.7139282,-0.078125,-1.0,-0.046875
684,-0.6887207,0.0040893555,-0.72613525,-0.234375,-2.46875,-0.078125
685,-0.6838379,0.0048217773,-0.72784424,0.015625,-0.890625,0.25
686,-0.69189453,0.010192871,-0.72857666,-0.125,-0.84375,0.0
687,-0.6855469,0.008972168,-0.72735596,-0.15625,-0.796875,-0.0625
688,-0.6784668,0.0072631836,-0.73223877,-0.3125,-0.75,0.21875
689,-0.68847656,0.003112793,-0.72247314,0.328125,-0.78125,-0.046875
690,-0.6855469,0.0079956055,-0.7251587,0.03125,-1.71875,-0.046875
691,-0.68359375,0.0065307617,-0.72442627,-0.53125,-1.125,0.328125
692,-0.6855469,0.0033569336,-0.71881104,-0.5,-1.6875,0.265625
693,-0.69311523,0.0033569336,-0.72003174,-0.046875,-1.15625,-0.015625
694,-0.6911621,0.0048217773,-0.7258911,-0.03125,-2.171875,-0.203125
695,-0.6850586,0.0065307617,-0.7349243,-0.1875,-2.234375,-0.28125
696,-0.69140625,0.010437012,-0.7283325,0.0625,-1.75,-0.546875
697,-0.6813965,0.00579834,-0.7319946,0.125,-2.53125,-0.578125
698,-0.67749023,0.0045776367,-0.71832275,0.40625,-3.34375,-0.984375
699,-0.66625977,0.0014038086,-0.72003174,0.828125,-6.78125,-1.578125
700,-0.6635742,0.010925293,-0.74468994,0.5625,-6.625,-1.546875
701,-0.6672363,0.015319824,-0.74542236,0.515625,-3.65625,-0.90625
702,-0.66503906,0.018981934,-0.7449341,0.703125,-2.671875,-0.703125
703,-0.6677246,0.019226074,-0.7505493,0.5,-2.25,-0.578125
704,-0.66674805,0.017028809,-0.74786377,0.59375,-3.421875,-0.734375
705,-0.6591797,0.016296387,-0.74346924,0.84375,-4.25,-0.84375
706,-0.6516113,0.018249512,-0.7498169,0.578125,-3.953125,-0.859375
707,-0.65649414,0.022644043,-0.76397705,0.21875,-2.9375,-0.421875
708,-0.6464844,0.016784668,-0.7503052,0.453125,-2.625,-0.59375
709,-0.64868164,0.025817871,-0.7625122,0.40625,-2.953125,-0.78125
710,-0.64746094,0.023132324,-0.76104736,-0.46875,-2.453125,-0.875
711,-0.64453125,0.022644043,-0.76690674,-0.46875,-2.015625,-0.5
712,-0.6464844,0.019226074,-0.7583618,-0.65625,-2.015625,-0.734375
713,-0.6413574,0.0211792,-0.753479,-1.09375,-2.390625,-0.6875
714,-0.64282227,0.012145996,-0.755188,-0.953125,-1.8125,-0.9375
715,-0.6398926,0.01727295,-0.76885986,-0.84375,-1.890625,-0.546875
716,-0.64453125,0.022644043,-0.76446533,-0.984375,-1.734375,-0.671875
717,-0.6357422,0.022888184,-0.7554321,-0.796875,-1.484375,-0.734375
718,-0.64331055,0.019958496,-0.7632446,-1.296875,-1.796875,-0.453125
719,-0.63793945,0.020202637,-0.76519775,-1.03125,-1.75,-0.625
720,-0.6401367,0.024841309,-0.7703247,-0.828125,-2.1875,-0.34375
721,-0.642334,0.014099121,-0.75909424,-0.75,-1.734375,-0.640625
722,-0.6352539,0.014587402,-0.77667236,-0.828125,-1.9375,-0.328125
723,-0.6386719,0.01727295,-0.7593384,-1.15625,-1.5,-0.71875
724,-0.6352539,0.018737793,-0.7649536,-0.625,-1.71875,-0.390625
725,-0.6413574,0.016296387,-0.7737427,-0.765625,-1.796875,-0.5
726,-0.6352539,0.011657715,-0.76153564,-0.65625,-1.421875,-0.25
727,-0.6374512,0.015075684,-0.7710571,-1.015625,-1.875,-0.359375
728,-0.63500977,0.014831543,-0.7678833,-0.328125,-1.921875,-0.4375
729,-0.6308594,0.015563965,-0.7715454,-0.84375,-1.765625,-0.34375
730,-0.6323242,0.01361084,-0.7698364,-0.515625,-1.625,-0.234375
731,-0.6262207,0.013122559,-0.7683716,-0.421875,-1.859375,-0.234375
732,-0.626709,0.01727295,-0.769104,0.046875,-1.859375,-0.140625
733,-0.63012695,0.0119018555,-0.7815552,0.59375,-1.84375,-0.109375
734,-0.62402344,0.013122559,-0.75860596,1.71875,-2.5,0.0625
735,-0.61816406,0.012145996,-0.77227783,1.078125,-2.171875,-0.03125
736,-0.62890625,0.019226074,-0.7876587,0.375,-1.625,-0.140625
737,-0.6281738,0.016784668,-0.7913208,0.3125,-0.859375,-0.15625
738,-0.63427734,0.020202637,-0.76934814,0.53125,-0.3125,-0.15625
739,-0.62768555,0.023376465,-0.77716064,0.734375,0.1875,-0.296875
740,-0.6364746,0.01361084,-0.77349854,0.15625,-0.53125,-0.078125
741,-0.6230469,0.014587402,-0.76885986,0.1875,-0.8125,-0.109375
742,-0.61938477,0.022155762,-0.75372314,0.578125,-0.109375,-0.15625
743,-0.6286621,0.02532959,-0.76446533,0.203125,-0.78125,-0.046875
744,-0.6333008,0.02923584,-0.7661743,-0.234375,-1.21875,-0.046875
745,-0.63720703,0.020446777,-0.77008057,-0.03125,-1.46875,-0.140625
746,-0.6281738,0.019470215,-0.7715454,0.0,-1.6875,0.015625
747,-0.6269531,0.023864746,-0.772522,-0.140625,-1.5625,0.03125
748,-0.6269531,0.024353027,-0.76397705,-0.15625,-1.21875,0.0
749,-0.6220703,0.026550293,-0.7647095,-0.125,-1.28125,-0.078125
750,-0.6220703,0.016540527,-0.76690674,0.0625,-1.234375,-0.15625
751,-0.6298828,0.019226074,-0.78570557,-0.34375,-1.28125,0.140625
752,-0.6262207,0.019714355,-0.7737427,-0.125,-1.25,-0.140625
753,-0.625,0.02557373,-0.77349854,0.046875,-1.453125,0.0
754,-0.62768555,0.026550293,-0.77178955,-0.09375,-1.203125,-0.015625
755,-0.62768555,0.01751709,-0.767395,0.203125,-0.9375,-0.140625
756,-0.6298828,0.024841309,-0.7715454,-0.0625,-1.1875,0.03125
757,-0.626709,0.01776123,-0.7737427,-0.03125,-1.046875,-0.046875
758,-0.62280273,0.016784668,-0.77349854,-0.109375,-0.796875,-0.046875
759,-0.625,0.027282715,-0.77301025,0.03125,-0.96875,-0.234375
