sample_no,accel_x,accel_y,accel_z,gyro_x,gyro_y,gyro_z
0,0.7685547,0.30194092,0.5477905,0.6875,1.328125,1.875
1,0.7644043,0.30291748,0.55267334,-1.8125,1.140625,1.390625
2,0.7619629,0.29412842,0.5553589,-2.453125,1.0,-0.671875
3,0.76904297,0.309021,0.55877686,-0.96875,0.703125,0.078125
4,0.7702637,0.30877686,0.54803467,1.78125,0.515625,1.546875
5,0.7651367,0.3048706,0.5543823,3.0,0.75,2.34375
6,0.7548828,0.30926514,0.5516968,1.625,0.984375,1.953125
7,0.7668457,0.30926514,0.55218506,-0.71875,0.65625,3.140625
8,0.75927734,0.31903076,0.56707764,-2.609375,0.625,3.3125
9,0.75390625,0.30828857,0.5621948,0.59375,0.4375,2.828125
10,0.7661133,0.30291748,0.55682373,5.34375,0.546875,3.109375
11,0.75439453,0.30804443,0.56463623,3.6875,1.390625,2.15625
12,0.7434082,0.32122803,0.5775757,-0.859375,0.8125,0.28125
13,0.7531738,0.31854248,0.5639038,-0.234375,-0.203125,-0.609375
14,0.7553711,0.30975342,0.56414795,0.203125,0.09375,-0.4375
15,0.74853516,0.31707764,0.5626831,0.25,0.53125,0.828125
16,0.7590332,0.31219482,0.5631714,-0.703125,0.96875,1.109375
17,0.75341797,0.30682373,0.57147217,-1.78125,1.390625,0.765625
18,0.7578125,0.30194092,0.56121826,-3.25,0.59375,-0.3125
19,0.75146484,0.31488037,0.56951904,-2.59375,0.140625,-0.921875
20,0.75390625,0.32611084,0.5609741,-2.140625,0.203125,-0.75
21,0.7590332,0.3156128,0.55340576,0.5,0.578125,-0.28125
22,0.75219727,0.3163452,0.5585327,0.046875,1.234375,0.796875
23,0.75390625,0.3209839,0.55877686,-1.203125,0.8125,1.421875
24,0.7548828,0.32366943,0.55755615,-2.53125,0.796875,0.71875
25,0.751709,0.31414795,0.56781006,-2.203125,0.71875,1.28125
26,0.7590332,0.32391357,0.5717163,-0.3125,0.21875,0.890625
27,0.7470703,0.32562256,0.5709839,-0.828125,0.375,0.015625
28,0.75146484,0.31707764,0.5609741,-1.875,-0.09375,-0.4375
29,0.76123047,0.32269287,0.5661011,-1.609375,0.71875,-0.125
30,0.7519531,0.3234253,0.5602417,0.640625,1.078125,0.84375
31,0.7519531,0.32269287,0.5499878,1.453125,1.078125,1.578125
32,0.7495117,0.3217163,0.55926514,0.015625,0.953125,1.65625
33,0.7495117,0.32244873,0.5621948,-1.171875,0.328125,0.640625
34,0.75634766,0.3126831,0.57073975,-3.578125,0.15625,-0.4375
35,0.7504883,0.33148193,0.5651245,-3.296875,0.296875,0.078125
36,0.74121094,0.33807373,0.56951904,-0.578125,0.578125,-0.328125
37,0.74121094,0.33416748,0.55926514,0.75,0.53125,0.421875
38,0.75219727,0.32489014,0.55267334,-0.671875,1.046875,0.9375
39,0.75268555,0.3348999,0.5680542,-2.09375,0.953125,0.546875
40,0.7507324,0.3287964,0.56707764,-2.3125,0.875,0.171875
41,0.75024414,0.32537842,0.56658936,1.125,0.828125,0.5625
42,0.75683594,0.32489014,0.5700073,2.53125,1.15625,0.1875
43,0.75634766,0.3222046,0.56121826,1.875,1.03125,0.15625
44,0.75341797,0.322937,0.55511475,-0.03125,1.078125,0.59375
45,0.7585449,0.3283081,0.55804443,-1.421875,1.15625,0.953125
46,0.74438477,0.33026123,0.5643921,-0.03125,0.796875,1.953125
47,0.74780273,0.3361206,0.5602417,1.046875,0.5625,2.328125
48,0.7529297,0.33050537,0.56073,1.59375,0.46875,2.21875
49,0.7504883,0.33563232,0.5595093,1.921875,0.328125,2.625
50,0.7495117,0.3397827,0.5595093,2.203125,0.625,3.015625
51,0.74731445,0.32928467,0.5675659,0.046875,0.65625,2.21875
52,0.7380371,0.33465576,0.57366943,-1.078125,0.125,1.1875
53,0.7438965,0.3270874,0.57073975,-1.40625,0.421875,0.90625
54,0.74902344,0.34124756,0.57440186,1.3125,1.0,1.28125
55,0.7453613,0.3414917,0.572937,2.515625,1.703125,1.484375
56,0.7429199,0.34466553,0.5770874,0.21875,1.578125,0.53125
57,0.7397461,0.33294678,0.5621948,-0.65625,1.734375,0.609375
58,0.7451172,0.33050537,0.56536865,0.046875,1.703125,0.5
59,0.7392578,0.32855225,0.5675659,-0.75,1.703125,-0.390625
60,0.7414551,0.32904053,0.5585327,-1.90625,1.046875,-1.15625
61,0.7558594,0.3373413,0.56048584,-5.71875,-0.546875,-1.609375
62,0.75805664,0.3361206,0.55389404,-7.921875,-0.8125,-1.90625
63,0.75439453,0.3390503,0.55584717,-6.15625,-0.75,-2.421875
64,0.74902344,0.33392334,0.5626831,-4.1875,-0.03125,-0.296875
65,0.7441406,0.34613037,0.5687866,-1.359375,0.96875,0.40625
66,0.74316406,0.3427124,0.56414795,0.359375,1.453125,0.75
67,0.73876953,0.34222412,0.5570679,0.421875,1.640625,0.109375
68,0.7338867,0.33441162,0.5692749,-3.53125,1.953125,-2.828125
69,0.74487305,0.3463745,0.56951904,-9.203125,2.1875,-4.984375
70,0.751709,0.3439331,0.5512085,-9.03125,1.96875,-4.109375
71,0.75512695,0.3456421,0.5463257,-3.75,2.328125,-3.671875
72,0.76660156,0.338562,0.53900146,-1.765625,3.0625,-2.84375
73,0.7780762,0.34613037,0.527771,-2.078125,2.421875,-1.4375
74,0.7800293,0.32757568,0.5114136,-1.375,3.015625,-0.59375
75,0.7807617,0.3307495,0.5128784,-1.59375,2.09375,-0.859375
76,0.78808594,0.3287964,0.524353,0.421875,0.828125,1.296875
77,0.796875,0.32904053,0.5336304,-3.59375,-0.828125,3.328125
78,0.7788086,0.3546753,0.5084839,-6.125,-0.5625,5.609375
79,0.74072266,0.35906982,0.52093506,-0.140625,-0.640625,4.109375
80,0.74365234,0.3632202,0.5368042,0.4375,-1.046875,2.046875
81,0.7426758,0.3600464,0.52923584,-0.9375,-0.671875,2.375
82,0.7480469,0.35882568,0.53826904,-0.34375,-0.46875,1.859375
83,0.7463379,0.3661499,0.5529175,1.84375,0.15625,1.390625
84,0.7451172,0.3571167,0.555603,1.28125,0.453125,1.953125
85,0.7492676,0.36297607,0.5477905,-2.203125,0.515625,2.265625
86,0.7434082,0.37957764,0.5338745,-4.21875,0.984375,0.6875
87,0.7441406,0.37982178,0.54681396,-1.421875,0.703125,0.46875
88,0.7426758,0.37835693,0.5372925,0.140625,0.578125,0.28125
89,0.74609375,0.37347412,0.5429077,-0.140625,0.421875,0.625
90,0.7531738,0.36151123,0.5380249,-0.59375,1.09375,-0.109375
91,0.75024414,0.36834717,0.53533936,0.328125,1.515625,0.328125
92,0.75512695,0.36688232,0.5363159,2.1875,1.4375,0.828125
93,0.7470703,0.3703003,0.53778076,4.09375,1.625,0.921875
94,0.7458496,0.36273193,0.5302124,0.578125,1.375,1.1875
95,0.74731445,0.36639404,0.5385132,-3.328125,0.53125,0.875
96,0.751709,0.36175537,0.54071045,-5.171875,-0.015625,-0.25
97,0.7524414,0.3546753,0.5236206,-4.265625,-1.046875,0.125
98,0.7607422,0.3685913,0.52264404,1.90625,-1.65625,2.90625
99,0.78393555,0.36883545,0.5338745,5.640625,-0.875,4.25
100,0.7619629,0.39276123,0.543396,8.71875,0.6875,8.78125
101,0.7294922,0.39593506,0.54901123,10.4375,0.328125,8.890625
102,0.70874023,0.38372803,0.5597534,7.5,0.15625,5.609375
103,0.70654297,0.37786865,0.56658936,2.578125,-0.046875,3.546875
104,0.7355957,0.36517334,0.5685425,0.671875,0.59375,3.515625
105,0.7192383,0.38983154,0.5922241,1.4375,2.125,3.6875
106,0.71118164,0.37713623,0.59246826,6.640625,3.875,-0.375
107,0.7302246,0.36395264,0.590271,9.6875,1.875,-5.1875
108,0.7285156,0.371521,0.5951538,9.484375,0.890625,-5.859375
109,0.7194824,0.3517456,0.5944214,6.546875,1.1875,-6.125
110,0.7282715,0.33807373,0.5680542,2.515625,1.96875,-7.46875
111,0.73706055,0.32122803,0.54608154,-0.6875,1.953125,-4.84375
112,0.7487793,0.32244873,0.5585327,-1.484375,2.078125,0.09375
113,0.7541504,0.3241577,0.5463257,-2.15625,2.9375,-0.171875
114,0.7531738,0.3143921,0.54901123,-3.96875,0.96875,0.3125
115,0.7578125,0.32391357,0.5709839,-1.46875,-0.09375,1.34375
116,0.7578125,0.3270874,0.5717163,0.640625,-0.421875,1.046875
117,0.76416016,0.3295288,0.56073,0.46875,-0.390625,0.921875
118,0.7397461,0.33685303,0.55877686,1.296875,-0.421875,1.03125
119,0.7429199,0.3312378,0.57073975,-0.625,-0.96875,1.125
120,0.7429199,0.33465576,0.56781006,-0.78125,-0.609375,2.0
121,0.74072266,0.32440186,0.57562256,-0.234375,-0.015625,1.90625
122,0.74658203,0.3300171,0.58465576,-2.6875,0.53125,0.875
123,0.7229004,0.3444214,0.5993042,-2.515625,0.265625,1.890625
124,0.7145996,0.34539795,0.5883179,-2.765625,-0.1875,-0.171875
125,0.72998047,0.34124756,0.5800171,-2.9375,0.03125,-1.46875
126,0.7380371,0.33929443,0.5775757,-1.828125,0.265625,-0.125
127,0.7463379,0.34075928,0.5704956,0.59375,0.71875,0.78125
128,0.7463379,0.3463745,0.56903076,5.0,0.71875,4.09375
129,0.7336426,0.34539795,0.57244873,8.5,0.78125,5.328125
130,0.7133789,0.33392334,0.5778198,6.90625,1.4375,4.0625
131,0.7414551,0.31341553,0.58807373,-0.796875,1.421875,0.703125
132,0.73657227,0.34100342,0.5861206,-3.578125,0.03125,0.5625
133,0.7175293,0.3505249,0.59490967,0.171875,-1.03125,1.453125
134,0.73168945,0.34051514,0.5883179,4.828125,-0.21875,-0.453125
135,0.74072266,0.32806396,0.5890503,5.234375,0.515625,-0.4375
136,0.7216797,0.33441162,0.5895386,1.5,1.53125,1.328125
137,0.72265625,0.3373413,0.5836792,0.28125,1.109375,1.734375
138,0.7302246,0.3295288,0.5883179,0.296875,0.921875,2.046875
139,0.73461914,0.33099365,0.60443115,0.078125,0.78125,2.078125
140,0.73217773,0.3361206,0.61395264,1.953125,1.328125,1.0625
141,0.7121582,0.32928467,0.60736084,0.609375,1.515625,-0.59375
142,0.70703125,0.3307495,0.6005249,-1.328125,0.890625,-1.546875
143,0.7233887,0.32440186,0.58758545,-3.140625,0.609375,-3.15625
144,0.7463379,0.3180542,0.59661865,-3.8125,1.296875,-1.90625
145,0.7402344,0.3283081,0.5783081,-4.203125,2.921875,-1.765625
146,0.73413086,0.3348999,0.5853882,-4.25,2.265625,-0.703125
147,0.7434082,0.33026123,0.5853882,-2.8125,1.1875,-2.0
148,0.7421875,0.3295288,0.576355,-3.109375,1.265625,-2.21875
149,0.7421875,0.33343506,0.57073975,-2.6875,0.90625,-1.5625
150,0.7548828,0.3295288,0.5700073,-1.03125,1.109375,-1.09375
151,0.7546387,0.33465576,0.5922241,1.0625,2.765625,-1.546875
152,0.76000977,0.32904053,0.5956421,4.9375,3.09375,-1.0625
153,0.74365234,0.32318115,0.59295654,10.0625,3.109375,0.484375
154,0.7297363,0.30755615,0.56781006,10.0625,2.109375,0.390625
155,0.7224121,0.29901123,0.5787964,10.03125,2.109375,-0.09375
156,0.748291,0.2929077,0.58587646,6.703125,1.40625,0.15625
157,0.75439453,0.28216553,0.58270264,1.921875,0.515625,0.8125
158,0.7434082,0.28778076,0.5861206,-0.703125,1.0,1.328125
159,0.74316406,0.2892456,0.57318115,-3.34375,-0.828125,0.34375
160,0.74731445,0.29241943,0.5817261,-2.6875,-1.5,-0.140625
161,0.7438965,0.3036499,0.59588623,-1.828125,-1.53125,0.0
162,0.7434082,0.2946167,0.61639404,-0.71875,-1.1875,0.828125
163,0.7441406,0.2946167,0.60028076,-3.765625,-1.0,0.3125
164,0.74072266,0.30511475,0.59490967,-3.40625,-0.625,-0.703125
165,0.74560547,0.29901123,0.58807373,-2.375,0.453125,-0.265625
166,0.74121094,0.30291748,0.590271,-1.171875,0.078125,0.140625
167,0.74072266,0.30438232,0.590271,-1.78125,0.359375,0.359375
168,0.7446289,0.29388428,0.58880615,-1.0625,0.28125,0.671875
169,0.7404785,0.3053589,0.5968628,-0.625,0.75,0.34375
170,0.74121094,0.30340576,0.59783936,-1.015625,0.65625,0.328125
171,0.7416992,0.3060913,0.5951538,-1.6875,0.671875,0.0625
172,0.74072266,0.30194092,0.59588623,-0.84375,0.609375,0.265625
173,0.74072266,0.30828857,0.5910034,-0.71875,0.671875,-0.015625
174,0.7392578,0.31243896,0.5873413,-1.140625,0.78125,0.4375
175,0.7331543,0.30267334,0.5841675,-2.4375,0.9375,0.515625
176,0.7416992,0.31121826,0.5934448,-2.484375,0.40625,0.34375
177,0.7414551,0.3114624,0.6063843,-1.078125,0.109375,-0.046875
178,0.7409668,0.30950928,0.59124756,-0.390625,0.828125,0.328125
179,0.7373047,0.30999756,0.59906006,-1.453125,0.53125,0.75
180,0.7375488,0.30560303,0.59246826,-2.109375,0.828125,0.015625
181,0.736084,0.31292725,0.59490967,-0.875,1.515625,-0.265625
182,0.7416992,0.31829834,0.60980225,0.390625,2.828125,-0.671875
183,0.75146484,0.3048706,0.5968628,1.53125,3.71875,-1.265625
184,0.74780273,0.3053589,0.58392334,3.546875,2.0625,-0.609375
185,0.7368164,0.30462646,0.5848999,4.1875,1.515625,-0.296875
186,0.7392578,0.3007202,0.59368896,5.109375,1.203125,-0.890625
187,0.7441406,0.28607178,0.59417725,5.109375,1.78125,-1.359375
188,0.7546387,0.27337646,0.58514404,5.4375,2.0625,-0.875
189,0.7470703,0.27069092,0.58636475,3.921875,1.609375,0.265625
190,0.74316406,0.2802124,0.5751343,1.984375,0.828125,0.359375
191,0.7421875,0.27972412,0.5817261,-1.640625,-0.203125,0.015625
192,0.74365234,0.28338623,0.576355,-5.6875,-0.453125,0.296875
193,0.7495117,0.2946167,0.6078491,-5.90625,-1.765625,1.828125
194,0.74487305,0.2838745,0.61639404,-2.984375,-2.1875,1.984375
195,0.75097656,0.28240967,0.61517334,-1.359375,-0.671875,0.53125
196,0.7507324,0.28582764,0.5910034,0.703125,0.375,0.734375
197,0.7336426,0.28875732,0.5787964,-1.453125,1.375,0.5625
198,0.73779297,0.3085327,0.59954834,-4.0,0.34375,0.671875
199,0.7429199,0.29534912,0.61053467,-1.265625,-0.796875,0.265625
200,0.74121094,0.2850952,0.5997925,-2.421875,-0.078125,0.359375
201,0.73217773,0.29144287,0.605896,-1.421875,0.375,1.296875
202,0.734375,0.3065796,0.6083374,0.875,0.09375,0.5
203,0.7390137,0.29412842,0.59417725,-1.140625,0.046875,-0.4375
204,0.73779297,0.30194092,0.59588623,-1.234375,0.03125,0.375
205,0.7421875,0.29852295,0.6022339,0.0,0.40625,0.609375
206,0.7385254,0.29486084,0.60369873,-1.515625,0.125,0.203125
207,0.7355957,0.29779053,0.6000366,-2.0,0.5625,0.4375
208,0.72802734,0.30291748,0.5824585,-5.171875,0.984375,0.1875
209,0.74072266,0.31463623,0.61151123,-2.953125,0.953125,0.4375
210,0.7458496,0.29486084,0.6071167,-0.296875,0.1875,0.1875
211,0.7368164,0.29364014,0.59710693,-1.921875,0.421875,0.34375
212,0.7307129,0.30584717,0.6051636,-0.015625,0.671875,0.609375
213,0.7351074,0.3078003,0.5973511,0.09375,1.0,0.1875
214,0.7272949,0.3060913,0.59368896,-2.1875,0.8125,0.15625
215,0.73583984,0.30804443,0.5946655,-1.40625,0.921875,0.5
216,0.73828125,0.30999756,0.6063843,-0.9375,0.859375,0.921875
217,0.7390137,0.30682373,0.60321045,-0.71875,0.984375,1.109375
218,0.7375488,0.30462646,0.5968628,-1.546875,1.171875,1.0
219,0.7348633,0.30584717,0.59539795,-2.296875,1.359375,0.65625
220,0.7402344,0.32000732,0.5993042,-1.03125,0.671875,1.53125
221,0.736084,0.31536865,0.5831909,-1.890625,0.3125,1.5625
222,0.73657227,0.3241577,0.59124756,-0.984375,0.921875,2.890625
223,0.73779297,0.31536865,0.58465576,-1.953125,0.6875,2.46875
224,0.7302246,0.32000732,0.5848999,-1.59375,1.078125,0.734375
225,0.7246094,0.32611084,0.5844116,-4.171875,1.03125,-0.078125
226,0.7355957,0.32733154,0.60614014,-2.71875,0.03125,0.578125
227,0.73657227,0.32977295,0.6005249,-1.640625,-0.0625,0.375
228,0.7260742,0.33172607,0.59783936,0.140625,0.625,0.765625
229,0.72094727,0.32977295,0.590271,0.84375,1.03125,0.8125
230,0.7224121,0.33636475,0.5932007,-0.515625,0.671875,-0.078125
231,0.73461914,0.33465576,0.59051514,-1.484375,0.46875,0.015625
232,0.72875977,0.32537842,0.58270264,-2.546875,0.90625,0.65625
233,0.7290039,0.3312378,0.58929443,-1.046875,1.078125,0.8125
234,0.72265625,0.3366089,0.59368896,-0.765625,1.4375,0.6875
235,0.7277832,0.3283081,0.59295654,-1.484375,1.34375,0.203125
236,0.73168945,0.33685303,0.58709717,-1.609375,1.328125,-0.84375
237,0.732666,0.33270264,0.58270264,-1.03125,1.71875,-0.671875
238,0.7331543,0.33831787,0.5944214,-0.296875,1.90625,-0.171875
239,0.7331543,0.3361206,0.5866089,-0.296875,1.84375,-0.6875
240,0.7368164,0.33758545,0.586853,-0.8125,1.921875,-1.453125
241,0.72802734,0.33929443,0.5856323,-2.1875,1.921875,-1.484375
242,0.73461914,0.33099365,0.56585693,-4.859375,1.546875,-1.5625
243,0.7438965,0.33026123,0.5770874,-4.40625,1.015625,-0.34375
244,0.74365234,0.32781982,0.57196045,-4.796875,1.6875,0.171875
245,0.7458496,0.32806396,0.57366943,-3.359375,1.53125,1.140625
246,0.7468262,0.33758545,0.57147217,-2.484375,0.921875,0.46875
247,0.7492676,0.3324585,0.5648804,-1.203125,0.765625,0.15625
248,0.7397461,0.34320068,0.5661011,1.984375,0.71875,0.8125
249,0.73779297,0.3468628,0.55267334,0.90625,0.53125,1.84375
250,0.7421875,0.3414917,0.5626831,-0.515625,0.03125,1.984375
251,0.73999023,0.3439331,0.56707764,-1.984375,-0.046875,1.890625
252,0.73168945,0.3427124,0.5817261,-2.328125,0.390625,1.859375
253,0.7297363,0.34881592,0.5819702,-2.71875,0.140625,1.328125
254,0.73339844,0.3451538,0.5783081,-0.671875,0.703125,1.25
255,0.7285156,0.3493042,0.5807495,0.65625,0.734375,1.234375
256,0.7285156,0.35760498,0.5675659,0.015625,1.046875,0.9375
257,0.7324219,0.354187,0.56951904,-1.625,1.171875,0.953125
258,0.73291016,0.35565186,0.5668335,-2.609375,1.421875,1.15625
259,0.73168945,0.35638428,0.5697632,-1.703125,1.203125,0.96875
260,0.7312012,0.3493042,0.56707764,-1.078125,0.90625,0.4375
261,0.74316406,0.3505249,0.5687866,-0.03125,0.890625,0.375
262,0.74194336,0.35516357,0.55682373,-0.890625,0.609375,0.28125
263,0.7285156,0.3607788,0.56292725,-0.625,0.25,0.421875
264,0.736084,0.35736084,0.5685425,-1.5625,-0.25,-0.09375
265,0.73046875,0.36590576,0.56951904,-0.109375,0.1875,0.109375
266,0.73291016,0.35980225,0.57440186,0.046875,0.25,0.609375
267,0.7297363,0.35784912,0.5717163,-0.5625,0.515625,0.9375
268,0.72998047,0.35980225,0.5631714,-1.5625,0.484375,0.671875
269,0.7312012,0.35614014,0.5700073,-1.828125,0.65625,0.84375
270,0.732666,0.3649292,0.5722046,-1.859375,0.3125,0.59375
271,0.73217773,0.36639404,0.57489014,-0.296875,0.6875,0.109375
272,0.7285156,0.36517334,0.5717163,-0.421875,0.59375,0.265625
273,0.72631836,0.3619995,0.5687866,-0.515625,0.5,0.203125
274,0.73095703,0.36956787,0.57025146,-1.046875,0.703125,0.140625
275,0.7324219,0.36468506,0.57073975,-2.53125,0.5,0.40625
276,0.7253418,0.37127686,0.5700073,-1.296875,1.578125,0.8125
277,0.7331543,0.36663818,0.57366943,-0.84375,0.90625,1.28125
278,0.73046875,0.3583374,0.5595093,-0.21875,0.96875,-0.03125
279,0.73461914,0.36639404,0.5648804,-0.59375,0.53125,0.265625
280,0.7302246,0.369812,0.5675659,-0.34375,0.96875,-0.109375
281,0.734375,0.36541748,0.5643921,0.1875,0.828125,-0.5
282,0.7314453,0.36590576,0.5643921,0.390625,0.609375,0.0625
283,0.7338867,0.36810303,0.571228,0.40625,0.453125,0.578125
284,0.7270508,0.3595581,0.559021,-0.5,0.453125,0.453125
285,0.7211914,0.35882568,0.5687866,-1.34375,0.59375,0.46875
286,0.73535156,0.3678589,0.5775757,-1.109375,0.453125,0.578125
287,0.7270508,0.3632202,0.5626831,-1.625,0.4375,0.421875
288,0.7297363,0.369812,0.5668335,-1.578125,0.8125,-0.078125
289,0.7319336,0.36444092,0.574646,-0.21875,1.3125,-0.90625
290,0.7380371,0.36151123,0.56903076,0.859375,0.96875,-0.953125
291,0.7351074,0.35394287,0.57806396,2.46875,0.203125,-1.1875
292,0.72265625,0.35687256,0.5812378,4.546875,1.03125,-1.359375
293,0.734375,0.35247803,0.5817261,6.390625,1.921875,-1.859375
294,0.7363281,0.35150146,0.59051514,8.265625,2.90625,-2.125
295,0.7397461,0.3307495,0.5770874,7.6875,3.09375,-1.75
296,0.7392578,0.32781982,0.571228,5.296875,2.078125,-1.5625
297,0.73779297,0.31756592,0.56781006,4.71875,2.21875,-2.28125
298,0.7363281,0.32513428,0.5790405,3.1875,2.125,-1.21875
299,0.748291,0.307312,0.57855225,1.765625,-1.171875,0.15625
300,0.7458496,0.3102417,0.5800171,2.921875,-0.84375,0.078125
301,0.7421875,0.29559326,0.5673218,1.015625,-0.125,0.625
302,0.736084,0.30194092,0.5619507,-1.03125,-0.109375,1.125
303,0.7297363,0.30828857,0.5890503,-4.625,-2.5,1.71875
304,0.7380371,0.3163452,0.6088257,-5.546875,-2.984375,0.234375
305,0.7429199,0.31072998,0.59832764,-5.078125,-1.515625,-1.234375
306,0.7392578,0.3204956,0.59832764,-1.03125,-0.109375,0.0625
307,0.7338867,0.3270874,0.58392334,-1.34375,0.6875,0.375
308,0.7260742,0.32806396,0.5807495,-4.328125,0.25,-0.015625
309,0.73876953,0.32757568,0.59954834,-5.03125,-0.609375,0.046875
310,0.7380371,0.32318115,0.59246826,-2.34375,0.140625,0.6875
311,0.7312012,0.3270874,0.6012573,-0.9375,1.125,1.65625
312,0.7302246,0.3241577,0.59295654,0.34375,1.0,1.046875
313,0.73535156,0.32513428,0.59417725,1.28125,0.640625,0.3125
314,0.73168945,0.33270264,0.586853,0.421875,0.5625,0.53125
315,0.73168945,0.33319092,0.5934448,0.625,0.671875,0.859375
316,0.7282715,0.32733154,0.5922241,-0.390625,0.671875,0.625
317,0.7290039,0.32196045,0.5890503,-1.515625,1.046875,0.546875
318,0.73291016,0.32513428,0.5939331,-0.578125,0.9375,0.421875
319,0.7272949,0.3258667,0.59661865,-0.140625,0.75,0.421875
320,0.73461914,0.32635498,0.59051514,0.5625,0.859375,0.546875
321,0.72998047,0.32684326,0.5866089,1.4375,0.828125,0.59375
322,0.7451172,0.32684326,0.5800171,0.703125,1.015625,0.125
323,0.7336426,0.32513428,0.5914917,-3.234375,0.453125,-0.234375
324,0.7331543,0.32366943,0.59051514,-4.921875,-0.234375,-0.53125
325,0.72875977,0.33148193,0.59539795,-5.171875,-0.875,-1.390625
326,0.7297363,0.33221436,0.58587646,-3.34375,-0.125,-1.5
327,0.7270508,0.33563232,0.59246826,-2.5625,0.59375,-0.3125
328,0.71728516,0.33392334,0.58880615,-1.859375,1.0,-0.09375
329,0.7324219,0.33343506,0.5897827,-0.34375,1.578125,0.21875
330,0.72998047,0.3439331,0.58636475,-0.28125,1.40625,0.546875
331,0.7312012,0.33270264,0.5829468,0.46875,1.203125,0.765625
332,0.72875977,0.33172607,0.5836792,0.25,1.1875,0.90625
333,0.7338867,0.33172607,0.58587646,-0.21875,1.015625,0.953125
334,0.7355957,0.32977295,0.58392334,-0.5,0.71875,0.9375
335,0.73339844,0.34075928,0.5932007,-0.84375,0.5625,0.390625
336,0.734375,0.32855225,0.586853,-0.5625,0.671875,0.203125
337,0.72631836,0.338562,0.5873413,0.78125,0.703125,0.875
338,0.732666,0.34075928,0.59124756,0.265625,0.59375,1.265625
339,0.7265625,0.3463745,0.58929443,-1.0625,0.828125,1.21875
340,0.7285156,0.34222412,0.588562,-1.359375,0.65625,1.375
341,0.72680664,0.3336792,0.58929443,0.75,0.484375,1.3125
342,0.73168945,0.3397827,0.59783936,0.046875,0.609375,1.109375
343,0.72875977,0.33270264,0.58636475,2.03125,1.03125,1.4375
344,0.7290039,0.33563232,0.586853,0.703125,1.1875,1.3125
345,0.7233887,0.3378296,0.5861206,-0.84375,0.921875,0.609375
346,0.72924805,0.34100342,0.58392334,-0.1875,0.78125,0.421875
347,0.7272949,0.34100342,0.59002686,-0.40625,0.765625,0.234375
348,0.72509766,0.33831787,0.5895386,0.421875,0.5625,0.328125
349,0.72924805,0.34490967,0.59246826,-0.453125,0.765625,0.125
350,0.7219238,0.3324585,0.5856323,-0.875,0.59375,-0.109375
351,0.7224121,0.34051514,0.590271,-0.9375,0.71875,0.0625
352,0.72998047,0.33099365,0.5985718,0.234375,1.203125,0.46875
353,0.72387695,0.3348999,0.59173584,1.515625,1.1875,0.53125
354,0.7182617,0.34100342,0.59490967,1.6875,1.46875,1.046875
355,0.72216797,0.3287964,0.5812378,0.34375,1.03125,0.359375
356,0.7282715,0.3397827,0.586853,-1.15625,0.734375,0.234375
357,0.7336426,0.338562,0.588562,-1.46875,0.5625,-0.0625
358,0.7260742,0.32977295,0.58807373,-1.53125,0.515625,0.109375
359,0.72509766,0.34661865,0.60150146,0.03125,1.0625,0.828125
360,0.72753906,0.33929443,0.6012573,2.671875,2.0625,1.34375
361,0.72802734,0.3312378,0.5807495,3.546875,2.734375,1.5625
362,0.736084,0.33050537,0.5844116,0.84375,1.125,1.921875
363,0.73706055,0.32391357,0.5800171,-1.1875,0.703125,0.859375
364,0.7294922,0.33416748,0.58221436,-2.015625,0.421875,-0.609375
365,0.7336426,0.33807373,0.58758545,-2.109375,0.96875,-1.828125
366,0.73046875,0.3336792,0.6107788,-0.671875,1.078125,-1.796875
367,0.74316406,0.32659912,0.61468506,1.28125,0.859375,-2.953125
368,0.73535156,0.32977295,0.5831909,2.3125,2.1875,-2.171875
369,0.7155762,0.32806396,0.5807495,5.921875,1.78125,-0.21875
370,0.7277832,0.322937,0.5946655,5.234375,0.421875,-0.765625
371,0.73706055,0.30169678,0.5844116,2.375,-0.703125,-0.171875
372,0.736084,0.309021,0.5934448,1.421875,-0.25,0.96875
373,0.7138672,0.31219482,0.59173584,0.765625,0.203125,1.765625
374,0.7314453,0.3156128,0.5932007,-4.75,-0.40625,0.765625
375,0.7294922,0.31243896,0.60736084,-4.265625,-0.046875,0.078125
376,0.7338867,0.31170654,0.6100464,-1.484375,0.734375,0.375
377,0.7380371,0.32391357,0.6083374,0.03125,0.53125,0.71875
378,0.72265625,0.31414795,0.58709717,0.125,0.375,1.0
379,0.7194824,0.3131714,0.59588623,-1.890625,-0.796875,0.84375
380,0.71972656,0.31488037,0.6078491,-3.8125,-1.15625,0.140625
381,0.73095703,0.32244873,0.60809326,-1.828125,0.515625,0.171875
382,0.73339844,0.32513428,0.6090698,1.34375,1.8125,1.03125
383,0.7297363,0.3336792,0.5963745,3.078125,1.828125,1.828125
384,0.7272949,0.3204956,0.59368896,1.140625,1.203125,0.5
385,0.7338867,0.32000732,0.5963745,-1.703125,0.625,-0.53125
386,0.7338867,0.32025146,0.5944214,-2.546875,0.90625,-0.0625
387,0.7294922,0.31707764,0.59173584,-1.984375,0.734375,0.984375
388,0.732666,0.3270874,0.60565186,-0.03125,0.515625,0.84375
389,0.7260742,0.32073975,0.5961304,-0.3125,0.296875,0.46875
390,0.72436523,0.32196045,0.5968628,-2.0,0.359375,0.75
391,0.72924805,0.32806396,0.60321045,-1.140625,0.015625,1.046875
392,0.7199707,0.32537842,0.6078491,1.3125,0.359375,0.234375
393,0.717041,0.3373413,0.60931396,2.421875,0.734375,1.53125
394,0.7145996,0.32635498,0.60614014,1.46875,0.859375,1.359375
395,0.717041,0.32244873,0.604187,-0.421875,1.3125,1.78125
396,0.7211914,0.31903076,0.60565186,-0.5,1.78125,0.984375
397,0.72509766,0.3319702,0.6034546,0.09375,2.046875,0.578125
398,0.7194824,0.3287964,0.60369873,-0.171875,1.453125,0.265625
399,0.7236328,0.3222046,0.59832764,1.625,1.234375,-0.546875
400,0.73095703,0.31658936,0.5956421,0.53125,0.609375,-0.625
401,0.7219238,0.31951904,0.6017456,-1.375,0.40625,-0.09375
402,0.7338867,0.32757568,0.604187,-3.125,0.15625,-0.328125
403,0.73168945,0.3180542,0.5934448,-2.0625,0.828125,0.65625
404,0.7199707,0.32122803,0.6022339,0.28125,1.03125,0.84375
405,0.72314453,0.32391357,0.5997925,-0.234375,1.25,0.75
406,0.7348633,0.31854248,0.5988159,1.109375,1.359375,1.0625
407,0.72875977,0.3204956,0.59954834,2.09375,1.078125,1.15625
408,0.72509766,0.32611084,0.59710693,-0.109375,0.75,1.359375
409,0.72753906,0.31854248,0.59490967,0.8125,0.625,0.90625
410,0.7211914,0.31829834,0.6012573,-1.078125,0.1875,0.640625
411,0.72680664,0.32196045,0.6095581,-1.140625,0.078125,-0.03125
412,0.7224121,0.3241577,0.6051636,-0.890625,-0.078125,0.0
413,0.7207031,0.33172607,0.6102905,-1.796875,0.015625,0.046875
414,0.71533203,0.3283081,0.60809326,-0.953125,0.265625,1.1875
415,0.71850586,0.32366943,0.5993042,-0.671875,0.453125,2.4375
416,0.71606445,0.32489014,0.5963745,1.1875,1.5625,2.40625
417,0.71899414,0.3287964,0.60809326,1.28125,1.109375,2.671875
418,0.7236328,0.3222046,0.60809326,-0.90625,0.546875,1.609375
419,0.72509766,0.31951904,0.6078491,-1.3125,0.515625,0.140625
420,0.7192383,0.32977295,0.61517334,-2.34375,0.546875,-0.75
421,0.72021484,0.32904053,0.60491943,-2.59375,-0.328125,-0.875
422,0.71655273,0.33709717,0.60272217,-1.5,0.484375,-0.359375
423,0.7150879,0.33514404,0.5985718,-1.375,0.671875,0.15625
424,0.71435547,0.33392334,0.6034546,-1.53125,0.5,0.234375
425,0.717041,0.33538818,0.6034546,-1.703125,0.71875,0.546875
426,0.7194824,0.34002686,0.61151123,-0.5625,1.453125,0.390625
427,0.71777344,0.324646,0.5985718,-0.578125,1.46875,0.59375
428,0.7219238,0.3348999,0.6022339,-2.21875,0.765625,0.296875
429,0.72143555,0.33807373,0.5927124,0.421875,0.765625,1.15625
430,0.72094727,0.33319092,0.6051636,1.421875,0.984375,1.34375
431,0.70751953,0.34246826,0.60321045,-1.609375,0.453125,1.0625
432,0.71435547,0.33880615,0.6005249,-0.3125,0.734375,0.96875
433,0.71875,0.3439331,0.60443115,0.28125,0.609375,0.703125
434,0.7102051,0.33929443,0.5997925,-1.859375,0.328125,0.734375
435,0.71313477,0.33758545,0.6083374,-2.953125,0.78125,0.296875
436,0.7067871,0.34417725,0.61639404,-3.53125,1.03125,0.21875
437,0.7145996,0.3475952,0.6034546,-7.0,0.625,0.75
438,0.7163086,0.35394287,0.5988159,-5.140625,0.65625,0.90625
439,0.7192383,0.3583374,0.60565186,-0.953125,1.609375,0.78125
440,0.71606445,0.3619995,0.58758545,-0.046875,2.015625,1.375
441,0.72387695,0.3546753,0.58758545,-1.140625,1.640625,1.375
442,0.717041,0.3619995,0.588562,-0.6875,1.0625,1.640625
443,0.7199707,0.3522339,0.586853,-0.8125,0.71875,0.609375
444,0.7138672,0.3534546,0.59002686,-0.921875,0.984375,0.671875
445,0.71728516,0.36346436,0.5993042,1.796875,0.8125,0.828125
446,0.71533203,0.3583374,0.5963745,-0.296875,1.625,0.296875
447,0.70703125,0.37371826,0.5844116,-0.796875,1.703125,0.4375
448,0.7158203,0.3649292,0.5934448,0.4375,2.109375,0.609375
449,0.7229004,0.36175537,0.58270264,-1.15625,2.484375,0.828125
450,0.7180176,0.36590576,0.5944214,1.953125,2.390625,2.59375
451,0.7192383,0.35784912,0.5844116,2.09375,0.828125,2.109375
452,0.7258301,0.35443115,0.5824585,-0.4375,0.0625,0.078125
453,0.7302246,0.35272217,0.5770874,-2.84375,-1.046875,-0.515625
454,0.7277832,0.3529663,0.57684326,-3.515625,-1.90625,-1.390625
455,0.7233887,0.34735107,0.58270264,-3.359375,-2.421875,-1.921875
456,0.70214844,0.35760498,0.602478,-6.21875,-2.421875,-3.296875
457,0.7102051,0.36517334,0.6071167,-8.984375,-2.546875,-3.359375
458,0.7072754,0.3764038,0.5980835,-5.171875,-1.234375,-1.78125
459,0.72143555,0.3751831,0.5988159,2.53125,0.9375,1.125
460,0.69628906,0.387146,0.6071167,7.8125,3.984375,3.6875
461,0.6923828,0.38079834,0.60369873,4.109375,4.34375,3.5625
462,0.6970215,0.3632202,0.5907593,2.34375,3.359375,1.21875
463,0.7114258,0.3517456,0.5895386,-1.421875,2.1875,-0.109375
464,0.72094727,0.355896,0.58026123,-1.53125,1.90625,-0.90625
465,0.73291016,0.3529663,0.5751343,-0.875,1.71875,0.765625
466,0.74731445,0.35321045,0.6005249,-0.03125,1.328125,2.0625
467,0.72216797,0.36712646,0.5980835,3.171875,2.234375,1.703125
468,0.69750977,0.36175537,0.5944214,0.921875,2.359375,0.375
469,0.70996094,0.36590576,0.58099365,0.5625,1.34375,-0.265625
470,0.7216797,0.3756714,0.58709717,-0.171875,0.4375,0.0
471,0.7236328,0.36444092,0.5844116,-0.65625,0.34375,0.46875
472,0.7116699,0.34881592,0.5722046,1.3125,1.359375,1.484375
473,0.7272949,0.3517456,0.57318115,-1.09375,1.8125,2.53125
474,0.7277832,0.36273193,0.58709717,0.3125,1.171875,3.234375
475,0.71899414,0.3703003,0.5883179,1.984375,0.28125,2.921875
476,0.7092285,0.36834717,0.59539795,2.1875,-0.046875,1.6875
477,0.7194824,0.36688232,0.59173584,1.578125,-0.078125,1.21875
478,0.7116699,0.36517334,0.59124756,1.953125,0.28125,1.171875
479,0.7092285,0.36761475,0.59490967,1.1875,0.609375,1.15625
480,0.72094727,0.354187,0.5910034,0.859375,0.21875,1.421875
481,0.71313477,0.3661499,0.6022339,1.09375,0.96875,1.15625
482,0.6940918,0.3673706,0.5963745,3.53125,2.671875,2.28125
483,0.69970703,0.37249756,0.5968628,0.65625,1.65625,3.03125
484,0.71655273,0.3703003,0.62176514,-2.203125,1.125,2.265625
485,0.7128906,0.3619995,0.5951538,0.875,1.359375,0.828125
486,0.70092773,0.355896,0.5944214,1.71875,1.34375,-0.859375
487,0.7062988,0.36541748,0.590271,-2.78125,0.75,-1.640625
488,0.72509766,0.3595581,0.59124756,-5.40625,0.34375,-1.34375
489,0.7199707,0.3546753,0.5866089,-0.765625,1.765625,0.5625
490,0.717041,0.36834717,0.5861206,1.421875,2.03125,2.34375
491,0.7067871,0.37176514,0.59832764,2.78125,1.6875,2.65625
492,0.7133789,0.3632202,0.6029663,0.65625,1.140625,0.546875
493,0.704834,0.369812,0.59832764,-1.390625,1.015625,0.640625
494,0.7194824,0.36883545,0.5883179,0.125,1.5,0.03125
495,0.7158203,0.35882568,0.58807373,1.484375,2.03125,0.3125
496,0.71435547,0.35028076,0.5795288,0.65625,1.890625,0.03125
497,0.7248535,0.36468506,0.5848999,-1.671875,0.84375,-0.71875
498,0.7211914,0.38275146,0.5968628,-0.9375,-0.078125,-0.453125
499,0.7126465,0.36273193,0.58221436,1.609375,1.40625,-0.421875
500,0.7092285,0.35662842,0.5841675,-1.484375,1.15625,0.125
501,0.70947266,0.3595581,0.5914917,-2.375,0.484375,-0.328125
502,0.71069336,0.3534546,0.59710693,-5.21875,-0.09375,-0.84375
503,0.71313477,0.3751831,0.59906006,-5.859375,0.03125,0.3125
504,0.72216797,0.355896,0.57855225,0.34375,1.546875,0.21875
505,0.7207031,0.3583374,0.5726929,4.34375,2.4375,1.34375
506,0.7121582,0.37200928,0.58099365,5.734375,2.171875,2.296875
507,0.717041,0.36883545,0.5817261,2.359375,1.28125,-0.0625
508,0.7314453,0.35394287,0.5914917,-0.296875,0.625,-2.1875
509,0.72924805,0.34002686,0.60369873,-1.140625,-1.15625,-2.21875
510,0.7260742,0.3180542,0.6156616,-1.9375,0.03125,-0.8125
511,0.7158203,0.32611084,0.61151123,-0.546875,0.609375,0.234375
512,0.7072754,0.33563232,0.6137085,1.5625,1.265625,0.234375
513,0.71875,0.32244873,0.6083374,-0.328125,1.125,0.96875
514,0.7219238,0.3131714,0.6090698,-1.5,0.84375,1.25
515,0.72094727,0.32562256,0.6210327,-1.265625,0.859375,1.359375
516,0.7167969,0.3180542,0.6195679,-1.671875,0.8125,1.125
517,0.71777344,0.31903076,0.6156616,0.140625,1.078125,-0.203125
518,0.7114258,0.32318115,0.6141968,0.3125,1.375,-0.4375
519,0.7128906,0.3319702,0.61224365,-1.609375,0.515625,0.421875
520,0.71533203,0.3270874,0.62371826,-1.1875,1.0,-0.59375
521,0.71484375,0.31951904,0.60687256,-0.421875,1.546875,0.140625
522,0.71899414,0.31732178,0.61468506,-1.796875,1.40625,0.375
523,0.7219238,0.32122803,0.61273193,-2.8125,0.84375,-0.515625
524,0.71362305,0.3241577,0.60980225,-3.328125,0.78125,-0.40625
525,0.7248535,0.3300171,0.6054077,-1.765625,0.265625,-0.171875
526,0.71606445,0.31951904,0.6039429,-0.671875,0.65625,-0.0625
527,0.71435547,0.33392334,0.6090698,-0.46875,0.78125,0.15625
528,0.71777344,0.32635498,0.6119995,-0.078125,0.6875,0.578125
529,0.7207031,0.3336792,0.6090698,-2.109375,0.609375,0.859375
530,0.71899414,0.3287964,0.61761475,-0.859375,0.328125,1.65625
531,0.7167969,0.33026123,0.61151123,1.03125,0.5,1.953125
532,0.7150879,0.32928467,0.61053467,1.640625,0.609375,1.421875
533,0.7126465,0.33172607,0.6112671,2.671875,1.078125,1.0625
534,0.7121582,0.33148193,0.60931396,-0.5625,0.625,1.4375
535,0.71972656,0.33026123,0.6129761,-1.265625,0.484375,0.640625
536,0.7138672,0.33441162,0.62298584,0.34375,0.765625,0.484375
537,0.7060547,0.33026123,0.6078491,-0.859375,0.78125,0.640625
538,0.70751953,0.33319092,0.6112671,-2.09375,0.1875,0.453125
539,0.7109375,0.33148193,0.6173706,-1.40625,0.515625,0.03125
540,0.70703125,0.34320068,0.6156616,-2.0,0.578125,0.328125
541,0.7116699,0.33416748,0.6078491,-1.1875,0.859375,1.109375
542,0.70458984,0.33538818,0.6129761,0.375,1.109375,1.078125
543,0.7133789,0.32928467,0.60858154,0.265625,1.140625,0.671875
544,0.71606445,0.3414917,0.6102905,-0.046875,0.921875,0.6875
545,0.71484375,0.33294678,0.6161499,-0.15625,0.9375,0.6875
546,0.71313477,0.3414917,0.607605,-0.25,1.03125,0.40625
547,0.71313477,0.33709717,0.60736084,0.015625,0.78125,0.6875
548,0.7055664,0.33587646,0.6083374,0.765625,0.640625,0.78125
549,0.7163086,0.33685303,0.605896,-0.03125,0.53125,0.5625
550,0.7145996,0.3348999,0.6124878,-0.46875,0.46875,0.53125
551,0.71118164,0.338562,0.61395264,-0.09375,0.640625,0.71875
552,0.70825195,0.33953857,0.619812,-0.234375,0.46875,0.546875
553,0.71435547,0.33148193,0.60565186,0.21875,1.109375,0.671875
554,0.7141113,0.33538818,0.61273193,-1.453125,1.3125,0.328125
555,0.7138672,0.33563232,0.61712646,-1.65625,1.0625,-0.421875
556,0.71484375,0.33563232,0.62298584,-0.90625,1.703125,-0.828125
557,0.72021484,0.3336792,0.6129761,-0.859375,2.75,-1.390625
558,0.7216797,0.33294678,0.61834717,1.84375,1.640625,-0.953125
559,0.72021484,0.33294678,0.6090698,3.984375,1.171875,-1.1875
560,0.7102051,0.32684326,0.6034546,3.21875,1.28125,-0.375
561,0.71899414,0.3180542,0.61346436,4.78125,1.859375,-0.71875
562,0.72143555,0.31170654,0.6168823,5.140625,1.75,-1.125
563,0.71875,0.30926514,0.61639404,4.40625,1.515625,-0.75
564,0.72436523,0.30975342,0.6246948,6.53125,2.328125,-1.859375
565,0.71362305,0.29315186,0.6100464,10.046875,2.75,-2.9375
566,0.7219238,0.2802124,0.60369873,7.125,2.78125,-0.9375
567,0.7331543,0.27435303,0.6117554,1.203125,1.1875,0.1875
568,0.73461914,0.2753296,0.59368896,-3.875,0.390625,0.109375
569,0.72998047,0.28070068,0.5975952,-5.171875,-0.328125,0.5
570,0.71899414,0.29193115,0.6227417,-4.359375,-1.171875,2.15625
571,0.73535156,0.2892456,0.63739014,-2.0,-1.84375,1.84375
572,0.73706055,0.28900146,0.63616943,-0.96875,-0.28125,-0.5625
573,0.72875977,0.29193115,0.62249756,1.734375,1.0625,-0.046875
574,0.71606445,0.3048706,0.61273193,1.25,1.171875,0.90625
575,0.71435547,0.2897339,0.6168823,3.03125,0.703125,0.46875
576,0.7241211,0.291687,0.61761475,1.09375,0.796875,0.09375
577,0.72875977,0.28070068,0.6220093,0.0,0.875,0.65625
578,0.72094727,0.2831421,0.63983154,-1.328125,1.390625,0.21875
579,0.72509766,0.27703857,0.6364136,-1.578125,0.578125,0.453125
580,0.7199707,0.28753662,0.63616943,0.828125,0.984375,-0.09375
581,0.7297363,0.28533936,0.633728,1.640625,1.859375,0.359375
582,0.7265625,0.2802124,0.6210327,2.171875,2.40625,-0.28125
583,0.7253418,0.2753296,0.60809326,0.484375,3.0625,-0.671875
584,0.72387695,0.2814331,0.61395264,-0.875,2.6875,-0.390625
585,0.73168945,0.2765503,0.6310425,-1.859375,2.078125,-0.59375
586,0.73535156,0.27215576,0.6264038,-0.796875,1.6875,-0.890625
587,0.7297363,0.26898193,0.61834717,1.546875,2.890625,-1.75
588,0.73950195,0.27093506,0.6210327,3.875,3.40625,-1.53125
589,0.73706055,0.26971436,0.60687256,3.578125,2.796875,-1.328125
590,0.74194336,0.26678467,0.6144409,2.5,1.984375,-0.71875
591,0.7451172,0.25750732,0.60321045,2.59375,1.671875,-0.625
592,0.73999023,0.25482178,0.6119995,2.78125,1.40625,-0.625
593,0.74316406,0.23944092,0.6039429,1.296875,0.890625,0.03125
594,0.7404785,0.24603271,0.6005249,1.28125,0.390625,0.484375
595,0.73535156,0.25238037,0.60565186,1.1875,-0.578125,0.78125
596,0.7314453,0.24847412,0.59051514,-2.21875,-1.640625,1.875
597,0.734375,0.2609253,0.62664795,-3.15625,-3.296875,3.375
598,0.74243164,0.25531006,0.64715576,-0.703125,-1.546875,1.71875
599,0.74243164,0.26141357,0.6412964,-1.609375,-0.46875,0.484375
600,0.7277832,0.26190186,0.6312866,-1.046875,0.78125,1.0625
601,0.7219238,0.2670288,0.62371826,-2.71875,1.171875,0.40625
602,0.73217773,0.26239014,0.62908936,-4.390625,0.328125,0.21875
603,0.7302246,0.27581787,0.62054443,-4.109375,0.171875,0.109375
604,0.72558594,0.26678467,0.6207886,-1.84375,0.453125,0.359375
605,0.72875977,0.27288818,0.63079834,-0.65625,0.890625,0.171875
606,0.72094727,0.27142334,0.62664795,0.6875,0.984375,-0.375
607,0.73217773,0.2662964,0.62298584,0.0,1.03125,-0.34375
608,0.73999023,0.26409912,0.6178589,0.46875,1.078125,0.03125
609,0.7297363,0.2645874,0.61395264,1.28125,1.203125,0.296875
610,0.7285156,0.262146,0.6256714,2.046875,0.96875,0.53125
611,0.73413086,0.2584839,0.6239624,0.96875,0.6875,-0.03125
612,0.73706055,0.25775146,0.6281128,-2.34375,0.171875,-0.28125
613,0.732666,0.2658081,0.6300659,-3.78125,0.046875,-0.625
614,0.736084,0.25457764,0.6132202,-2.953125,-0.125,-1.296875
615,0.7285156,0.26287842,0.61346436,0.390625,0.1875,-0.46875
616,0.7211914,0.2699585,0.6312866,-0.6875,0.296875,0.609375
617,0.7294922,0.2616577,0.62420654,-0.921875,0.34375,0.6875
618,0.72436523,0.26385498,0.6273804,-1.640625,0.765625,0.609375
619,0.7253418,0.26727295,0.63153076,-1.375,0.859375,0.5625
620,0.73168945,0.26898193,0.6325073,-0.25,1.03125,0.40625
621,0.73413086,0.2633667,0.63323975,0.265625,1.296875,-0.421875
622,0.732666,0.26385498,0.61346436,-0.78125,1.3125,0.4375
623,0.7319336,0.26141357,0.62005615,-1.625,0.875,-0.078125
624,0.7363281,0.26776123,0.6173706,-2.765625,0.828125,-0.484375
625,0.72924805,0.262146,0.6239624,-3.0625,1.109375,0.0625
626,0.7233887,0.27459717,0.6293335,-0.3125,0.828125,0.5625
627,0.73779297,0.26605225,0.6222534,0.421875,0.71875,0.546875
628,0.7363281,0.2699585,0.6149292,-0.890625,0.1875,0.046875
629,0.7224121,0.27703857,0.6239624,-0.890625,0.734375,0.59375
630,0.73535156,0.27044678,0.6234741,0.328125,0.625,0.46875
631,0.72558594,0.2670288,0.62542725,-0.34375,0.6875,0.140625
632,0.7248535,0.2736206,0.6203003,-0.84375,0.6875,0.5
633,0.73095703,0.26898193,0.6251831,-1.546875,0.640625,0.296875
634,0.73217773,0.26898193,0.61932373,-0.875,0.421875,0.875
635,0.7290039,0.276062,0.62493896,-0.65625,0.6875,0.796875
636,0.7312012,0.27703857,0.6156616,-3.78125,-0.625,1.59375
637,0.7258301,0.2723999,0.62664795,-1.328125,-0.171875,0.765625
638,0.7348633,0.28070068,0.6220093,-0.84375,0.3125,0.984375
639,0.7319336,0.2789917,0.64105225,-0.75,0.53125,1.59375
640,0.72265625,0.28167725,0.6220093,-0.1875,1.265625,1.09375
641,0.72265625,0.28118896,0.63079834,1.234375,1.46875,0.859375
642,0.7272949,0.27557373,0.6251831,1.359375,1.234375,0.078125
643,0.72924805,0.28485107,0.6141968,-0.46875,1.171875,0.234375
644,0.7297363,0.27337646,0.621521,-1.3125,0.984375,0.359375
645,0.73095703,0.2850952,0.6222534,-1.828125,0.859375,0.140625
646,0.7302246,0.28363037,0.6256714,-1.125,0.421875,0.390625
647,0.73095703,0.28070068,0.6227417,0.34375,0.421875,0.265625
648,0.7282715,0.2850952,0.6239624,0.03125,0.875,0.71875
649,0.720459,0.2789917,0.62664795,0.5,0.90625,1.1875
650,0.7246094,0.2826538,0.6268921,1.015625,0.640625,1.328125
651,0.72509766,0.28216553,0.61639404,1.671875,0.84375,1.90625
652,0.7158203,0.27679443,0.6185913,2.21875,0.90625,1.4375
653,0.7324219,0.27386475,0.62786865,-0.1875,0.796875,0.78125
654,0.7297363,0.2826538,0.63323975,-1.1875,0.84375,0.40625
655,0.7216797,0.28533936,0.6312866,-0.4375,0.53125,0.15625
656,0.7163086,0.27337646,0.6259155,-0.484375,0.53125,0.109375
657,0.7224121,0.27557373,0.6334839,-0.578125,0.84375,0.5
658,0.7194824,0.27947998,0.63079834,-1.921875,0.875,0.421875
659,0.720459,0.27850342,0.62493896,-1.078125,0.78125,0.3125
660,0.7219238,0.2814331,0.6273804,-1.671875,1.15625,0.109375
661,0.7302246,0.2772827,0.6268921,-0.703125,1.09375,-0.15625
662,0.7294922,0.2868042,0.6246948,0.84375,1.140625,0.34375
663,0.7241211,0.28411865,0.6239624,1.0625,1.015625,0.5
664,0.7207031,0.2892456,0.6220093,1.515625,0.96875,0.734375
665,0.7282715,0.27874756,0.6259155,-0.296875,0.734375,0.703125
666,0.7246094,0.27825928,0.6268921,-1.703125,0.15625,0.25
667,0.720459,0.27630615,0.62664795,-1.96875,0.796875,0.109375
668,0.72875977,0.2855835,0.63031006,-0.890625,0.609375,0.40625
669,0.7246094,0.27923584,0.62908936,-0.4375,1.03125,0.3125
670,0.7199707,0.28460693,0.62786865,-0.375,0.921875,0.015625
671,0.7158203,0.28338623,0.6210327,0.125,1.25,0.21875
672,0.72265625,0.28363037,0.6264038,-0.34375,1.328125,0.625
673,0.7253418,0.2819214,0.6156616,-1.4375,1.09375,0.125
674,0.7324219,0.27703857,0.6220093,-0.875,1.03125,0.359375
675,0.72680664,0.27850342,0.61883545,-1.625,0.8125,1.03125
676,0.7270508,0.2880249,0.61639404,-0.625,0.578125,0.828125
677,0.7253418,0.2831421,0.6168823,0.78125,0.828125,0.703125
678,0.7216797,0.2904663,0.62054443,0.578125,0.5625,1.25
679,0.7285156,0.2892456,0.6178589,0.078125,0.40625,1.171875
680,0.72436523,0.28631592,0.63201904,0.0,0.765625,0.828125
681,0.72387695,0.28118896,0.62420654,-0.625,0.796875,0.640625
682,0.71875,0.27996826,0.62664795,-2.71875,0.5625,-0.0625
683,0.7241211,0.28607178,0.6298218,-1.9375,0.734375,-0.0625
684,0.7248535,0.28729248,0.62298584,-0.484375,0.984375,0.0
685,0.7150879,0.29486084,0.62298584,-0.734375,0.96875,0.171875
686,0.7253418,0.2921753,0.62323,-0.84375,0.890625,0.296875
687,0.7211914,0.28875732,0.62298584,-1.171875,1.265625,0.640625
688,0.7314453,0.28582764,0.618103,-1.0625,1.109375,0.515625
689,0.7258301,0.29071045,0.6246948,-1.609375,1.046875,0.0625
690,0.72998047,0.29632568,0.62664795,-1.328125,0.671875,0.4375
691,0.72875977,0.29241943,0.6195679,-1.109375,0.78125,0.671875
692,0.72753906,0.3036499,0.6239624,-0.390625,1.390625,0.28125
693,0.7253418,0.28875732,0.6117554,1.390625,1.359375,0.34375
694,0.7302246,0.29022217,0.6246948,0.390625,0.4375,0.671875
695,0.7297363,0.28948975,0.6112671,-1.453125,0.03125,0.234375
696,0.7233887,0.2868042,0.6119995,-2.328125,0.5625,1.03125
697,0.72216797,0.2999878,0.62127686,-2.25,0.609375,1.734375
698,0.72509766,0.29803467,0.6305542,-2.4375,0.40625,0.765625
699,0.7128906,0.3065796,0.62542725,-3.140625,0.6875,0.734375
700,0.7163086,0.30682373,0.6293335,-2.265625,0.765625,0.671875
701,0.72314453,0.3060913,0.6273804,-1.15625,0.84375,0.203125
702,0.7236328,0.3036499,0.6124878,0.359375,1.984375,0.234375
703,0.7302246,0.29119873,0.6034546,-0.59375,1.8125,0.3125
704,0.72509766,0.29779053,0.6119995,-0.484375,1.53125,-0.046875
705,0.73046875,0.30096436,0.6090698,-0.734375,1.015625,-0.375
706,0.7290039,0.3036499,0.6144409,0.46875,1.28125,-0.375
707,0.71875,0.30218506,0.6100464,2.421875,1.40625,1.109375
708,0.7258301,0.29803467,0.6029663,-0.859375,0.71875,0.078125
709,0.7319336,0.30145264,0.6029663,-1.03125,1.03125,0.046875
710,0.7246094,0.30267334,0.61224365,-4.375,0.234375,0.296875
711,0.720459,0.30633545,0.6259155,-3.4375,0.0,-0.28125
712,0.72753906,0.30169678,0.6173706,-1.53125,0.1875,-0.40625
713,0.7294922,0.3007202,0.60565186,0.453125,0.578125,-0.078125
714,0.71972656,0.30194092,0.61151123,0.578125,0.65625,-0.015625
715,0.7246094,0.30560303,0.61151123,-3.84375,0.28125,-0.328125
716,0.72314453,0.30413818,0.62249756,-2.921875,1.296875,-0.5625
717,0.7297363,0.31414795,0.63079834,0.21875,3.1875,-0.890625
718,0.7331543,0.30950928,0.6395874,4.65625,2.5625,0.3125
719,0.732666,0.2946167,0.6149292,8.328125,1.671875,-0.125
720,0.7192383,0.28997803,0.60150146,7.09375,1.375,0.34375
721,0.71777344,0.28485107,0.5961304,6.125,1.34375,0.875
722,0.73046875,0.27996826,0.61053467,0.546875,0.03125,0.328125
723,0.7290039,0.276062,0.5988159,-3.921875,0.125,0.4375
724,0.7216797,0.27923584,0.60272217,-3.390625,0.34375,1.859375
725,0.72436523,0.29071045,0.62249756,-3.03125,-0.46875,2.109375
726,0.71875,0.29193115,0.62323,-1.78125,-0.4375,0.484375
727,0.7363281,0.29656982,0.6251831,-1.34375,0.109375,-0.84375
728,0.72265625,0.2994995,0.6119995,0.15625,0.875,0.15625
729,0.72680664,0.29364014,0.6168823,-0.3125,0.765625,0.15625
730,0.7219238,0.29315186,0.61224365,-1.65625,0.765625,0.015625
731,0.7363281,0.29681396,0.6132202,-1.71875,0.65625,0.109375
732,0.7282715,0.29510498,0.61883545,-0.828125,0.984375,0.515625
733,0.72631836,0.2868042,0.6203003,-0.140625,0.875,1.015625
734,0.7270508,0.29534912,0.62127686,0.671875,0.625,1.0625
735,0.72143555,0.29315186,0.62371826,1.390625,0.078125,0.734375
736,0.7192383,0.29925537,0.6154175,-1.734375,0.421875,0.578125
737,0.72387695,0.29364014,0.62542725,-0.890625,-0.015625,1.28125
738,0.7199707,0.29681396,0.61273193,-4.03125,-0.296875,-0.171875
739,0.7216797,0.2982788,0.62127686,-3.78125,-0.53125,-0.15625
740,0.73583984,0.2892456,0.62176514,-1.28125,0.015625,-0.5625
741,0.71728516,0.30413818,0.6281128,-0.828125,0.546875,-0.484375
742,0.7126465,0.3024292,0.62957764,-0.203125,1.15625,0.140625
743,0.7155762,0.3060913,0.6220093,0.5,1.359375,0.4375
744,0.7158203,0.29901123,0.61590576,1.28125,1.1875,0.46875
745,0.72216797,0.30218506,0.62176514,-0.328125,1.234375,1.1875
746,0.7155762,0.2982788,0.62713623,-0.640625,1.1875,1.125
747,0.7233887,0.29656982,0.6239624,0.1875,0.9375,0.421875
748,0.72021484,0.29510498,0.62371826,-0.390625,0.75,0.34375
749,0.7229004,0.29730225,0.61761475,-0.46875,0.65625,-0.1875
750,0.72143555,0.2970581,0.61834717,-1.296875,0.53125,0.09375
751,0.71850586,0.30047607,0.6195679,-1.875,0.6875,0.3125
752,0.7141113,0.3060913,0.6227417,-0.375,0.453125,0.609375
753,0.7224121,0.30023193,0.6117554,-0.875,0.375,0.4375
754,0.7192383,0.2994995,0.6137085,-0.3125,0.75,1.09375
755,0.7167969,0.30560303,0.6220093,-1.0625,0.609375,0.671875
756,0.7158203,0.30755615,0.6178589,-1.515625,0.421875,0.875
757,0.7224121,0.30462646,0.6203003,-0.34375,0.796875,0.90625
758,0.720459,0.3078003,0.61834717,-1.203125,0.765625,0.765625
759,0.71191406,0.30633545,0.61712646,-0.796875,0.65625,1.078125
