sample_no,accel_x,accel_y,accel_z,gyro_x,gyro_y,gyro_z
0,-0.34936523,-0.23175049,0.95843506,0.765625,0.890625,1.15625
1,-0.36645508,-0.23590088,0.9616089,-3.28125,-7.21875,0.609375
2,-0.3671875,-0.21490479,0.93255615,-1.65625,-5.140625,-0.390625
3,-0.35961914,-0.20367432,0.9364624,-0.09375,-1.15625,-0.578125
4,-0.375,-0.18951416,0.9298706,2.640625,1.765625,-0.296875
5,-0.3647461,-0.20269775,0.9423218,2.296875,3.015625,0.53125
6,-0.34399414,-0.20196533,0.94866943,1.0,2.078125,0.578125
7,-0.34204102,-0.21417236,0.94818115,1.796875,0.703125,0.28125
8,-0.34594727,-0.21905518,0.9376831,2.5,3.28125,0.484375
9,-0.32983398,-0.22784424,0.9472046,3.15625,4.296875,0.765625
10,-0.32958984,-0.21588135,0.94940186,2.765625,1.484375,1.1875
11,-0.34545898,-0.22589111,0.9545288,2.984375,3.65625,1.140625
12,-0.32617188,-0.23052979,0.965271,1.796875,1.890625,0.296875
13,-0.3227539,-0.21759033,0.96258545,0.65625,-1.734375,0.265625
14,-0.32177734,-0.20465088,0.9574585,-3.328125,-9.859375,0.65625
15,-0.36132812,-0.18389893,0.93670654,-5.4375,-21.5,0.671875
16,-0.3798828,-0.18048096,0.8756714,-5.734375,-19.578125,0.15625
17,-0.35327148,-0.2354126,0.93426514,0.515625,2.03125,1.015625
18,-0.39282227,-0.27886963,0.9779663,1.21875,7.296875,3.171875
19,-0.3618164,-0.23052979,0.9423218,-0.640625,-3.828125,1.515625
20,-0.3996582,-0.20953369,0.9298706,-2.34375,-15.125,0.734375
21,-0.43823242,-0.19927979,0.93573,-3.046875,-12.921875,-0.6875
22,-0.42260742,-0.22515869,0.9064331,-2.140625,-10.140625,-1.234375
23,-0.43408203,-0.18585205,0.91278076,-5.0,-21.21875,-0.890625
24,-0.47021484,-0.12335205,0.8759155,-5.03125,-16.015625,-1.875
25,-0.4453125,-0.16607666,0.871521,-2.21875,3.34375,0.609375
26,-0.43798828,-0.24249268,0.93426514,-4.84375,-1.515625,2.0
27,-0.48364258,-0.18170166,0.9215698,-3.78125,-12.34375,0.34375
28,-0.4560547,-0.17730713,0.89959717,-1.75,2.921875,-1.828125
29,-0.49853516,-0.23052979,0.9086304,0.484375,14.296875,1.625
30,-0.4868164,-0.19146729,0.92303467,2.828125,-1.8125,1.65625
31,-0.43896484,-0.13189697,0.89642334,-0.234375,-1.3125,-0.75
32,-0.44604492,-0.19952393,0.9291382,-0.4375,0.71875,0.171875
33,-0.42700195,-0.17364502,0.9100952,-0.203125,1.4375,0.515625
34,-0.45874023,-0.159729,0.89349365,1.1875,6.515625,2.109375
35,-0.4650879,-0.15582275,0.9411011,3.390625,-2.078125,0.9375
36,-0.45336914,-0.14337158,0.8969116,-2.578125,-6.375,-0.703125
37,-0.42236328,-0.17730713,0.88812256,-2.71875,-3.796875,-0.671875
38,-0.43408203,-0.20904541,0.91571045,0.84375,6.734375,-0.34375
39,-0.48828125,-0.20098877,0.9540405,3.125,2.53125,1.171875
40,-0.4868164,-0.15240479,0.9071655,-0.1875,-7.640625,-0.609375
41,-0.43066406,-0.15338135,0.9100952,0.640625,-0.40625,-0.390625
42,-0.40234375,-0.20489502,0.9232788,2.921875,3.53125,-0.984375
43,-0.4321289,-0.20440674,0.9159546,1.921875,4.34375,0.859375
44,-0.4819336,-0.17266846,0.9257202,3.109375,0.390625,1.015625
45,-0.43969727,-0.15362549,0.9130249,2.09375,-2.765625,-0.875
46,-0.41259766,-0.1716919,0.9064331,-0.453125,-5.875,-0.28125
47,-0.4580078,-0.18463135,0.9088745,0.34375,-2.203125,0.234375
48,-0.4482422,-0.20245361,0.91522217,1.484375,11.09375,0.359375
49,-0.47631836,-0.18682861,0.9476929,1.046875,-3.46875,0.90625
50,-0.43676758,-0.12384033,0.88153076,-1.265625,-6.625,-1.046875
51,-0.43432617,-0.19732666,0.90423584,0.265625,-0.84375,-0.921875
52,-0.4350586,-0.22857666,0.9159546,2.109375,7.625,0.71875
53,-0.4399414,-0.17706299,0.9315796,1.953125,1.0625,0.765625
54,-0.43652344,-0.17828369,0.92401123,0.734375,-2.078125,-0.828125
55,-0.42138672,-0.1873169,0.90667725,0.53125,0.0,-0.8125
56,-0.4248047,-0.2053833,0.93865967,0.921875,4.671875,-0.28125
57,-0.39794922,-0.21051025,0.93914795,1.15625,4.59375,1.046875
58,-0.42285156,-0.16461182,0.9279175,-1.1875,-10.3125,-1.3125
59,-0.46826172,-0.13580322,0.8746948,-3.21875,-3.984375,-1.0
60,-0.46826172,-0.18707275,0.8966675,2.328125,5.859375,1.421875
61,-0.43432617,-0.22198486,0.9508667,5.890625,10.125,1.59375
62,-0.43115234,-0.21734619,0.9489136,7.359375,13.28125,1.6875
63,-0.38964844,-0.20220947,0.9159546,3.515625,6.859375,0.65625
64,-0.37963867,-0.17364502,0.9696655,-0.78125,-8.109375,-0.671875
65,-0.39501953,-0.16583252,0.8768921,-5.609375,-10.8125,-0.5
66,-0.42333984,-0.19342041,0.9059448,1.765625,2.9375,-0.078125
67,-0.39648438,-0.22271729,0.93963623,4.9375,14.40625,1.078125
68,-0.375,-0.21759033,0.965271,5.53125,10.46875,2.078125
69,-0.35839844,-0.17828369,0.9413452,-0.484375,-4.234375,0.4375
70,-0.40600586,-0.17242432,0.9508667,-2.125,-11.09375,-0.625
71,-0.37548828,-0.1807251,0.8493042,-3.21875,-6.84375,-0.765625
72,-0.3630371,-0.21807861,0.9130249,3.015625,6.625,1.703125
73,-0.40942383,-0.25006104,0.9515991,5.21875,5.328125,1.828125
74,-0.41015625,-0.21881104,0.9725952,5.5,10.640625,0.296875
75,-0.39379883,-0.22174072,0.9677124,5.375,2.421875,0.171875
76,-0.35107422,-0.2078247,0.916687,1.625,-8.0,-1.09375
77,-0.37817383,-0.21051025,0.94329834,3.15625,-6.21875,0.296875
78,-0.39233398,-0.24176025,0.8991089,1.046875,2.25,1.71875
79,-0.3720703,-0.24346924,0.9393921,1.5625,6.546875,1.71875
80,-0.37719727,-0.222229,0.9489136,0.421875,-0.21875,0.703125
81,-0.3486328,-0.20343018,0.91986084,0.03125,0.4375,-0.65625
82,-0.37768555,-0.237854,0.93670654,1.265625,-2.265625,-0.09375
83,-0.38549805,-0.23980713,0.96087646,-0.984375,-8.015625,-0.234375
84,-0.3864746,-0.21636963,0.90618896,-4.90625,-7.515625,-0.921875
85,-0.3864746,-0.24517822,0.9249878,0.484375,4.53125,0.890625
86,-0.36694336,-0.23858643,0.93743896,2.015625,3.25,2.28125
87,-0.3857422,-0.21148682,0.9335327,0.75,-1.53125,1.15625
88,-0.38256836,-0.23199463,0.93304443,1.640625,1.671875,1.046875
89,-0.36132812,-0.22711182,0.93670654,-0.484375,-3.28125,0.328125
90,-0.38378906,-0.22540283,0.9423218,-0.515625,-4.140625,0.296875
91,-0.37158203,-0.22784424,0.92059326,-0.46875,0.453125,0.859375
92,-0.37573242,-0.24420166,0.93865967,-0.015625,1.96875,0.421875
93,-0.39160156,-0.25201416,0.94525146,-1.03125,-0.3125,0.421875
94,-0.36328125,-0.21759033,0.90423584,-0.671875,1.984375,-0.59375
95,-0.39868164,-0.1951294,0.9425659,1.71875,-2.140625,-0.078125
96,-0.37597656,-0.18389893,0.93133545,-1.8125,-7.90625,-1.21875
97,-0.37573242,-0.2185669,0.92230225,-0.796875,-4.609375,-0.46875
98,-0.3762207,-0.23590088,0.93963623,0.109375,1.859375,1.265625
99,-0.3840332,-0.1975708,0.9345093,0.21875,-2.703125,0.75
100,-0.3857422,-0.18267822,0.9122925,0.921875,-5.15625,0.65625
101,-0.39624023,-0.24761963,0.934021,0.609375,5.859375,1.078125
102,-0.3798828,-0.2564087,0.9454956,2.109375,5.90625,1.21875
103,-0.3869629,-0.23516846,0.9418335,2.171875,1.0,-0.25
104,-0.3720703,-0.20709229,0.9335327,1.15625,0.8125,-0.703125
105,-0.37280273,-0.18170166,0.9047241,-1.765625,-0.609375,0.34375
106,-0.3684082,-0.18829346,0.9418335,0.546875,-4.328125,1.796875
107,-0.40551758,-0.19342041,0.9359741,-2.328125,-13.40625,1.46875
108,-0.40063477,-0.21490479,0.91033936,-2.46875,-12.890625,0.96875
109,-0.36694336,-0.26324463,0.8864136,-4.03125,-6.59375,0.359375
110,-0.3798828,-0.22906494,0.95184326,0.734375,14.859375,1.34375
111,-0.4020996,-0.25689697,0.9706421,3.890625,3.0,2.921875
112,-0.45092773,-0.18902588,0.932312,-3.203125,-16.5625,-1.375
113,-0.41796875,-0.2300415,0.89715576,0.6875,-1.203125,-1.671875
114,-0.3918457,-0.2720337,0.91864014,1.140625,8.65625,0.484375
115,-0.39086914,-0.20562744,0.9257202,1.0625,5.28125,1.359375
116,-0.4050293,-0.1716919,0.93133545,0.859375,-0.078125,0.640625
117,-0.4038086,-0.18951416,0.94158936,-2.0625,-10.125,-0.296875
118,-0.42333984,-0.22003174,0.8966675,0.453125,-7.5,-1.375
119,-0.38720703,-0.26348877,0.93573,7.625,12.125,1.078125
120,-0.40429688,-0.25299072,0.94525146,8.125,10.921875,3.609375
121,-0.37158203,-0.20367432,0.9594116,3.015625,0.53125,-0.328125
122,-0.36572266,-0.21002197,0.8937378,0.625,-8.3125,-0.1875
123,-0.39208984,-0.26275635,0.9008179,1.203125,-6.53125,-0.5625
124,-0.37817383,-0.27374268,0.92718506,1.015625,7.0625,-0.203125
125,-0.3972168,-0.23175049,0.9220581,2.015625,10.25,1.390625
126,-0.40600586,-0.2312622,0.95526123,1.09375,-3.203125,-0.609375
127,-0.3798828,-0.17730713,0.9269409,-1.09375,-7.484375,-2.078125
128,-0.37817383,-0.24957275,0.885437,1.40625,-2.09375,0.015625
129,-0.37548828,-0.27789307,0.9442749,1.96875,6.09375,0.375
130,-0.39379883,-0.25909424,0.92645264,2.1875,11.75,0.25
131,-0.37963867,-0.2600708,0.98358154,8.703125,12.921875,-2.53125
132,-0.3022461,-0.28082275,0.98651123,7.328125,2.609375,-3.421875
133,-0.30566406,-0.23858643,0.8932495,-2.34375,-4.171875,-3.25
134,-0.37158203,-0.222229,0.8703003,0.609375,2.546875,0.21875
135,-0.37524414,-0.2539673,0.93377686,7.84375,13.53125,-0.53125
136,-0.31274414,-0.27838135,0.9606323,7.5,17.09375,-1.15625
137,-0.3022461,-0.27545166,0.97991943,0.21875,-3.1875,0.71875
138,-0.3527832,-0.23272705,0.9069214,-2.796875,-11.734375,-0.84375
139,-0.34765625,-0.27301025,0.94403076,2.6875,3.828125,-0.21875
140,-0.3034668,-0.29571533,0.9533081,3.015625,7.84375,0.234375
141,-0.31567383,-0.2774048,0.9262085,1.265625,5.640625,0.484375
142,-0.296875,-0.2835083,0.95477295,4.84375,8.84375,0.125
143,-0.2685547,-0.27008057,0.9760132,-1.375,-4.046875,-0.71875
144,-0.28515625,-0.23297119,0.95526123,-11.625,-19.28125,-0.640625
145,-0.34594727,-0.21612549,0.8612671,-9.078125,-17.734375,0.046875
146,-0.38476562,-0.28936768,0.94403076,5.90625,10.65625,0.9375
147,-0.29736328,-0.32086182,0.9645386,5.140625,14.0,0.78125
148,-0.32714844,-0.26202393,0.96307373,5.75,10.53125,0.6875
149,-0.265625,-0.26104736,0.99334717,8.21875,5.40625,-0.984375
150,-0.26367188,-0.2498169,0.99383545,-6.265625,-17.890625,-1.421875
151,-0.3166504,-0.24053955,0.8720093,-13.6875,-20.171875,-1.28125
152,-0.35595703,-0.25982666,0.8624878,-0.828125,-1.546875,0.6875
153,-0.36376953,-0.3045044,1.0001831,6.046875,16.609375,2.703125
154,-0.2998047,-0.27618408,0.9677124,6.703125,11.28125,0.78125
155,-0.29516602,-0.2498169,0.96136475,5.140625,6.453125,0.375
156,-0.27270508,-0.25250244,0.97210693,2.828125,-1.78125,-1.15625
157,-0.27026367,-0.26275635,0.9574585,-5.09375,-15.3125,-1.25
158,-0.33520508,-0.26031494,0.869812,-4.96875,-9.109375,0.09375
159,-0.33911133,-0.2913208,0.9467163,1.359375,9.0625,0.90625
160,-0.30126953,-0.2774048,0.9347534,3.75,11.234375,-0.0625
161,-0.2915039,-0.26226807,0.9711304,5.078125,7.046875,-0.0625
162,-0.28710938,-0.26275635,0.9789429,2.53125,1.15625,-0.34375
163,-0.28295898,-0.26275635,0.9647827,-2.8125,-7.359375,-1.328125
164,-0.28173828,-0.24591064,0.9581909,-16.09375,-17.859375,-1.609375
165,-0.35546875,-0.2341919,0.9022827,-10.8125,-6.09375,-0.921875
166,-0.32592773,-0.25665283,0.9887085,1.796875,8.15625,-0.0625
167,-0.29370117,-0.24493408,0.9557495,2.28125,2.921875,-1.078125
168,-0.30371094,-0.24713135,0.96917725,5.203125,7.828125,0.046875
169,-0.2734375,-0.2539673,0.97283936,1.890625,0.203125,-0.4375
170,-0.28930664,-0.24884033,0.9801636,-2.625,-10.5625,-0.5
171,-0.3244629,-0.21368408,0.9476929,-5.296875,-15.75,-0.1875
172,-0.33642578,-0.20513916,0.887146,-3.390625,-7.765625,1.0625
173,-0.35742188,-0.25665283,0.982605,6.765625,11.75,1.359375
174,-0.29785156,-0.26397705,0.9628296,6.515625,7.90625,-0.15625
175,-0.31347656,-0.24737549,0.9525757,5.4375,7.421875,1.1875
176,-0.3076172,-0.22247314,0.94573975,-4.40625,-3.921875,0.40625
177,-0.32666016,-0.2263794,0.93865967,-7.0,-14.25,-0.90625
178,-0.33642578,-0.22686768,0.946228,-2.890625,-5.59375,-0.875
179,-0.3293457,-0.222229,0.96258545,-7.828125,-13.375,-1.578125
180,-0.3684082,-0.20440674,0.88739014,-4.953125,-7.234375,-1.328125
181,-0.35205078,-0.2498169,1.0011597,6.671875,11.15625,-0.15625
182,-0.30566406,-0.22662354,0.96307373,3.1875,8.0,-0.25
183,-0.30419922,-0.20806885,0.9503784,1.75,1.59375,0.546875
184,-0.33374023,-0.22418213,0.965271,-1.59375,-6.875,0.75
185,-0.34155273,-0.2263794,0.9328003,-3.390625,-7.9375,0.453125
186,-0.3623047,-0.21905518,0.90911865,-1.9375,-4.3125,0.21875
187,-0.35327148,-0.23834229,0.9574585,4.453125,7.84375,0.265625
188,-0.32592773,-0.23931885,0.96087646,3.65625,7.515625,0.390625
189,-0.32739258,-0.2263794,0.9887085,6.75,4.203125,0.515625
190,-0.32373047,-0.23248291,0.9447632,0.703125,-1.5,0.140625
191,-0.3330078,-0.23565674,0.96136475,2.53125,3.09375,0.40625
192,-0.31274414,-0.24591064,0.94989014,1.640625,3.390625,0.75
193,-0.3046875,-0.2300415,0.946228,-0.59375,-1.078125,0.203125
194,-0.3083496,-0.20562744,0.946228,-1.6875,-3.53125,0.28125
195,-0.31835938,-0.22198486,0.9442749,-1.796875,-4.3125,0.015625
196,-0.32885742,-0.23223877,0.95526123,-1.125,-4.6875,0.28125
197,-0.35253906,-0.20635986,0.91522217,-1.125,-11.421875,0.078125
198,-0.32543945,-0.18121338,0.93426514,5.25,-9.984375,-1.75
199,-0.3317871,-0.23712158,0.9533081,2.03125,-10.140625,1.9375
200,-0.3947754,-0.2432251,0.8786011,4.4375,-13.203125,0.671875
201,-0.3708496,-0.2871704,0.96136475,0.796875,4.0625,-0.203125
202,-0.34716797,-0.2456665,0.9179077,-2.03125,7.421875,2.203125
203,-0.39672852,-0.21832275,0.9484253,0.671875,-6.34375,-0.421875
204,-0.38427734,-0.24664307,0.9501343,-0.4375,-8.625,-0.28125
205,-0.36914062,-0.26226807,0.9335327,-2.734375,-3.328125,-1.46875
206,-0.37109375,-0.2197876,0.8878784,-3.40625,9.921875,1.21875
207,-0.38232422,-0.21490479,0.9450073,3.40625,2.828125,1.828125
208,-0.3791504,-0.23028564,0.97088623,1.828125,-7.046875,0.265625
209,-0.35473633,-0.26080322,0.93255615,-3.015625,-5.640625,0.046875
210,-0.390625,-0.23272705,0.89349365,-2.5625,11.890625,0.71875
211,-0.34106445,-0.25201416,0.9537964,6.734375,12.96875,1.828125
212,-0.31933594,-0.20489502,0.9767456,-3.6875,-13.84375,-0.140625
213,-0.41870117,-0.1975708,0.88446045,-8.5,-18.578125,0.28125
214,-0.4248047,-0.24639893,0.88934326,3.9375,12.921875,-1.046875
215,-0.32495117,-0.27764893,0.9772339,7.859375,23.71875,2.15625
216,-0.30810547,-0.22418213,1.0009155,1.75,-3.359375,0.78125
217,-0.38964844,-0.18292236,0.9113159,-6.28125,-18.25,-0.234375
218,-0.39697266,-0.2107544,0.8944702,-1.703125,-7.96875,-2.28125
219,-0.34448242,-0.2835083,0.93182373,4.265625,6.828125,-0.28125
220,-0.3408203,-0.27105713,0.9664917,4.484375,6.8125,2.28125
221,-0.39111328,-0.20489502,0.91448975,7.953125,-3.59375,1.21875
222,-0.37231445,-0.26519775,0.97406006,11.109375,-11.53125,-2.71875
223,-0.30493164,-0.27423096,0.90496826,1.328125,-6.34375,-1.515625
224,-0.37426758,-0.2354126,0.90301514,-2.015625,3.140625,3.40625
225,-0.44921875,-0.253479,0.94451904,3.921875,-1.90625,1.078125
226,-0.37158203,-0.24932861,0.9567261,-0.859375,-3.578125,-2.109375
227,-0.37280273,-0.237854,0.8788452,-7.75,-13.234375,-0.796875
228,-0.42016602,-0.2288208,0.8571167,2.109375,-0.40625,-0.84375
229,-0.3647461,-0.2901001,0.93548584,11.609375,18.984375,3.59375
230,-0.32055664,-0.28668213,0.9664917,0.5,-0.578125,1.875
231,-0.4362793,-0.23809814,0.8991089,1.171875,-2.234375,0.734375
232,-0.3647461,-0.28985596,0.9076538,2.96875,6.328125,-0.6875
233,-0.34375,-0.31085205,0.9196167,6.90625,13.46875,0.765625
234,-0.32495117,-0.30718994,0.9857788,8.296875,17.359375,3.109375
235,-0.31225586,-0.25006104,0.97088623,-4.5,-5.703125,-0.640625
236,-0.3112793,-0.23736572,0.9003296,-13.015625,-12.765625,-2.703125
237,-0.3334961,-0.24053955,0.86639404,-10.359375,-9.484375,2.015625
238,-0.40551758,-0.27252197,0.93377686,3.78125,13.203125,3.625
239,-0.32739258,-0.3171997,1.001648,8.796875,19.9375,1.828125
240,-0.29736328,-0.2871704,0.99383545,4.578125,0.703125,0.515625
241,-0.31323242,-0.23394775,0.91619873,-6.453125,-18.875,-2.6875
242,-0.3486328,-0.22491455,0.83758545,-4.6875,-9.765625,-1.453125
243,-0.3618164,-0.29327393,0.9293823,8.25,12.328125,1.171875
244,-0.3149414,-0.3110962,0.963562,6.203125,14.703125,0.921875
245,-0.27783203,-0.2835083,0.9828491,5.703125,15.953125,1.5625
246,-0.27124023,-0.27545166,0.977478,2.9375,0.171875,0.28125
247,-0.27954102,-0.2600708,0.9450073,-5.8125,-18.046875,-1.78125
248,-0.34155273,-0.2420044,0.87835693,-6.671875,-15.3125,-0.984375
249,-0.34887695,-0.2695923,0.8930054,0.40625,5.640625,1.75
250,-0.32177734,-0.31402588,0.9767456,6.671875,18.9375,2.0
251,-0.28857422,-0.31817627,0.9696655,7.65625,10.78125,0.015625
252,-0.27172852,-0.27764893,0.9579468,4.453125,1.625,0.0
253,-0.26708984,-0.26861572,0.9723511,0.1875,-7.8125,-1.03125
254,-0.30297852,-0.27764893,0.89764404,-4.609375,-11.953125,-0.515625
255,-0.3244629,-0.30230713,0.92401123,0.515625,2.53125,0.46875
256,-0.28857422,-0.29718018,0.96380615,3.65625,11.5625,0.65625
257,-0.2758789,-0.2786255,0.9476929,3.890625,4.765625,-0.0625
258,-0.2775879,-0.2942505,0.9869995,3.28125,0.421875,0.34375
259,-0.25561523,-0.2979126,0.9711304,-4.84375,-14.296875,-0.875
260,-0.32421875,-0.2468872,0.8793335,-10.109375,-21.71875,-1.59375
261,-0.3227539,-0.25274658,0.88079834,-0.484375,-11.5,-0.78125
262,-0.34887695,-0.33746338,0.93865967,1.8125,6.984375,2.40625
263,-0.31811523,-0.31793213,0.9730835,4.953125,9.140625,0.71875
264,-0.3059082,-0.2888794,0.9515991,0.75,-7.75,-1.859375
265,-0.33764648,-0.24908447,0.92889404,-0.6875,-16.15625,-1.3125
266,-0.33764648,-0.2798462,0.9286499,-3.125,-10.5625,-1.71875
267,-0.3154297,-0.28448486,0.8805542,-3.90625,0.75,0.84375
268,-0.38378906,-0.28375244,0.93133545,0.984375,6.21875,2.28125
269,-0.3449707,-0.27886963,0.9227905,2.734375,10.75,0.890625
270,-0.31152344,-0.29107666,0.9701538,4.15625,8.0,0.4375
271,-0.32958984,-0.29351807,0.96136475,1.046875,-2.546875,-0.84375
272,-0.30371094,-0.2456665,0.9135132,-2.390625,-1.828125,-0.390625
273,-0.3227539,-0.2654419,0.9039917,0.109375,11.546875,1.390625
274,-0.26611328,-0.30010986,0.95599365,0.734375,10.765625,1.25
275,-0.2919922,-0.2835083,0.96087646,-1.703125,4.140625,1.140625
276,-0.29101562,-0.2786255,0.92767334,-0.96875,9.15625,1.09375
277,-0.24853516,-0.29937744,0.98968506,4.171875,7.171875,0.109375
278,-0.2512207,-0.269104,0.97576904,-1.328125,-10.6875,-0.421875
279,-0.2902832,-0.24224854,0.8925171,-6.296875,-12.890625,0.46875
280,-0.3010254,-0.2852173,0.9332886,-1.15625,2.34375,0.921875
281,-0.27978516,-0.29815674,0.9586792,4.078125,9.53125,-0.109375
282,-0.26367188,-0.286438,0.9689331,5.234375,7.5,0.078125
283,-0.26293945,-0.2732544,0.97283936,0.765625,-1.78125,0.65625
284,-0.26489258,-0.24053955,0.96795654,-1.09375,-8.46875,-0.765625
285,-0.28173828,-0.25811768,0.92596436,-5.359375,-10.625,-0.4375
286,-0.2878418,-0.27105713,0.9376831,-4.390625,-6.4375,0.5625
287,-0.32617188,-0.32159424,0.963562,-1.09375,3.84375,2.078125
288,-0.27783203,-0.28619385,0.95843506,0.296875,2.15625,-0.0625
289,-0.29101562,-0.27618408,0.949646,0.921875,3.078125,-0.78125
290,-0.27929688,-0.2666626,0.96136475,-1.375,-1.234375,-0.84375
291,-0.27368164,-0.26690674,0.9550171,-1.09375,-4.25,-0.84375
292,-0.27685547,-0.253479,0.95428467,-2.15625,-6.4375,-0.984375
293,-0.30444336,-0.20245361,0.95965576,-3.515625,-10.4375,-1.078125
294,-0.36328125,-0.20367432,0.9347534,2.828125,-18.21875,-1.203125
295,-0.33496094,-0.2197876,0.95355225,7.0,-21.3125,-2.6875
296,-0.37280273,-0.23321533,0.86395264,-4.578125,-18.5,-0.671875
297,-0.35546875,-0.2876587,0.89276123,1.765625,3.28125,1.5625
298,-0.35595703,-0.30303955,0.93133545,3.90625,9.453125,3.5
299,-0.37768555,-0.29205322,0.93182373,2.234375,6.078125,0.84375
300,-0.3857422,-0.2678833,0.9398804,4.03125,13.625,0.5625
301,-0.3400879,-0.27105713,0.9293823,5.515625,4.890625,-0.59375
302,-0.28759766,-0.30474854,0.9537964,5.65625,7.828125,-0.078125
303,-0.28979492,-0.27886963,0.9142456,-0.5,-1.3125,0.984375
304,-0.3786621,-0.2625122,0.93548584,4.953125,13.515625,0.96875
305,-0.24926758,-0.28448486,0.98114014,6.453125,20.8125,-0.625
306,-0.2409668,-0.2612915,1.0028687,-1.765625,-8.484375,-0.703125
307,-0.27661133,-0.26837158,0.99261475,-6.421875,-25.0625,-0.015625
308,-0.4116211,-0.25128174,0.8168335,-7.4375,-25.96875,-2.140625
309,-0.31323242,-0.3213501,0.9418335,4.328125,20.203125,-1.390625
310,-0.27514648,-0.28912354,0.9755249,-4.515625,0.953125,2.328125
311,-0.39672852,-0.23028564,0.95062256,-8.875,-16.375,1.140625
312,-0.39013672,-0.23712158,0.88323975,-5.0625,-15.8125,-1.09375
313,-0.36450195,-0.2930298,0.90057373,-1.078125,3.5625,-1.921875
314,-0.3269043,-0.30523682,0.961853,3.828125,19.21875,2.0625
315,-0.30004883,-0.2546997,0.9755249,1.890625,-0.203125,1.03125
316,-0.35351562,-0.1921997,0.92059326,-2.828125,-19.09375,0.15625
317,-0.39233398,-0.2300415,0.8800659,-0.1875,-12.203125,-1.703125
318,-0.35180664,-0.302063,0.9279175,6.078125,14.5625,0.234375
319,-0.27148438,-0.300354,0.9899292,2.1875,15.59375,3.375
320,-0.3671875,-0.22442627,0.9501343,2.765625,0.796875,2.296875
321,-0.3461914,-0.26031494,0.91693115,7.609375,1.03125,-0.96875
322,-0.30737305,-0.32159424,0.9437866,4.265625,13.0,-0.546875
323,-0.2915039,-0.29937744,0.9315796,5.75,8.0625,0.34375
324,-0.29858398,-0.28179932,0.96746826,6.8125,3.453125,0.453125
325,-0.2841797,-0.24786377,0.9191284,0.375,5.40625,0.6875
326,-0.26708984,-0.28961182,0.93426514,-3.734375,15.234375,1.375
327,-0.23486328,-0.2852173,0.9562378,-2.640625,10.125,1.546875
328,-0.2705078,-0.28497314,0.9660034,2.109375,2.734375,1.28125
329,-0.2524414,-0.29644775,0.9784546,3.0,0.453125,0.609375
330,-0.23413086,-0.2822876,0.9640503,-3.8125,-7.5625,-0.3125
331,-0.26757812,-0.27178955,0.91082764,-6.390625,-11.15625,-0.234375
332,-0.28125,-0.29962158,0.92230225,1.3125,5.546875,1.265625
333,-0.23828125,-0.3086548,0.97772217,5.921875,12.515625,-0.296875
334,-0.21606445,-0.30670166,0.99383545,4.015625,-0.4375,-0.671875
335,-0.23925781,-0.2498169,0.94158936,-3.15625,-11.359375,-0.078125
336,-0.30200195,-0.2666626,0.9215698,-0.875,-1.75,0.484375
337,-0.25073242,-0.31134033,0.96258545,2.625,7.203125,-0.265625
338,-0.24536133,-0.30548096,0.9437866,2.640625,9.453125,-0.046875
339,-0.2253418,-0.31500244,0.9730835,7.03125,14.234375,0.0625
340,-0.19018555,-0.29571533,0.97991943,3.390625,2.03125,-1.15625
341,-0.20263672,-0.26446533,0.95477295,-3.03125,-13.078125,-1.15625
342,-0.24536133,-0.27301025,0.92596436,-3.015625,-5.265625,0.734375
343,-0.22973633,-0.3045044,0.96917725,-0.5,1.609375,0.625
344,-0.2211914,-0.3123169,0.9525757,-0.28125,-0.46875,0.359375
345,-0.23583984,-0.29205322,0.9738159,-0.640625,-1.609375,0.625
346,-0.22314453,-0.27667236,0.97332764,-2.484375,-4.671875,0.28125
347,-0.24291992,-0.27764893,0.98236084,-4.609375,-14.546875,0.078125
348,-0.2758789,-0.255188,0.8578491,-8.046875,-14.953125,0.890625
349,-0.3581543,-0.32086182,0.96087646,6.953125,4.09375,0.46875
350,-0.21533203,-0.31378174,0.9840698,7.75,9.796875,-2.609375
351,-0.23901367,-0.31500244,0.93792725,2.71875,11.484375,0.03125
352,-0.23901367,-0.27838135,0.9916382,7.078125,4.015625,-0.296875
353,-0.2084961,-0.24737549,0.99554443,-0.171875,-14.640625,-1.828125
354,-0.26611328,-0.2498169,0.8822632,-4.53125,-10.53125,-0.03125
355,-0.25634766,-0.3237915,0.97039795,0.03125,11.359375,1.640625
356,-0.22241211,-0.31549072,0.9894409,-0.328125,2.265625,0.21875
357,-0.25195312,-0.26593018,0.9303589,-2.03125,0.484375,1.125
358,-0.26464844,-0.27838135,0.94866943,0.703125,3.734375,1.265625
359,-0.23779297,-0.3196411,0.9935913,2.890625,-0.125,-0.28125
360,-0.2290039,-0.2756958,0.9657593,-1.84375,-8.703125,-0.96875
361,-0.25341797,-0.2732544,0.91571045,-2.859375,-3.765625,0.625
362,-0.2529297,-0.30059814,0.963562,0.078125,3.28125,0.3125
363,-0.24682617,-0.29986572,0.93743896,1.546875,3.125,0.125
364,-0.23486328,-0.30303955,0.97698975,3.515625,7.078125,0.1875
365,-0.26123047,-0.26885986,0.97332764,1.8125,-4.046875,0.328125
366,-0.23632812,-0.24908447,0.9328003,-0.4375,-15.65625,-1.46875
367,-0.27172852,-0.2798462,0.9303589,0.4375,-4.234375,-0.375
368,-0.24682617,-0.32867432,0.9857788,3.34375,9.90625,0.796875
369,-0.19750977,-0.29766846,0.9723511,-0.03125,-1.421875,0.09375
370,-0.2746582,-0.25323486,0.95721436,-0.625,-13.75,0.796875
371,-0.2697754,-0.24029541,1.0092163,-3.359375,-41.171875,-3.0625
372,-0.38745117,-0.18756104,0.8253784,-15.90625,-40.09375,-1.65625
373,-0.3400879,-0.2727661,0.8305054,-0.6875,3.03125,0.96875
374,-0.27172852,-0.40386963,1.0153198,5.671875,33.375,5.546875
375,-0.29492188,-0.30548096,0.9911499,-3.0625,-4.484375,3.359375
376,-0.40112305,-0.19854736,0.934021,-5.34375,-26.203125,-1.328125
377,-0.40429688,-0.23394775,0.9022827,-7.375,-16.59375,-2.421875
378,-0.35620117,-0.2876587,0.8637085,-5.203125,3.859375,-1.234375
379,-0.3618164,-0.33087158,0.9750366,3.625,10.515625,2.921875
380,-0.33081055,-0.23516846,0.96380615,-5.015625,-4.421875,1.046875
381,-0.3737793,-0.17388916,0.9262085,-7.59375,-11.328125,-0.09375
382,-0.39672852,-0.21783447,0.9242554,-7.953125,-13.953125,-1.453125
383,-0.37280273,-0.2234497,0.8908081,-11.703125,-14.1875,-0.765625
384,-0.44091797,-0.18341064,0.9257202,-6.125,-1.875,1.828125
385,-0.39501953,-0.22003174,0.9435425,-0.71875,1.3125,1.96875
386,-0.40014648,-0.1963501,0.96209717,-4.109375,-10.546875,-0.421875
387,-0.45996094,-0.16461182,0.8991089,-3.859375,-9.921875,-0.578125
388,-0.43481445,-0.23248291,0.9147339,-0.03125,4.640625,-0.390625
389,-0.4086914,-0.23834229,0.9320679,3.09375,11.703125,1.4375
390,-0.39013672,-0.18756104,0.91986084,3.96875,9.359375,0.71875
391,-0.40429688,-0.17047119,0.93914795,7.078125,5.40625,-0.5
392,-0.38964844,-0.206604,0.94696045,8.625,2.828125,-0.46875
393,-0.35791016,-0.22857666,0.9232788,4.84375,1.390625,-0.015625
394,-0.4038086,-0.23297119,0.8876343,8.21875,15.546875,0.921875
395,-0.36279297,-0.29327393,0.9660034,18.921875,41.90625,1.171875
396,-0.24169922,-0.286438,1.0065308,10.578125,17.78125,-1.515625
397,-0.24047852,-0.2263794,0.89471436,1.765625,8.1875,-0.203125
398,-0.2775879,-0.25909424,0.963562,5.984375,19.34375,1.484375
399,-0.23803711,-0.2798462,1.0021362,2.71875,1.609375,-0.90625
400,-0.24853516,-0.24249268,0.9899292,-10.734375,-24.8125,-0.796875
401,-0.32299805,-0.19732666,0.8822632,-15.484375,-28.390625,1.53125
402,-0.34643555,-0.22979736,0.89764404,-2.53125,6.0,2.34375
403,-0.3137207,-0.2979126,1.015564,9.609375,15.9375,0.734375
404,-0.23925781,-0.2925415,0.96087646,5.09375,5.28125,-0.484375
405,-0.27001953,-0.25738525,0.9501343,3.90625,4.953125,1.421875
406,-0.27294922,-0.26568604,0.98236084,3.015625,-0.28125,0.28125
407,-0.24389648,-0.25250244,0.963562,-4.296875,-15.6875,-1.796875
408,-0.3095703,-0.24005127,0.920105,-13.078125,-22.0625,-0.078125
409,-0.33569336,-0.24591064,0.93304443,-6.546875,-5.890625,0.90625
410,-0.32006836,-0.23760986,0.9586792,1.78125,4.765625,0.703125
411,-0.3154297,-0.24346924,0.9320679,5.875,11.046875,-0.390625
412,-0.28198242,-0.26617432,0.99993896,9.546875,8.15625,-0.3125
413,-0.27294922,-0.25323486,0.9899292,3.171875,-8.90625,-0.78125
414,-0.31298828,-0.2210083,0.89471436,-5.484375,-14.296875,-0.390625
415,-0.31689453,-0.2756958,0.9215698,-0.953125,3.09375,0.296875
416,-0.31469727,-0.28497314,0.9718628,1.375,10.65625,0.578125
417,-0.29907227,-0.2576294,0.94940186,2.828125,12.640625,0.578125
418,-0.2705078,-0.237854,0.96868896,3.671875,3.03125,0.359375
419,-0.25756836,-0.24468994,0.99432373,1.421875,-4.640625,-0.3125
420,-0.2758789,-0.23590088,0.9447632,-4.015625,-12.3125,-0.328125
421,-0.28710938,-0.23858643,0.92718506,-4.28125,-6.515625,0.421875
422,-0.30444336,-0.25054932,0.9515991,-3.046875,-0.3125,2.0
423,-0.31176758,-0.2539673,0.94696045,0.15625,2.78125,1.296875
424,-0.2998047,-0.27398682,0.9689331,1.296875,2.0625,0.921875
425,-0.31445312,-0.24932861,0.97991943,0.71875,-6.109375,-0.265625
426,-0.29638672,-0.22686768,0.9411011,-1.03125,-10.328125,-0.984375
427,-0.31445312,-0.24053955,0.9208374,-0.140625,-5.796875,-0.6875
428,-0.33251953,-0.26763916,0.95599365,2.53125,3.6875,0.265625
429,-0.3173828,-0.25689697,0.9347534,0.65625,4.421875,-0.109375
430,-0.32250977,-0.24151611,0.9598999,4.8125,1.765625,-0.484375
431,-0.29833984,-0.2444458,0.9633179,3.34375,-2.53125,-1.125
432,-0.30297852,-0.24737549,0.934021,1.15625,-4.53125,-0.75
433,-0.29492188,-0.2600708,0.9335327,0.953125,4.40625,0.4375
434,-0.28344727,-0.2695923,0.97161865,-0.1875,2.5,0.796875
435,-0.30322266,-0.25372314,0.95721436,-2.625,0.109375,0.953125
436,-0.30371094,-0.25665283,0.94696045,-5.171875,-1.890625,0.9375
437,-0.30566406,-0.255188,0.9833374,-1.953125,-3.265625,0.765625
438,-0.3227539,-0.21466064,0.9567261,-3.203125,-9.375,1.3125
439,-0.32373047,-0.20758057,0.9298706,-3.921875,-9.703125,1.0625
440,-0.32543945,-0.2210083,0.9225464,-4.21875,-6.640625,0.75
441,-0.33007812,-0.24737549,0.9459839,-2.265625,-1.96875,0.78125
442,-0.35058594,-0.24346924,0.9664917,-0.390625,1.25,0.5625
443,-0.34545898,-0.21514893,0.9393921,0.859375,3.59375,0.046875
444,-0.31933594,-0.21954346,0.9567261,2.515625,3.578125,-0.4375
445,-0.29296875,-0.21612549,0.96136475,-3.078125,-6.53125,0.234375
446,-0.30395508,-0.19049072,0.86883545,-26.203125,-22.5625,0.421875
447,-0.3881836,-0.14141846,0.96136475,-8.5625,-8.171875,0.3125
448,-0.41137695,-0.2539673,0.9804077,-1.578125,-2.28125,2.15625
449,-0.38378906,-0.18243408,0.9491577,-1.5625,1.25,1.875
450,-0.36523438,-0.15264893,0.96136475,1.65625,1.96875,0.46875
451,-0.3569336,-0.1741333,0.9533081,5.015625,0.609375,0.34375
452,-0.35717773,-0.21148682,0.96795654,3.0625,-3.9375,0.484375
453,-0.35839844,-0.1873169,0.96429443,-7.078125,-9.796875,0.4375
454,-0.42041016,-0.12994385,0.88079834,-6.34375,-17.203125,-1.359375
455,-0.3930664,-0.16851807,0.90838623,3.484375,0.515625,-2.03125
456,-0.38964844,-0.18243408,0.9262085,-3.609375,-5.046875,2.015625
457,-0.4267578,-0.09942627,0.92889404,6.203125,-14.859375,-1.609375
458,-0.40576172,-0.14874268,0.94158936,-0.71875,-10.5,0.515625
459,-0.42236328,-0.21612549,0.920105,-4.796875,-5.0,2.109375
460,-0.44384766,-0.21026611,0.96014404,-6.125,4.921875,0.625
461,-0.44921875,-0.18707275,0.9472046,2.96875,6.5,3.125
462,-0.40820312,-0.15557861,0.899353,0.203125,-12.03125,0.171875
463,-0.44750977,-0.14337158,0.91400146,-1.0625,-13.015625,-0.921875
464,-0.43701172,-0.1795044,0.89398193,-3.484375,0.859375,0.3125
465,-0.44750977,-0.18463135,0.92889404,-1.828125,5.25,1.59375
466,-0.46948242,-0.15631104,0.9352417,-3.09375,3.265625,1.90625
467,-0.45166016,-0.11553955,0.93304443,-2.4375,-2.6875,-0.046875
468,-0.44458008,-0.14849854,0.91082764,1.546875,-0.609375,-0.84375
469,-0.42407227,-0.18023682,0.93377686,5.984375,9.1875,1.015625
470,-0.41333008,-0.1819458,0.9503784,2.859375,1.53125,1.578125
471,-0.44628906,-0.1182251,0.9188843,-5.09375,-14.75,-0.640625
472,-0.44018555,-0.124572754,0.87371826,-4.28125,-10.3125,-2.328125
473,-0.45825195,-0.1843872,0.9220581,5.25,-1.9375,0.59375
474,-0.4399414,-0.1560669,0.9081421,-1.875,-4.8125,2.328125
475,-0.4597168,-0.13848877,0.9293823,-1.125,-1.796875,1.21875
476,-0.49975586,-0.14312744,0.9266968,-0.625,-1.421875,0.953125
477,-0.45703125,-0.14459229,0.90838623,-1.421875,-3.625,0.28125
478,-0.44628906,-0.15997314,0.9035034,1.234375,-1.109375,-0.5625
479,-0.47143555,-0.16290283,0.9098511,-1.265625,-1.609375,-0.03125
480,-0.46679688,-0.16802979,0.916687,-0.921875,3.875,0.015625
481,-0.46850586,-0.15216064,0.9196167,-0.765625,5.0625,0.28125
482,-0.4711914,-0.13092041,0.93304443,4.03125,9.25,0.515625
483,-0.42529297,-0.15362549,0.9310913,10.25,14.15625,1.984375
484,-0.40283203,-0.1795044,0.9423218,8.625,7.265625,1.71875
485,-0.4140625,-0.16217041,0.93792725,1.3125,-2.921875,-1.21875
486,-0.42578125,-0.1362915,0.89105225,-1.953125,-7.921875,-1.671875
487,-0.4152832,-0.16973877,0.9110718,2.390625,1.765625,-0.296875
488,-0.42578125,-0.19781494,0.9508667,5.140625,12.890625,1.03125
489,-0.40576172,-0.19537354,0.9411011,5.78125,13.21875,1.53125
490,-0.39111328,-0.15338135,0.92523193,2.671875,3.84375,0.375
491,-0.40356445,-0.17047119,0.9525757,0.984375,-2.96875,0.125
492,-0.36376953,-0.16070557,0.888855,-10.328125,-13.546875,-1.59375
493,-0.4033203,-0.12310791,0.916687,-2.875,-9.4375,-3.171875
494,-0.39697266,-0.2000122,0.9215698,-1.984375,8.078125,-0.6875
495,-0.41259766,-0.1638794,0.96698,3.6875,8.390625,0.59375
496,-0.43481445,-0.18951416,0.9899292,4.09375,-0.078125,-2.046875
497,-0.42407227,-0.16656494,0.95306396,0.28125,-2.796875,-1.34375
498,-0.37817383,-0.16802979,0.9503784,-2.703125,-7.125,-2.5
499,-0.39819336,-0.18096924,0.9293823,-3.203125,-7.546875,-0.53125
500,-0.38916016,-0.1765747,0.9196167,0.671875,3.265625,0.265625
501,-0.39916992,-0.16583252,0.9352417,3.390625,7.78125,2.046875
502,-0.39111328,-0.15899658,0.9528198,5.609375,6.59375,1.125
503,-0.38891602,-0.17315674,0.9503784,4.46875,1.296875,0.34375
504,-0.3959961,-0.16046143,0.9376831,-0.03125,-6.625,-0.078125
505,-0.4008789,-0.159729,0.9298706,-2.640625,-9.625,-0.421875
506,-0.41723633,-0.17999268,0.91986084,-1.046875,-3.890625,0.234375
507,-0.4272461,-0.19610596,0.9293823,0.484375,5.890625,0.921875
508,-0.42529297,-0.18145752,0.9762573,4.578125,8.71875,0.90625
509,-0.39135742,-0.1873169,0.9332886,2.5625,2.671875,0.421875
510,-0.35375977,-0.1416626,0.9281616,-0.515625,-4.921875,-0.71875
511,-0.3972168,-0.18243408,0.932312,-0.8125,-7.015625,-0.53125
512,-0.39697266,-0.17608643,0.9196167,-0.234375,-1.59375,-0.140625
513,-0.3942871,-0.18878174,0.93621826,1.328125,5.03125,0.015625
514,-0.39526367,-0.17633057,0.9266968,4.5625,9.234375,0.484375
515,-0.38085938,-0.19073486,0.96746826,9.03125,13.71875,1.171875
516,-0.36987305,-0.20831299,0.9730835,11.015625,6.140625,0.875
517,-0.38720703,-0.20440674,0.9540405,8.46875,-6.390625,-1.046875
518,-0.3540039,-0.21221924,0.934021,2.015625,-6.125,-1.828125
519,-0.33911133,-0.20513916,0.8903198,-1.390625,2.421875,0.171875
520,-0.35351562,-0.21368408,0.93963623,2.265625,9.140625,1.71875
521,-0.35620117,-0.22296143,0.9525757,3.890625,8.5625,2.203125
522,-0.35083008,-0.23345947,0.9645386,3.703125,4.703125,0.453125
523,-0.3359375,-0.2185669,0.96868896,0.46875,-4.25,-1.328125
524,-0.33764648,-0.1975708,0.9196167,-4.734375,-10.1875,-1.296875
525,-0.35961914,-0.21343994,0.92523193,-0.453125,0.859375,0.46875
526,-0.3383789,-0.23565674,0.9640503,3.25,9.46875,1.765625
527,-0.33129883,-0.22491455,0.9328003,1.953125,5.0,0.6875
528,-0.33984375,-0.24395752,0.9660034,5.703125,9.921875,0.0625
529,-0.30688477,-0.25274658,0.97283936,6.8125,14.265625,-0.078125
530,-0.27807617,-0.23614502,0.95843506,2.765625,1.59375,-0.234375
531,-0.28076172,-0.21295166,0.9747925,-1.78125,-9.28125,-0.640625
532,-0.32226562,-0.21026611,0.9227905,-7.015625,-12.9375,0.109375
533,-0.3515625,-0.237854,0.9401245,-0.921875,4.296875,0.78125
534,-0.3334961,-0.25152588,0.96502686,3.359375,10.75,0.15625
535,-0.30004883,-0.2354126,0.9664917,6.65625,9.203125,-1.328125
536,-0.2770996,-0.24176025,0.96673584,5.078125,2.828125,-0.5
537,-0.27270508,-0.21466064,0.9591675,-1.328125,-7.78125,-0.4375
538,-0.28979492,-0.22711182,0.9345093,-5.296875,-10.296875,0.234375
539,-0.3269043,-0.22467041,0.95477295,-5.90625,-6.875,0.984375
540,-0.30664062,-0.2390747,0.9735718,-1.671875,1.046875,1.171875
541,-0.28833008,-0.22930908,0.9701538,-2.546875,-5.765625,0.875
542,-0.3173828,-0.19390869,0.93914795,-5.140625,-17.875,0.90625
543,-0.38720703,-0.17852783,0.9069214,-2.609375,-25.296875,0.109375
544,-0.39526367,-0.24810791,0.95721436,-2.546875,-8.34375,0.09375
545,-0.3647461,-0.24542236,0.9164429,-4.484375,6.6875,1.984375
546,-0.3544922,-0.22540283,0.96990967,0.015625,10.75,1.8125
547,-0.36694336,-0.18609619,0.946228,3.453125,-3.59375,0.21875
548,-0.38330078,-0.19683838,0.92645264,-1.765625,-16.171875,-0.9375
549,-0.39819336,-0.19488525,0.9269409,-2.625,-12.65625,-1.828125
550,-0.40039062,-0.20465088,0.90545654,-1.171875,1.109375,-0.34375
551,-0.38012695,-0.22076416,0.9491577,2.640625,13.1875,1.71875
552,-0.39257812,-0.20831299,0.97454834,3.4375,10.484375,2.578125
553,-0.3527832,-0.18634033,0.9437866,3.671875,3.0625,-0.296875
554,-0.3474121,-0.20635986,0.91986084,1.5,-0.859375,-1.0625
555,-0.37768555,-0.2276001,0.96307373,3.6875,10.125,0.171875
556,-0.31835938,-0.24005127,0.9520874,4.625,8.265625,0.59375
557,-0.31030273,-0.21905518,0.9672241,-2.625,-9.125,-0.71875
558,-0.37231445,-0.16900635,0.9213257,-6.34375,-13.84375,-0.84375
559,-0.36914062,-0.19024658,0.9171753,-2.171875,-5.34375,-1.265625
560,-0.37353516,-0.21929932,0.95526123,2.859375,9.15625,0.5
561,-0.34521484,-0.22564697,0.9579468,4.8125,13.25,1.359375
562,-0.33398438,-0.21881104,0.9508667,4.65625,2.765625,0.234375
563,-0.3330078,-0.20465088,0.9616089,3.0625,-4.390625,-0.0625
564,-0.3371582,-0.23321533,0.94866943,-4.234375,-14.3125,-0.546875
565,-0.38330078,-0.22515869,0.91448975,-5.296875,-23.703125,-1.5
566,-0.4284668,-0.20880127,0.8847046,2.875,-16.546875,-1.625
567,-0.3786621,-0.23492432,0.94940186,6.109375,6.84375,-1.078125
568,-0.35253906,-0.21636963,0.92889404,0.046875,-1.4375,1.109375
569,-0.42358398,-0.16778564,0.916687,-3.4375,-12.53125,-0.765625
570,-0.43164062,-0.21343994,0.92352295,-0.640625,-6.171875,-0.046875
571,-0.4194336,-0.24859619,0.9171753,0.796875,1.375,-0.546875
572,-0.3881836,-0.24957275,0.93963623,-0.15625,8.75,0.421875
573,-0.41625977,-0.19244385,0.91082764,0.8125,4.40625,1.21875
574,-0.4020996,-0.21905518,0.92767334,4.953125,7.328125,0.90625
575,-0.37109375,-0.24224854,0.9467163,4.203125,10.453125,0.921875
576,-0.36791992,-0.22833252,0.94647217,1.578125,-0.15625,0.578125
577,-0.36450195,-0.19464111,0.9213257,-4.8125,-7.09375,-0.640625
578,-0.35913086,-0.19903564,0.89349365,-1.171875,1.5,0.625
579,-0.38891602,-0.23956299,0.94281006,1.703125,11.28125,2.046875
580,-0.36889648,-0.24664307,0.9598999,5.34375,10.796875,0.875
581,-0.35253906,-0.2300415,0.9606323,5.390625,9.28125,0.625
582,-0.3359375,-0.2210083,0.9447632,5.25,8.59375,0.65625
583,-0.30395508,-0.22467041,0.96209717,3.78125,3.09375,-0.109375
584,-0.3059082,-0.2456665,0.9274292,-4.1875,-2.640625,1.671875
585,-0.32299805,-0.24420166,0.9442749,-3.203125,-0.984375,1.71875
586,-0.3388672,-0.25787354,0.9611206,1.21875,6.1875,1.296875
587,-0.32202148,-0.24932861,0.9718628,5.125,9.09375,0.65625
588,-0.29418945,-0.23590088,0.9581909,3.15625,4.65625,0.34375
589,-0.29345703,-0.22125244,0.949646,-0.546875,-3.15625,-0.21875
590,-0.3095703,-0.23809814,0.94525146,-0.453125,-4.9375,0.0
591,-0.31176758,-0.24884033,0.95477295,-0.265625,-2.390625,0.203125
592,-0.31518555,-0.23468018,0.9393921,-1.078125,-2.78125,-0.421875
593,-0.3112793,-0.24908447,0.9591675,1.625,3.84375,0.203125
594,-0.30541992,-0.24591064,0.94696045,1.96875,5.84375,0.015625
595,-0.28808594,-0.25128174,0.95721436,2.640625,4.484375,-0.5
596,-0.2836914,-0.24810791,0.9645386,1.296875,-1.671875,-0.703125
597,-0.28515625,-0.24053955,0.9640503,0.90625,-4.453125,-0.28125
598,-0.30126953,-0.24468994,0.901062,0.546875,3.734375,0.140625
599,-0.29052734,-0.27349854,0.9874878,7.359375,16.90625,-0.375
600,-0.26464844,-0.28790283,0.9789429,7.625,10.234375,-0.578125
601,-0.24243164,-0.25616455,0.9594116,2.515625,3.125,0.34375
602,-0.26367188,-0.25811768,0.9603882,1.234375,1.4375,0.203125
603,-0.24633789,-0.27398682,0.97454834,2.046875,1.796875,-0.96875
604,-0.24609375,-0.2744751,0.97210693,1.046875,0.59375,-0.640625
605,-0.23950195,-0.24859619,0.98065186,-1.1875,-4.421875,0.125
606,-0.25439453,-0.23150635,0.9347534,-4.15625,-10.015625,0.640625
607,-0.2800293,-0.27374268,0.9459839,-0.171875,-0.140625,0.6875
608,-0.25634766,-0.302063,0.99676514,0.703125,1.421875,0.375
609,-0.25390625,-0.2695923,0.9647827,-1.53125,-4.015625,-0.3125
610,-0.25756836,-0.23736572,0.9567261,-1.015625,-4.03125,0.25
611,-0.27563477,-0.25250244,0.965271,-1.75,-4.6875,0.625
612,-0.24536133,-0.24908447,1.0065308,-4.4375,-18.46875,0.53125
613,-0.32202148,-0.21148682,0.90960693,-17.640625,-44.703125,1.234375
614,-0.4182129,-0.15777588,0.8588257,-10.703125,-33.578125,-0.828125
615,-0.3869629,-0.24664307,0.91082764,0.453125,4.875,-0.484375
616,-0.36206055,-0.29693604,0.9923706,5.046875,29.0625,4.109375
617,-0.3161621,-0.24932861,0.9730835,5.5625,-0.984375,0.46875
618,-0.36083984,-0.19390869,0.9550171,-4.8125,-26.796875,-1.015625
619,-0.42700195,-0.18609619,0.8456421,-8.390625,-20.78125,-2.546875
620,-0.41967773,-0.26104736,0.8981323,3.3125,15.796875,-1.578125
621,-0.3310547,-0.28204346,0.96380615,6.09375,16.671875,2.75
622,-0.39379883,-0.16778564,0.9364624,-0.421875,-18.40625,1.078125
623,-0.40649414,-0.1585083,0.91937256,0.609375,-10.015625,-1.234375
624,-0.3720703,-0.2390747,0.9371948,5.03125,9.453125,-0.09375
625,-0.32080078,-0.2859497,0.95648193,3.40625,10.5,2.046875
626,-0.37841797,-0.22320557,0.9257202,1.40625,4.078125,3.09375
627,-0.39013672,-0.24493408,0.9696655,6.546875,4.3125,0.1875
628,-0.35742188,-0.27423096,0.94818115,3.015625,8.25,-1.171875
629,-0.3244629,-0.25299072,0.90618896,-0.234375,8.84375,-0.15625
630,-0.33129883,-0.24224854,0.9528198,4.328125,5.328125,-0.0625
631,-0.29345703,-0.22540283,1.001648,-0.359375,-8.109375,-0.875
632,-0.35742188,-0.2131958,0.90911865,-12.25,-17.59375,-0.375
633,-0.41552734,-0.19049072,0.87127686,-3.359375,-3.0,-0.953125
634,-0.35302734,-0.2666626,0.9611206,4.734375,15.09375,0.984375
635,-0.32348633,-0.25811768,0.9647827,4.625,12.328125,2.21875
636,-0.30932617,-0.23223877,0.97283936,6.875,6.0625,0.96875
637,-0.30859375,-0.25494385,0.98114014,4.71875,-3.890625,-0.734375
638,-0.3154297,-0.24810791,0.9281616,-5.546875,-17.03125,-1.890625
639,-0.37036133,-0.22613525,0.88739014,-5.46875,-13.75,-2.359375
640,-0.36645508,-0.2600708,0.9171753,0.671875,2.140625,0.34375
641,-0.35009766,-0.23858643,0.96502686,2.65625,8.515625,1.359375
642,-0.34155273,-0.23077393,0.9328003,3.140625,1.5625,0.796875
643,-0.35131836,-0.23052979,0.9489136,3.09375,-0.875,-0.3125
644,-0.35620117,-0.24859619,0.9628296,3.53125,-6.140625,-1.765625
645,-0.33691406,-0.24639893,0.94281006,-3.640625,-9.109375,-1.5
646,-0.35058594,-0.22589111,0.8744507,-5.203125,-3.75,-0.1875
647,-0.3774414,-0.2559204,0.9196167,2.6875,10.53125,1.53125
648,-0.3383789,-0.2546997,0.95355225,5.453125,10.671875,1.640625
649,-0.3395996,-0.2625122,0.9660034,4.703125,4.71875,0.375
650,-0.32666016,-0.24542236,0.9503784,4.28125,4.875,0.28125
651,-0.3239746,-0.26031494,0.9533081,5.171875,-0.3125,-0.890625
652,-0.29882812,-0.24859619,0.961853,-1.078125,-6.015625,-0.5625
653,-0.3466797,-0.23687744,0.90545654,-3.890625,-7.421875,-0.421875
654,-0.34057617,-0.25543213,0.9540405,-0.234375,-1.75,-0.203125
655,-0.32617188,-0.27886963,0.9747925,-2.15625,-8.0,-0.671875
656,-0.36621094,-0.23175049,0.89520264,-6.3125,-10.90625,-1.59375
657,-0.39135742,-0.19683838,0.9047241,-0.734375,3.828125,0.828125
658,-0.33618164,-0.27838135,0.9694214,3.828125,1.234375,1.140625
659,-0.3395996,-0.27301025,0.96136475,-4.578125,-13.140625,-0.40625
660,-0.4050293,-0.19927979,0.871521,-5.53125,-5.84375,-0.859375
661,-0.3786621,-0.24127197,0.93573,6.234375,10.65625,0.125
662,-0.3400879,-0.253479,0.95306396,4.703125,7.296875,1.328125
663,-0.36083984,-0.24371338,0.9376831,4.953125,6.546875,1.359375
664,-0.34179688,-0.26080322,0.9569702,7.78125,11.375,0.703125
665,-0.30688477,-0.26593018,0.9603882,6.484375,6.796875,-0.734375
666,-0.30859375,-0.25567627,0.9447632,1.859375,2.828125,0.890625
667,-0.30371094,-0.25494385,0.93499756,-0.546875,9.765625,1.28125
668,-0.26220703,-0.27911377,0.9501343,-5.171875,5.859375,1.515625
669,-0.27978516,-0.27496338,0.9623413,-7.84375,0.640625,2.765625
670,-0.3149414,-0.25787354,0.9760132,-4.0,-3.09375,1.78125
671,-0.30639648,-0.22833252,0.9606323,-3.859375,-8.6875,-0.5625
672,-0.33666992,-0.2107544,0.947937,-3.03125,-20.75,-1.890625
673,-0.39916992,-0.2107544,0.9418335,2.65625,-31.015625,-4.21875
674,-0.3828125,-0.23272705,0.93670654,2.078125,-22.125,-4.015625
675,-0.33447266,-0.23590088,0.8641968,-5.03125,-7.15625,1.078125
676,-0.3972168,-0.22515869,0.8632202,-3.703125,-0.90625,1.78125
677,-0.37060547,-0.25201416,0.93670654,-0.359375,22.78125,3.875
678,-0.40063477,-0.24493408,1.001648,5.078125,6.359375,3.921875
679,-0.42211914,-0.2564087,0.97088623,-0.921875,-21.03125,-2.328125
680,-0.35791016,-0.20880127,0.87298584,-7.859375,-6.21875,-1.546875
681,-0.3684082,-0.20831299,0.8842163,-0.84375,6.734375,-0.046875
682,-0.35839844,-0.253479,0.97650146,1.125,14.984375,3.15625
683,-0.40429688,-0.20806885,0.9657593,2.453125,6.328125,3.21875
684,-0.38989258,-0.22247314,0.9315796,5.453125,4.28125,-1.25
685,-0.33422852,-0.2654419,0.961853,8.3125,18.03125,-0.296875
686,-0.28198242,-0.24932861,0.97943115,6.640625,2.53125,-0.265625
687,-0.29785156,-0.21221924,0.9310913,-5.671875,-13.84375,0.703125
688,-0.35375977,-0.23736572,0.8685913,-9.40625,-3.53125,0.09375
689,-0.4091797,-0.22808838,0.9310913,1.28125,12.46875,0.796875
690,-0.30859375,-0.24151611,0.99212646,7.40625,10.515625,0.078125
691,-0.2998047,-0.23638916,0.9772339,2.03125,-3.71875,0.96875
692,-0.33251953,-0.21051025,0.95477295,-5.421875,-14.65625,0.015625
693,-0.34594727,-0.2210083,0.8973999,-7.921875,-17.09375,-1.96875
694,-0.36035156,-0.24542236,0.9086304,-5.0,-4.84375,-0.4375
695,-0.35131836,-0.2354126,0.9454956,0.484375,8.671875,2.25
696,-0.35473633,-0.21807861,0.9677124,3.5625,3.625,1.6875
697,-0.35791016,-0.21905518,0.9640503,3.3125,-1.53125,-0.125
698,-0.34375,-0.23052979,0.96673584,-0.21875,-5.375,-0.453125
699,-0.3552246,-0.21466064,0.9003296,-5.96875,-11.328125,-1.078125
700,-0.3779297,-0.22027588,0.89715576,-1.65625,-0.96875,-0.671875
701,-0.3725586,-0.22467041,0.95428467,5.1875,12.703125,1.609375
702,-0.3474121,-0.2288208,0.9476929,4.5625,5.21875,1.25
703,-0.3564453,-0.20806885,0.9581909,6.609375,1.234375,-0.4375
704,-0.32470703,-0.23077393,0.9657593,3.1875,-1.59375,-1.234375
705,-0.33129883,-0.23321533,0.9086304,-1.375,-4.796875,-1.28125
706,-0.33422852,-0.26226807,0.9418335,0.0625,6.03125,0.46875
707,-0.3305664,-0.22491455,0.95062256,-0.046875,5.390625,1.09375
708,-0.33666992,-0.21539307,0.9594116,0.90625,-1.703125,-0.15625
709,-0.3449707,-0.21539307,0.94525146,-0.46875,-5.578125,-0.421875
710,-0.35180664,-0.22686768,0.94207764,-0.8125,-0.296875,-0.25
711,-0.3173828,-0.23492432,0.9389038,-0.328125,-1.34375,-0.15625
712,-0.3544922,-0.25030518,0.9320679,0.34375,3.859375,0.984375
713,-0.3408203,-0.24298096,0.97772217,6.125,9.125,0.609375
714,-0.31347656,-0.23883057,0.9633179,3.875,-0.421875,-0.421875
715,-0.31176758,-0.2354126,0.9320679,3.296875,-4.96875,-0.84375
716,-0.31274414,-0.24517822,0.93963623,3.078125,4.140625,0.25
717,-0.3166504,-0.25274658,0.94451904,2.15625,4.71875,0.703125
718,-0.3317871,-0.25030518,0.951355,1.875,4.03125,0.71875
719,-0.3125,-0.25030518,0.9562378,4.296875,8.578125,0.671875
720,-0.28271484,-0.2498169,0.9696655,3.140625,3.390625,-0.53125
721,-0.28344727,-0.25738525,0.9750366,0.828125,-4.8125,-1.234375
722,-0.2998047,-0.2354126,0.90423584,-2.09375,-6.5625,-0.21875
723,-0.3215332,-0.27886963,0.94647217,2.21875,6.703125,1.046875
724,-0.27856445,-0.27227783,0.9694214,3.265625,5.6875,0.015625
725,-0.2788086,-0.25811768,0.9435425,0.140625,1.828125,-0.1875
726,-0.28222656,-0.25958252,0.96868896,2.6875,6.984375,0.6875
727,-0.27001953,-0.27423096,0.9813843,2.078125,-0.546875,-0.03125
728,-0.2734375,-0.24029541,0.9696655,-2.609375,-9.359375,-0.421875
729,-0.2939453,-0.23223877,0.9562378,-9.484375,-12.203125,-0.03125
730,-0.32348633,-0.2654419,0.8890991,-2.78125,-3.8125,0.390625
731,-0.29663086,-0.28179932,0.99090576,4.21875,9.15625,0.4375
732,-0.27368164,-0.24371338,0.9623413,1.0625,-0.421875,0.109375
733,-0.30859375,-0.24127197,0.95965576,1.4375,-4.015625,0.171875
734,-0.30615234,-0.24639893,0.96673584,-0.9375,-5.140625,-0.203125
735,-0.3046875,-0.25201416,0.9347534,-5.234375,-8.40625,-0.65625
736,-0.3125,-0.22857666,0.93914795,-0.46875,-3.484375,-0.3125
737,-0.31201172,-0.22027588,0.94989014,-0.09375,-9.765625,1.046875
738,-0.37548828,-0.21368408,0.89471436,1.234375,-22.6875,1.015625
739,-0.359375,-0.27423096,0.9430542,0.140625,4.359375,0.484375
740,-0.30126953,-0.27252197,0.9672241,-4.375,14.21875,3.1875
741,-0.3359375,-0.23028564,0.9413452,-4.84375,-4.6875,1.359375
742,-0.3466797,-0.24176025,0.95355225,1.734375,-0.078125,0.921875
743,-0.3371582,-0.27642822,0.94085693,3.53125,5.5,0.703125
744,-0.32958984,-0.286438,0.97454834,2.8125,2.390625,-0.03125
745,-0.30908203,-0.20489502,0.93304443,-2.578125,-3.796875,-1.09375
746,-0.3449707,-0.19366455,0.92840576,-0.34375,-1.71875,0.078125
747,-0.32495117,-0.24151611,0.96795654,0.25,-3.453125,-0.0625
748,-0.32739258,-0.2312622,0.93743896,-2.453125,-9.46875,-0.4375
749,-0.35864258,-0.25616455,0.9537964,-0.203125,3.375,1.375
750,-0.32983398,-0.26275635,0.96551514,3.1875,4.640625,0.859375
751,-0.3371582,-0.21954346,0.91693115,-2.421875,-6.671875,-1.09375
752,-0.35107422,-0.21539307,0.94866943,-0.296875,-3.09375,-0.40625
753,-0.33520508,-0.24761963,0.95062256,-2.578125,-9.265625,-0.484375
754,-0.34448242,-0.22027588,0.9086304,-13.875,-19.234375,-0.46875
755,-0.38476562,-0.16973877,0.8908081,-9.796875,-12.578125,-1.921875
756,-0.41552734,-0.21148682,0.9533081,-1.375,-1.5,-0.921875
757,-0.39379883,-0.20709229,0.97943115,-1.734375,2.28125,0.3125
758,-0.38476562,-0.17340088,0.9393921,-4.0,-3.609375,-1.234375
759,-0.40478516,-0.16827393,0.9286499,-1.796875,-8.40625,-0.96875
