sample_no,accel_x,accel_y,accel_z,gyro_x,gyro_y,gyro_z
0,0.7158203,-0.059387207,0.76068115,-0.078125,0.78125,1.140625
1,0.7155762,-0.07525635,0.7836304,1.4375,-1.078125,0.1875
2,0.67333984,-0.073791504,0.78118896,0.296875,-2.125,-0.234375
3,0.6984863,-0.08453369,0.7650757,-2.171875,-1.234375,0.0
4,0.7116699,-0.042297363,0.7494507,-2.90625,1.265625,-1.1875
5,0.69506836,-0.044006348,0.762146,-0.75,0.03125,-0.109375
6,0.6821289,-0.06817627,0.7645874,0.890625,-2.015625,0.84375
7,0.67211914,-0.074523926,0.79486084,0.5,-2.09375,0.328125
8,0.7092285,-0.0635376,0.7665405,-1.890625,0.359375,-0.421875
9,0.704834,-0.037902832,0.75335693,-2.0625,0.90625,-0.828125
10,0.69140625,-0.038146973,0.74798584,-0.609375,0.546875,0.46875
11,0.68481445,-0.07501221,0.7692261,0.515625,-1.34375,1.65625
12,0.6826172,-0.08282471,0.7802124,-1.0,-1.859375,-0.28125
13,0.7055664,-0.0491333,0.76190186,-3.15625,0.984375,-2.125
14,0.72021484,-0.026916504,0.7682495,-1.765625,0.015625,-0.953125
15,0.6765137,-0.057434082,0.76898193,-0.625,-1.34375,0.40625
16,0.6477051,-0.07672119,0.7843628,0.265625,-2.078125,0.1875
17,0.6867676,-0.06744385,0.76849365,-2.1875,-0.140625,-0.96875
18,0.71240234,-0.026428223,0.7626343,-1.59375,1.3125,-1.25
19,0.7080078,-0.050842285,0.76727295,0.203125,0.34375,0.421875
20,0.6777344,-0.06768799,0.7628784,0.984375,-0.078125,0.875
21,0.6364746,-0.0569458,0.78289795,1.296875,-1.59375,-0.296875
22,0.68774414,-0.0881958,0.77801514,-1.65625,-2.5,-1.375
23,0.7089844,-0.05279541,0.77020264,-1.71875,-0.546875,-1.0
24,0.66430664,-0.050598145,0.793396,-1.734375,-1.0,0.109375
25,0.6755371,-0.06402588,0.8016968,-3.53125,0.875,-1.6875
26,0.6843262,-0.06060791,0.76898193,-4.03125,2.140625,-2.953125
27,0.6711426,-0.057678223,0.79022217,-3.25,1.34375,-3.046875
28,0.6970215,-0.066467285,0.7807007,-3.3125,0.46875,-3.609375
29,0.68725586,-0.04449463,0.7675171,-2.15625,-0.28125,-3.140625
30,0.6647949,-0.03765869,0.78167725,-0.375,-0.796875,-1.96875
31,0.6821289,-0.044006348,0.7938843,0.359375,-0.953125,-0.640625
32,0.68969727,-0.039367676,0.74627686,0.3125,1.921875,1.078125
33,0.6723633,-0.028381348,0.76849365,3.21875,1.328125,0.78125
34,0.6936035,-0.0881958,0.7921753,6.0625,-1.078125,2.359375
35,0.67700195,-0.101379395,0.76190186,3.671875,0.171875,4.046875
36,0.6586914,-0.074279785,0.74554443,-1.0,2.203125,-0.125
37,0.7121582,-0.045959473,0.7626343,-1.6875,2.3125,-1.828125
38,0.6984863,-0.04449463,0.78240967,0.828125,1.390625,1.6875
39,0.6821289,-0.08673096,0.79193115,2.484375,-2.390625,2.234375
40,0.67993164,-0.08062744,0.7772827,-0.453125,-1.546875,-0.84375
41,0.71484375,-0.03302002,0.77801514,-2.546875,0.75,-1.734375
42,0.6977539,-0.062805176,0.7514038,-1.15625,0.4375,0.125
43,0.68359375,-0.085754395,0.75823975,0.109375,-1.609375,1.8125
44,0.67285156,-0.093566895,0.7994995,-2.671875,-0.28125,0.65625
45,0.6904297,-0.06451416,0.7938843,-4.421875,-1.09375,-1.34375
46,0.67211914,-0.046203613,0.7575073,-3.625,0.140625,-3.09375
47,0.66674805,-0.031555176,0.7626343,-2.796875,1.765625,-0.078125
48,0.6828613,-0.066223145,0.77459717,0.453125,-1.8125,1.109375
49,0.68652344,-0.070617676,0.7687378,-0.953125,0.34375,-0.140625
50,0.6958008,-0.043518066,0.7584839,-1.25,2.265625,-0.34375
51,0.6809082,-0.038146973,0.7831421,0.140625,1.265625,0.421875
52,0.67529297,-0.065979004,0.77801514,-0.234375,1.171875,0.953125
53,0.6850586,-0.07086182,0.8007202,-0.328125,-0.53125,0.359375
54,0.67626953,-0.06427002,0.77215576,-2.328125,-1.671875,-0.09375
55,0.703125,-0.047180176,0.758728,-4.046875,2.953125,-1.578125
56,0.7006836,-0.030090332,0.77264404,-1.78125,3.34375,-1.09375
57,0.6965332,-0.04864502,0.7741089,1.578125,-0.5,1.046875
58,0.69750977,-0.07183838,0.8012085,2.078125,-0.3125,1.03125
59,0.6484375,-0.057678223,0.7211304,-1.265625,0.171875,0.421875
60,0.70214844,-0.06109619,0.7863159,0.375,-0.796875,-1.359375
61,0.68310547,-0.066467285,0.80267334,-2.03125,-0.5625,-0.5
62,0.6699219,-0.05230713,0.7765503,-4.125,-0.125,-2.0625
63,0.6843262,-0.049865723,0.7748413,-4.328125,1.328125,-3.859375
64,0.7180176,-0.039855957,0.7819214,-3.3125,-0.84375,-3.203125
65,0.69506836,-0.054260254,0.77752686,-1.796875,-2.90625,-1.578125
66,0.6743164,-0.05718994,0.7650757,-0.96875,-2.40625,-1.6875
67,0.6599121,-0.046691895,0.79803467,1.125,-1.0625,-1.09375
68,0.6784668,-0.06060791,0.8004761,1.171875,-1.625,-0.328125
69,0.6604004,-0.047424316,0.7538452,3.53125,2.078125,0.671875
70,0.7121582,-0.08013916,0.7748413,3.578125,-0.5,1.390625
71,0.67871094,-0.09259033,0.73968506,0.546875,1.109375,1.28125
72,0.68408203,-0.034729004,0.7453003,-1.375,4.265625,-0.484375
73,0.6928711,-0.043518066,0.78460693,0.015625,0.90625,0.71875
74,0.67578125,-0.09698486,0.8204956,1.1875,-2.75,2.421875
75,0.67871094,-0.08306885,0.7736206,-0.859375,-0.5,-0.765625
76,0.6816406,-0.05596924,0.75994873,-1.71875,0.390625,-2.640625
77,0.7246094,-0.039855957,0.7435913,-1.390625,2.546875,-0.0625
78,0.6672363,-0.055725098,0.77874756,2.171875,-0.171875,2.59375
79,0.6665039,-0.101379395,0.8078003,1.21875,-1.859375,2.078125
80,0.66381836,-0.06719971,0.80340576,-1.796875,-1.03125,-1.140625
81,0.6960449,-0.07183838,0.7536011,-3.515625,-0.03125,-2.1875
82,0.6804199,-0.023498535,0.7682495,-2.375,1.90625,-0.546875
83,0.66796875,-0.059387207,0.78948975,-0.640625,-0.578125,1.03125
84,0.6582031,-0.08721924,0.7892456,-0.109375,-1.421875,-0.046875
85,0.6850586,-0.07525635,0.77264404,-2.21875,0.46875,-0.40625
86,0.69506836,-0.039367676,0.74920654,-2.703125,1.9375,-0.78125
87,0.7631836,-0.066711426,0.74017334,2.5625,7.21875,1.03125
88,0.7373047,-0.06939697,0.8283081,1.6875,6.875,7.359375
89,0.5925293,-0.0154418945,0.76361084,1.125,-2.140625,3.234375
90,0.64404297,-0.093811035,0.7536011,-1.390625,0.96875,-1.9375
91,0.7080078,-0.01763916,0.73553467,-3.9375,2.140625,-0.546875
92,0.6542969,-0.02154541,0.7628784,-0.203125,-2.234375,-0.265625
93,0.6813965,-0.06451416,0.7723999,-1.34375,-1.984375,-1.765625
94,0.7229004,-0.04449463,0.7496948,-0.984375,-0.71875,-0.546875
95,0.68359375,-0.045715332,0.7992554,3.3125,-3.703125,0.484375
96,0.6821289,-0.09259033,0.79681396,0.640625,-4.203125,-0.078125
97,0.68530273,-0.07720947,0.7748413,-4.140625,-0.953125,-1.546875
98,0.6784668,-0.035705566,0.77679443,-5.3125,-0.078125,-1.8125
99,0.66064453,-0.030334473,0.7758179,-4.8125,-2.734375,-2.1875
100,0.6447754,-0.05670166,0.76898193,-4.703125,-0.09375,-3.609375
101,0.689209,-0.04815674,0.77752686,-1.921875,2.1875,-3.53125
102,0.69189453,-0.055725098,0.8341675,1.125,0.25,-2.515625
103,0.6604004,-0.08526611,0.7926636,-1.09375,-0.375,-1.84375
104,0.66625977,-0.05621338,0.77215576,-0.828125,1.40625,-2.375
105,0.67407227,-0.042297363,0.7782593,0.078125,0.84375,-2.0
106,0.6936035,-0.057434082,0.77752686,0.234375,-0.625,-1.046875
107,0.67333984,-0.024963379,0.80096436,0.78125,0.265625,-0.15625
108,0.6706543,-0.02960205,0.7609253,3.109375,0.96875,-0.203125
109,0.6743164,-0.0713501,0.7826538,5.9375,0.875,1.28125
110,0.71240234,-0.10797119,0.7572632,-0.625,2.90625,2.421875
111,0.7116699,-0.109191895,0.7716675,0.625,-1.171875,1.640625
112,0.67041016,-0.05255127,0.74798584,-1.0,1.75,0.46875
113,0.6455078,-0.036193848,0.76556396,-0.421875,1.46875,-0.25
114,0.69677734,-0.06524658,0.78704834,0.125,0.640625,0.03125
115,0.71533203,-0.07183838,0.7836304,-0.078125,0.0625,0.0
116,0.69262695,-0.097717285,0.7626343,1.0,-2.921875,0.171875
117,0.670166,-0.0713501,0.75897217,0.046875,-1.046875,0.703125
118,0.66259766,-0.07330322,0.7809448,-2.65625,2.75,0.515625
119,0.6994629,-0.0491333,0.7848511,-2.03125,3.234375,-1.203125
120,0.6772461,-0.057434082,0.7843628,-0.359375,0.8125,-0.5625
121,0.6755371,-0.073791504,0.79437256,0.140625,-0.609375,-0.046875
122,0.67211914,-0.085510254,0.795105,0.0,-0.703125,-0.390625
123,0.6801758,-0.08087158,0.78045654,-1.984375,-0.3125,-0.53125
124,0.6911621,-0.04522705,0.758728,-2.703125,2.171875,-0.4375
125,0.6838379,-0.04937744,0.77142334,-0.84375,1.9375,0.921875
126,0.6640625,-0.07647705,0.77508545,0.796875,-1.28125,0.9375
127,0.67211914,-0.09112549,0.7731323,-1.453125,0.578125,-0.328125
128,0.71484375,-0.06060791,0.7369995,-2.8125,1.875,-1.96875
129,0.7363281,-0.050354004,0.7723999,-1.8125,3.875,-0.4375
130,0.7258301,-0.062805176,0.776062,-1.40625,0.0,2.6875
131,0.63623047,-0.043518066,0.7626343,1.15625,-2.1875,1.578125
132,0.6706543,-0.094055176,0.76483154,-0.65625,-0.609375,-1.0
133,0.6870117,-0.026916504,0.7748413,-2.234375,0.625,-0.421875
134,0.70336914,-0.027404785,0.75164795,-1.140625,1.484375,-1.203125
135,0.7133789,-0.061340332,0.7694702,-0.84375,1.65625,-0.4375
136,0.7878418,-0.06304932,0.7523804,-6.0,0.796875,1.65625
137,0.6777344,-0.038879395,0.7782593,0.4375,-5.53125,3.96875
138,0.5969238,-0.09991455,0.79119873,0.8125,-3.703125,1.265625
139,0.6567383,-0.06402588,0.7814331,-2.109375,-1.046875,-2.0
140,0.6657715,-0.019104004,0.78778076,-0.09375,-0.921875,-1.109375
141,0.69091797,-0.035217285,0.77923584,-2.234375,0.171875,-1.25
142,0.6894531,-0.043273926,0.7723999,-2.125,-0.640625,-0.953125
143,0.64697266,-0.03765869,0.77264404,-0.78125,1.453125,-1.0
144,0.68359375,-0.07525635,0.7897339,-0.375,1.078125,-1.578125
145,0.7141113,-0.049621582,0.79974365,-0.171875,-0.65625,-0.765625
146,0.67285156,-0.049621582,0.74017334,-1.59375,1.4375,-1.0
147,0.67749023,-0.069885254,0.80804443,0.765625,-0.34375,-0.171875
148,0.6660156,-0.05230713,0.7706909,-1.03125,0.375,-1.28125
149,0.6875,-0.03741455,0.77337646,-0.234375,1.015625,-1.78125
150,0.69506836,-0.022766113,0.762146,0.59375,0.09375,-0.453125
151,0.6809082,-0.03765869,0.76239014,2.765625,1.359375,0.53125
152,0.671875,-0.06719971,0.8085327,3.9375,-0.1875,0.578125
153,0.6779785,-0.09552002,0.77386475,1.953125,-1.03125,1.03125
154,0.701416,-0.07232666,0.77923584,-1.15625,0.484375,1.015625
155,0.69262695,-0.06842041,0.7653198,-2.96875,-0.390625,-0.328125
156,0.69018555,-0.027160645,0.73358154,-2.703125,2.609375,-0.53125
157,0.67871094,-0.046203613,0.77948,-0.65625,1.515625,0.03125
158,0.6887207,-0.062316895,0.80584717,0.90625,-0.203125,0.28125
159,0.6879883,-0.08721924,0.77996826,0.15625,-2.046875,0.171875
160,0.69921875,-0.07281494,0.76239014,-1.5,-1.46875,-0.375
161,0.68359375,-0.054504395,0.74505615,-3.046875,1.046875,-1.0625
162,0.66967773,-0.04888916,0.7531128,-4.796875,0.03125,-0.296875
163,0.67944336,-0.050598145,0.79974365,-5.265625,-1.59375,0.28125
164,0.6501465,-0.09088135,0.82147217,-3.9375,-2.953125,-1.71875
165,0.68530273,-0.042541504,0.8131714,-3.71875,-0.984375,-2.796875
166,0.67626953,-0.0134887695,0.75457764,-2.46875,0.84375,-2.359375
167,0.6862793,-0.039855957,0.7675171,-0.484375,1.890625,-1.171875
168,0.673584,-0.045715332,0.76556396,1.09375,1.671875,0.5625
169,0.6530762,-0.06768799,0.7970581,1.671875,0.484375,1.25
170,0.67871094,-0.06011963,0.78656006,-0.765625,0.6875,0.953125
171,0.70581055,-0.02960205,0.7975464,-0.4375,3.265625,-0.40625
172,0.6850586,-0.044006348,0.78900146,1.8125,0.3125,1.359375
173,0.65185547,-0.05328369,0.76483154,0.703125,-0.421875,1.109375
174,0.6870117,-0.065979004,0.7904663,0.03125,0.3125,0.28125
175,0.6940918,-0.057678223,0.7597046,-1.0625,0.546875,0.078125
176,0.69677734,-0.04107666,0.7716675,-0.875,1.671875,-1.046875
177,0.6801758,-0.04547119,0.7723999,-0.828125,1.484375,-0.171875
178,0.7097168,-0.06329346,0.746521,-0.015625,1.515625,0.109375
179,0.6677246,-0.043762207,0.80340576,1.015625,2.1875,-0.265625
180,0.670166,-0.08746338,0.7699585,-0.6875,-1.21875,-0.53125
181,0.7084961,-0.05206299,0.77923584,1.125,0.328125,0.0625
182,0.6767578,-0.0413208,0.7640991,0.15625,-0.265625,-0.15625
183,0.6533203,-0.06768799,0.77459717,-0.59375,0.515625,-1.65625
184,0.6813965,-0.074279785,0.8012085,-3.96875,1.4375,-3.65625
185,0.7092285,-0.05206299,0.7850952,-6.09375,1.65625,-2.765625
186,0.70751953,-0.046936035,0.76361084,-4.75,0.96875,-2.421875
187,0.6855469,-0.042785645,0.78240967,-2.515625,0.109375,-1.640625
188,0.671875,-0.0569458,0.7982788,-0.6875,-0.171875,-1.921875
189,0.68652344,-0.065979004,0.7772827,-1.515625,0.546875,-2.390625
190,0.6875,-0.046691895,0.75823975,-0.4375,0.03125,-0.4375
191,0.6789551,-0.044006348,0.76727295,2.234375,-0.875,0.4375
192,0.6965332,-0.049865723,0.7728882,1.34375,-0.984375,0.578125
193,0.67529297,-0.036193848,0.758728,2.28125,-0.359375,0.4375
194,0.68725586,-0.057922363,0.76556396,4.203125,-0.078125,1.078125
195,0.6699219,-0.0881958,0.7628784,3.359375,-0.890625,3.296875
196,0.6875,-0.09088135,0.7645874,-1.03125,0.25,1.9375
197,0.7011719,-0.058166504,0.7699585,-1.953125,1.296875,-0.328125
198,0.69921875,-0.04815674,0.78533936,0.8125,-1.28125,0.625
199,0.66918945,-0.06109619,0.7731323,-0.078125,-0.296875,0.65625
200,0.6767578,-0.07940674,0.7770386,-1.0,-2.4375,-1.34375
201,0.71191406,-0.05255127,0.7445679,-2.265625,1.71875,-1.75
202,0.69921875,-0.047668457,0.77752686,-0.921875,1.3125,-0.5
203,0.6972656,-0.06866455,0.7741089,-1.625,0.5625,1.890625
204,0.6821289,-0.08355713,0.79437256,-0.109375,-2.5625,1.46875
205,0.6496582,-0.06109619,0.7999878,0.109375,-2.359375,0.484375
206,0.6743164,-0.06695557,0.7855835,-1.84375,-2.015625,-0.578125
207,0.68530273,-0.02545166,0.77020264,-2.421875,1.734375,-1.390625
208,0.6669922,-0.039367676,0.78533936,0.15625,0.296875,-0.109375
209,0.6765137,-0.07086182,0.78045654,-0.125,-0.09375,0.625
210,0.6804199,-0.077941895,0.8060913,0.421875,-0.390625,1.109375
211,0.68188477,-0.06085205,0.78533936,-0.75,-0.484375,0.46875
212,0.67163086,-0.03302002,0.7826538,-1.65625,1.84375,-1.015625
213,0.6694336,-0.047912598,0.7772827,-0.96875,0.828125,-0.078125
214,0.68530273,-0.058166504,0.75164795,-1.40625,1.59375,0.296875
215,0.6760254,-0.06964111,0.80023193,1.40625,-0.3125,0.640625
216,0.66015625,-0.08111572,0.8012085,-0.265625,-0.296875,0.75
217,0.7001953,-0.058166504,0.74676514,-3.640625,3.265625,-1.796875
218,0.70043945,-0.028869629,0.7753296,-1.875,2.953125,-1.78125
219,0.6879883,-0.049621582,0.76190186,0.671875,1.921875,0.046875
220,0.6567383,-0.054504395,0.7650757,2.59375,-0.125,-0.25
221,0.71191406,-0.070129395,0.7640991,1.25,0.28125,-1.171875
222,0.70166016,-0.05987549,0.7741089,-0.328125,1.328125,0.125
223,0.6452637,-0.07281494,0.7633667,-0.9375,-0.25,-0.171875
224,0.6843262,-0.0803833,0.78167725,-3.96875,1.0625,-2.609375
225,0.7163086,-0.05230713,0.78460693,-4.0625,0.234375,-2.15625
226,0.6894531,-0.054748535,0.776062,-3.40625,-0.578125,-1.65625
227,0.6855469,-0.06060791,0.7748413,-3.15625,-0.9375,-2.609375
228,0.67529297,-0.06451416,0.78582764,-2.78125,-0.4375,-1.5625
229,0.6767578,-0.051574707,0.79681396,-2.140625,-1.1875,-1.875
230,0.6833496,-0.061584473,0.7789917,-2.34375,1.75,-2.875
231,0.67456055,-0.07232666,0.7921753,0.71875,-1.0625,-1.171875
232,0.66967773,-0.061584473,0.77020264,-2.265625,0.609375,-0.796875
233,0.6738281,-0.04888916,0.75994873,-0.640625,1.03125,-1.4375
234,0.6850586,-0.058166504,0.7680054,-0.140625,1.71875,-1.25
235,0.6989746,-0.033996582,0.76678467,0.15625,1.546875,-0.25
236,0.69506836,-0.0413208,0.7680054,1.5,-0.171875,0.625
237,0.6994629,-0.050598145,0.74090576,3.15625,0.28125,1.109375
238,0.69799805,-0.06842041,0.7560425,4.625,1.375,2.578125
239,0.7060547,-0.11505127,0.78900146,3.734375,-0.53125,2.421875
240,0.6960449,-0.0869751,0.7501831,-0.65625,0.796875,-0.4375
241,0.7067871,-0.058410645,0.7489624,-2.078125,0.0625,-0.90625
242,0.7155762,-0.029846191,0.73895264,-1.75,1.0,-0.15625
243,0.68408203,-0.047668457,0.7506714,-0.765625,0.578125,-0.15625
244,0.70410156,-0.08135986,0.78778076,1.59375,-1.75,0.03125
245,0.6960449,-0.097961426,0.7821655,0.640625,-2.59375,0.171875
246,0.69433594,-0.085998535,0.7665405,-1.578125,-2.46875,-0.53125
247,0.70825195,-0.042297363,0.7509155,-2.390625,1.21875,0.09375
248,0.66552734,-0.054016113,0.77923584,-0.296875,0.40625,1.03125
249,0.65844727,-0.07476807,0.77557373,-0.421875,-0.234375,0.515625
250,0.6699219,-0.09063721,0.7970581,-0.515625,-1.125,-0.6875
251,0.6936035,-0.07159424,0.79241943,-1.984375,-1.671875,-0.515625
252,0.68969727,-0.06915283,0.72528076,-4.875,1.375,-0.390625
253,0.69091797,-0.03692627,0.7868042,-2.578125,1.421875,-0.75
254,0.6694336,-0.06549072,0.7723999,-1.25,-0.46875,0.171875
255,0.6599121,-0.07183838,0.81170654,0.53125,-1.078125,0.46875
256,0.6862793,-0.07550049,0.7897339,-0.15625,-2.0625,-1.21875
257,0.67626953,-0.046936035,0.73968506,-1.53125,1.140625,-1.59375
258,0.7026367,-0.031311035,0.76849365,-1.0,1.359375,-0.8125
259,0.6738281,-0.053527832,0.76068115,-0.453125,1.390625,1.125
260,0.6928711,-0.058166504,0.7675171,0.28125,1.796875,0.265625
261,0.69506836,-0.058898926,0.7850952,1.5625,0.984375,0.4375
262,0.68603516,-0.06939697,0.8029175,0.53125,0.5,0.578125
263,0.6677246,-0.07183838,0.76483154,-2.234375,0.40625,-0.3125
264,0.6713867,-0.059387207,0.7682495,-1.59375,-0.296875,-1.953125
265,0.6906738,-0.07330322,0.80267334,-1.140625,-2.625,-2.25
266,0.68969727,-0.070373535,0.7863159,-2.703125,-1.75,-2.953125
267,0.68652344,-0.06744385,0.7826538,-3.671875,-0.734375,-3.25
268,0.68188477,-0.05255127,0.7741089,-3.4375,-0.03125,-2.59375
269,0.6906738,-0.06964111,0.791687,-2.015625,-1.03125,-1.796875
270,0.68115234,-0.074523926,0.78582764,-2.828125,-1.5,-1.515625
271,0.6611328,-0.062561035,0.7728882,-2.0625,-0.90625,-0.953125
272,0.6542969,-0.061340332,0.7807007,-0.71875,-1.0625,0.203125
273,0.66186523,-0.0569458,0.78778076,-0.1875,-0.546875,-0.171875
274,0.671875,-0.059143066,0.7782593,-0.578125,1.0,-0.390625
275,0.67529297,-0.05670166,0.7875366,0.390625,0.609375,-0.28125
276,0.6777344,-0.057678223,0.78240967,-0.28125,0.296875,-0.390625
277,0.68237305,-0.0491333,0.78411865,0.515625,0.015625,-0.3125
278,0.6879883,-0.059387207,0.7741089,1.078125,-0.21875,-0.1875
279,0.6640625,-0.074035645,0.7670288,4.03125,0.0625,1.53125
280,0.70336914,-0.085510254,0.7680054,1.578125,1.96875,0.96875
281,0.72436523,-0.07647705,0.80877686,4.53125,-2.265625,1.421875
282,0.6647949,-0.073791504,0.78411865,0.84375,-2.078125,1.078125
283,0.6586914,-0.066467285,0.77557373,-0.828125,-0.890625,-0.3125
284,0.67041016,-0.038635254,0.7819214,-1.171875,0.234375,-0.625
285,0.68237305,-0.057922363,0.78948975,-0.328125,-0.9375,0.25
286,0.6633301,-0.09454346,0.8204956,2.328125,-3.75,0.671875
287,0.6340332,-0.097473145,0.793396,1.34375,-3.09375,0.9375
288,0.6933594,-0.07989502,0.79803467,-1.21875,0.3125,0.46875
289,0.6608887,-0.058410645,0.79608154,-1.234375,0.453125,0.890625
290,0.63916016,-0.065979004,0.7921753,-0.359375,0.046875,1.515625
291,0.65771484,-0.077941895,0.82318115,1.640625,-2.203125,1.03125
292,0.6447754,-0.08917236,0.8102417,-0.59375,-1.34375,0.703125
293,0.6604004,-0.069885254,0.80633545,-0.828125,-0.640625,0.46875
294,0.67626953,-0.070617676,0.78045654,-3.0625,1.09375,-0.5
295,0.64282227,-0.061584473,0.79241943,-1.25,1.125,-0.109375
296,0.6333008,-0.0713501,0.78826904,-0.59375,1.015625,0.40625
297,0.6442871,-0.08135986,0.8148804,-1.015625,1.25,0.296875
298,0.671875,-0.090148926,0.81414795,0.125,-0.171875,1.078125
299,0.65771484,-0.055480957,0.7958374,-0.9375,-0.296875,0.640625
300,0.6567383,-0.06304932,0.78240967,-2.59375,0.46875,0.765625
301,0.6672363,-0.04425049,0.78118896,-2.265625,2.3125,-0.796875
302,0.66430664,-0.06719971,0.79803467,-1.09375,1.84375,-0.734375
303,0.6906738,-0.05596924,0.7748413,0.046875,1.6875,-0.09375
304,0.6953125,-0.06915283,0.7850952,2.078125,1.390625,0.96875
305,0.6047363,-0.057434082,0.8012085,0.21875,-0.359375,0.96875
306,0.6647949,-0.093322754,0.7938843,-2.328125,0.671875,-0.46875
307,0.6459961,-0.05206299,0.8209839,-1.328125,0.59375,-1.8125
308,0.68603516,-0.057678223,0.79437256,-2.46875,-0.953125,-1.796875
309,0.65478516,-0.06329346,0.7868042,-3.296875,1.375,-1.578125
310,0.66796875,-0.057922363,0.7868042,-3.3125,2.4375,-2.671875
311,0.6828613,-0.054992676,0.8151245,-2.5625,0.8125,-2.5
312,0.68408203,-0.07208252,0.7970581,-3.4375,-0.375,-2.53125
313,0.67211914,-0.066467285,0.8097534,-3.671875,0.421875,-2.0625
314,0.65625,-0.046691895,0.8036499,-1.53125,-0.328125,-1.453125
315,0.6633301,-0.059387207,0.7941284,-1.421875,0.125,-1.4375
316,0.6604004,-0.05645752,0.7645874,-1.515625,0.75,-1.46875
317,0.6520996,-0.046936035,0.79315186,0.046875,2.25,-0.4375
318,0.65649414,-0.07330322,0.79608154,-0.859375,1.15625,-0.609375
319,0.66796875,-0.058654785,0.7706909,-0.765625,2.0,-1.5
320,0.67871094,-0.034484863,0.7809448,0.34375,1.328125,-0.96875
321,0.6791992,-0.043518066,0.7711792,1.859375,0.59375,0.4375
322,0.6784668,-0.07281494,0.762146,4.234375,0.90625,1.234375
323,0.6911621,-0.082336426,0.7826538,0.09375,2.03125,1.21875
324,0.6862793,-0.089904785,0.7831421,-2.171875,0.96875,1.09375
325,0.70043945,-0.0647583,0.78045654,-3.578125,1.875,0.296875
326,0.7116699,-0.050842285,0.80389404,-0.640625,-2.5625,0.265625
327,0.6503906,-0.04547119,0.7538452,-0.984375,-1.78125,0.40625
328,0.6738281,-0.054260254,0.75994873,-0.78125,0.8125,-0.4375
329,0.7097168,-0.05230713,0.77386475,-0.390625,1.484375,0.046875
330,0.6826172,-0.070373535,0.78778076,0.328125,0.015625,1.09375
331,0.6755371,-0.082336426,0.79901123,1.828125,-2.5,1.703125
332,0.6628418,-0.062072754,0.78778076,-0.78125,-1.328125,0.734375
333,0.6828613,-0.05596924,0.7653198,-2.0625,0.03125,-0.8125
334,0.6921387,-0.030578613,0.77020264,-1.484375,1.078125,-0.546875
335,0.6567383,-0.05328369,0.79193115,-0.1875,-0.546875,1.34375
336,0.6779785,-0.07574463,0.807312,0.203125,-1.890625,0.265625
337,0.66137695,-0.07940674,0.7970581,-0.90625,-1.15625,-0.046875
338,0.6665039,-0.04937744,0.79681396,-1.9375,-0.21875,-0.578125
339,0.68603516,-0.040100098,0.78240967,-1.15625,0.6875,-0.75
340,0.66967773,-0.043273926,0.78900146,-0.609375,1.125,0.484375
341,0.6940918,-0.06304932,0.7958374,0.796875,-0.984375,-0.171875
342,0.6789551,-0.07696533,0.8065796,0.90625,-1.59375,-0.09375
343,0.64575195,-0.04815674,0.77752686,-0.671875,-1.015625,1.859375
344,0.64819336,-0.042785645,0.7785034,0.109375,2.765625,1.328125
345,0.6369629,-0.06500244,0.79119873,0.125,1.421875,-0.875
346,0.69018555,-0.055725098,0.7965698,0.484375,-0.296875,1.109375
347,0.67407227,-0.06427002,0.79364014,0.75,-0.203125,1.015625
348,0.6887207,-0.07159424,0.7826538,-0.953125,0.46875,-0.828125
349,0.70410156,-0.045959473,0.76678467,-2.28125,3.640625,-1.1875
350,0.69555664,-0.061828613,0.76678467,-1.796875,3.484375,-0.171875
351,0.6464844,-0.040100098,0.78240967,0.484375,-0.109375,-0.171875
352,0.6726074,-0.074279785,0.7821655,1.1875,-0.15625,0.609375
353,0.670166,-0.059631348,0.7728882,-0.703125,1.90625,-0.234375
354,0.67333984,-0.046203613,0.77264404,-0.78125,0.625,-0.859375
355,0.6767578,-0.06939697,0.80096436,0.140625,-0.53125,-1.609375
356,0.6533203,-0.07086182,0.78582764,-1.53125,0.46875,-1.921875
357,0.6855469,-0.06085205,0.78460693,-1.515625,0.640625,-2.109375
358,0.69921875,-0.054016113,0.79803467,-2.109375,0.3125,-1.203125
359,0.6833496,-0.06866455,0.77948,-3.015625,0.09375,-0.21875
360,0.66674805,-0.05987549,0.774353,-1.734375,0.890625,-0.703125
361,0.67944336,-0.070373535,0.7897339,-1.9375,0.375,-1.15625
362,0.6713867,-0.059631348,0.7758179,-2.015625,0.578125,-1.078125
363,0.67089844,-0.04937744,0.76483154,-0.578125,1.28125,-1.3125
364,0.68725586,-0.059387207,0.78167725,-0.046875,1.4375,-1.390625
365,0.68774414,-0.062072754,0.777771,-0.65625,1.390625,-0.953125
366,0.6953125,-0.051086426,0.7731323,0.0625,0.65625,-0.75
367,0.6923828,-0.047180176,0.7741089,0.984375,0.5,-0.1875
368,0.6682129,-0.04840088,0.7711792,2.46875,0.359375,0.515625
369,0.68774414,-0.059387207,0.7650757,4.890625,0.1875,1.0
370,0.6958008,-0.09161377,0.77093506,2.6875,1.171875,2.3125
371,0.72216797,-0.086242676,0.7614136,-1.78125,1.359375,2.0625
372,0.70410156,-0.06329346,0.78778076,-0.359375,-0.921875,0.859375
373,0.6633301,-0.06549072,0.7758179,0.15625,-2.140625,-0.015625
374,0.65722656,-0.058166504,0.7706909,-1.75,-1.078125,-1.265625
375,0.7182617,-0.046936035,0.7531128,-1.515625,-0.875,-1.21875
376,0.69921875,-0.06427002,0.77459717,0.96875,-1.578125,1.03125
377,0.6801758,-0.08477783,0.8043823,1.5,-3.171875,1.453125
378,0.6533203,-0.08917236,0.78656006,-0.171875,-2.078125,0.828125
379,0.657959,-0.053771973,0.7904663,-0.859375,-0.921875,0.1875
380,0.6882324,-0.04425049,0.7770386,-1.65625,0.546875,-0.421875
381,0.75,-0.065979004,0.809021,0.65625,-1.359375,-0.5625
382,0.6660156,-0.077697754,0.79193115,3.015625,-3.734375,0.328125
383,0.6057129,-0.07183838,0.7921753,1.546875,-3.40625,3.625
384,0.6296387,-0.055480957,0.78656006,0.421875,1.53125,4.109375
385,0.65722656,-0.082336426,0.7938843,-0.4375,0.671875,-0.34375
386,0.64746094,-0.047912598,0.791687,-1.8125,-0.078125,-0.609375
387,0.657959,-0.07305908,0.7819214,-0.875,-2.328125,1.140625
388,0.69433594,-0.070129395,0.7958374,-1.328125,-0.765625,0.421875
389,0.6845703,-0.054992676,0.80267334,-1.46875,1.015625,-0.921875
390,0.6870117,-0.061340332,0.7885132,-2.734375,1.921875,-0.78125
391,0.6604004,-0.0491333,0.79486084,-1.515625,0.703125,-0.46875
392,0.62231445,-0.08428955,0.8048706,-1.203125,-0.84375,0.9375
393,0.6645508,-0.061584473,0.7994995,-2.859375,1.28125,0.609375
394,0.67944336,-0.047912598,0.78240967,-3.578125,2.328125,-0.703125
395,0.6921387,-0.046691895,0.7836304,-2.25,2.984375,-0.875
396,0.6694336,-0.051086426,0.7662964,-0.390625,0.578125,0.78125
397,0.64501953,-0.058654785,0.789978,0.0,-0.03125,-0.015625
398,0.65844727,-0.074035645,0.80267334,-0.484375,-0.65625,-1.015625
399,0.6816406,-0.057678223,0.79437256,-0.4375,0.734375,-0.921875
400,0.65893555,-0.036193848,0.76239014,-1.734375,0.984375,-1.21875
401,0.66430664,-0.062316895,0.79315186,-1.765625,1.796875,-2.78125
402,0.6616211,-0.070373535,0.8007202,-2.46875,1.84375,-3.078125
403,0.69091797,-0.05596924,0.7965698,-3.90625,1.46875,-3.734375
404,0.7006836,-0.05718994,0.7699585,-3.046875,2.15625,-3.765625
405,0.6977539,-0.050598145,0.79852295,-1.96875,1.859375,-1.4375
406,0.6687012,-0.07232666,0.80511475,-2.1875,-0.390625,-0.765625
407,0.654541,-0.07696533,0.7826538,-2.109375,0.40625,-2.375
408,0.66137695,-0.051086426,0.7802124,-1.875,0.546875,-2.640625
409,0.68310547,-0.05206299,0.777771,-1.203125,-0.234375,-1.890625
410,0.6760254,-0.058410645,0.78948975,-1.265625,-0.671875,-0.734375
411,0.67749023,-0.05255127,0.7758179,-0.75,0.640625,-0.484375
412,0.6699219,-0.05987549,0.79241943,2.390625,0.34375,0.078125
413,0.67993164,-0.059387207,0.7848511,1.5625,0.078125,0.28125
414,0.68847656,-0.05206299,0.7758179,1.0625,0.234375,0.109375
415,0.6738281,-0.04083252,0.77386475,2.921875,-1.125,0.71875
416,0.67333984,-0.09283447,0.76776123,5.375,-1.453125,2.4375
417,0.7182617,-0.08892822,0.7741089,2.0625,1.6875,4.515625
418,0.70410156,-0.094055176,0.7977905,2.765625,-2.5625,3.28125
419,0.6376953,-0.078430176,0.78240967,0.375,-2.078125,-0.390625
420,0.6635742,-0.051574707,0.76483154,-2.578125,-1.40625,-1.671875
421,0.69311523,-0.0256958,0.75286865,-2.6875,1.78125,-0.453125
422,0.66308594,-0.05645752,0.79852295,0.921875,-1.71875,0.90625
423,0.6689453,-0.10211182,0.82440186,0.265625,-0.96875,0.53125
424,0.6689453,-0.10797119,0.8287964,0.109375,-3.25,0.59375
425,0.6347656,-0.08795166,0.81121826,-2.46875,-2.078125,-1.25
426,0.66674805,-0.053527832,0.7741089,-5.578125,2.0625,-3.59375
427,0.6801758,-0.02178955,0.77557373,-3.5,1.8125,-2.078125
428,0.64868164,-0.029846191,0.7838745,0.3125,0.109375,0.890625
429,0.6660156,-0.097961426,0.80999756,1.28125,-0.734375,1.75
430,0.6608887,-0.06890869,0.8175659,0.453125,0.25,1.875
431,0.65234375,-0.0713501,0.81243896,-1.59375,2.53125,0.53125
432,0.66845703,-0.0491333,0.8085327,-1.453125,2.96875,0.1875
433,0.6533203,-0.06085205,0.77679443,-1.078125,1.28125,1.25
434,0.6604004,-0.07989502,0.8036499,-0.53125,-0.546875,0.328125
435,0.67749023,-0.06378174,0.80804443,-2.15625,0.765625,-0.15625
436,0.68652344,-0.042053223,0.7999878,-4.0,1.078125,-1.484375
437,0.68530273,-0.030578613,0.78240967,-1.453125,0.9375,-2.390625
438,0.6279297,-0.040100098,0.76678467,0.765625,0.234375,1.125
439,0.6628418,-0.08746338,0.82244873,0.53125,1.484375,1.125
440,0.6738281,-0.08380127,0.80389404,-1.125,0.34375,0.5625
441,0.69189453,-0.051574707,0.75994873,-2.484375,2.84375,-0.828125
442,0.6906738,-0.02911377,0.7536011,-0.71875,3.953125,0.0
443,0.6604004,-0.05645752,0.77557373,1.0625,1.625,0.28125
444,0.6567383,-0.06451416,0.8024292,-0.5,0.1875,-0.984375
445,0.7084961,-0.07891846,0.78289795,-1.28125,-0.890625,-1.875
446,0.68237305,-0.03717041,0.7921753,-0.890625,-0.1875,-0.59375
447,0.6821289,-0.065979004,0.7765503,-1.875,-1.046875,-0.28125
448,0.6513672,-0.058166504,0.7782593,-1.3125,-0.71875,-0.6875
449,0.6665039,-0.05328369,0.7716675,-0.078125,-0.5,-1.390625
450,0.6879883,-0.037902832,0.7753296,0.921875,0.578125,-0.671875
451,0.6862793,-0.066467285,0.7926636,0.828125,-0.796875,-1.421875
452,0.6816406,-0.06817627,0.7914429,-0.8125,-1.25,-1.625
453,0.66845703,-0.07159424,0.8036499,0.421875,-3.171875,-2.296875
454,0.6894531,-0.074279785,0.80511475,-1.390625,-2.609375,-2.46875
455,0.66918945,-0.0647583,0.75897217,-4.34375,0.125,-2.375
456,0.63793945,-0.057434082,0.789978,-3.046875,1.15625,-2.203125
457,0.6640625,-0.08013916,0.80804443,-4.109375,0.46875,-3.265625
458,0.66845703,-0.07720947,0.80023193,-3.953125,1.234375,-2.921875
459,0.66748047,-0.045715332,0.7965698,-2.25,0.96875,-2.140625
460,0.68188477,-0.0635376,0.789978,-1.359375,-0.75,-1.3125
461,0.66552734,-0.06793213,0.78167725,-0.859375,-0.578125,-0.84375
462,0.66186523,-0.03643799,0.8114624,0.484375,-0.859375,-0.296875
463,0.6652832,-0.06304932,0.78338623,3.328125,-2.96875,0.453125
464,0.6706543,-0.058166504,0.76361084,4.640625,-1.578125,1.125
465,0.69018555,-0.07476807,0.76239014,5.625,1.0,4.0
466,0.6550293,-0.093566895,0.81243896,4.96875,0.25,4.28125
467,0.6455078,-0.10333252,0.8024292,1.0625,-0.546875,0.046875
468,0.6748047,-0.06866455,0.7843628,-0.4375,-1.0,-2.015625
469,0.6828613,-0.030090332,0.76776123,-2.09375,1.4375,-0.171875
470,0.65356445,-0.057434082,0.7875366,0.984375,0.609375,1.1875
471,0.65722656,-0.08721924,0.7965698,2.640625,-2.15625,1.578125
472,0.6750488,-0.10699463,0.8036499,1.1875,-0.28125,2.109375
473,0.6665039,-0.09161377,0.80340576,-0.390625,1.328125,2.625
474,0.64501953,-0.09649658,0.8041382,-2.296875,0.015625,0.296875
475,0.6604004,-0.06109619,0.791687,-4.1875,1.234375,-1.78125
476,0.66137695,-0.039855957,0.78289795,-2.3125,-0.078125,-0.640625
477,0.66552734,-0.08306885,0.8043823,-0.359375,-1.484375,1.21875
478,0.65356445,-0.08868408,0.80804443,-0.296875,-1.484375,0.390625
479,0.6555176,-0.08331299,0.80999756,-2.453125,-0.09375,-0.53125
480,0.6569824,-0.04083252,0.78826904,-3.5625,3.265625,-1.171875
481,0.67089844,-0.04473877,0.78778076,-1.875,3.203125,-0.09375
482,0.6645508,-0.06573486,0.7848511,0.375,0.546875,0.671875
483,0.6520996,-0.09112549,0.80511475,0.203125,-0.078125,1.671875
484,0.6689453,-0.0725708,0.8004761,-0.484375,1.453125,0.0
485,0.6484375,-0.04449463,0.8197632,-1.8125,1.234375,-0.375
486,0.67578125,-0.053771973,0.8004761,-2.25,3.171875,-0.15625
487,0.68310547,-0.054016113,0.77215576,-1.40625,1.65625,-1.40625
488,0.67944336,-0.06915283,0.7694702,-1.34375,2.390625,-1.46875
489,0.67089844,-0.046203613,0.79852295,1.265625,0.90625,0.40625
490,0.6928711,-0.08087158,0.7850952,-1.59375,-0.203125,0.578125
491,0.6738281,-0.07183838,0.7855835,-2.109375,1.359375,0.09375
492,0.64697266,-0.0569458,0.8283081,0.28125,-0.6875,0.078125
493,0.6821289,-0.0647583,0.7575073,-3.25,0.796875,-3.0625
494,0.65478516,-0.04034424,0.73065186,-3.796875,3.5,-3.21875
495,0.657959,-0.06939697,0.79559326,-2.5625,2.296875,-2.25
496,0.71875,-0.077941895,0.8204956,-4.46875,0.5625,-3.078125
497,0.7092285,-0.065979004,0.79852295,-3.640625,-2.21875,-2.671875
498,0.6706543,-0.06109619,0.79803467,-2.203125,-1.59375,-1.0625
499,0.6616211,-0.050842285,0.80877686,-0.65625,-0.8125,0.5625
500,0.6503906,-0.05670166,0.777771,-0.046875,-0.859375,-0.328125
501,0.6477051,-0.059143066,0.7653198,-0.015625,0.78125,-0.5625
502,0.6669922,-0.05645752,0.77996826,0.71875,1.3125,-0.546875
503,0.6809082,-0.059387207,0.78460693,0.1875,0.984375,-0.625
504,0.6879883,-0.06378174,0.79071045,0.8125,0.875,-0.53125
505,0.68359375,-0.050109863,0.7802124,0.25,1.609375,-0.5625
506,0.6850586,-0.04156494,0.78704834,2.65625,0.53125,0.828125
507,0.6982422,-0.06890869,0.78826904,6.984375,-1.546875,2.546875
508,0.66503906,-0.12432861,0.75579834,3.828125,-0.09375,3.046875
509,0.67578125,-0.08258057,0.7826538,-0.359375,0.421875,-0.28125
510,0.6953125,-0.06549072,0.76678467,-2.328125,1.21875,-1.84375
511,0.6855469,-0.04498291,0.7814331,-3.03125,2.765625,-1.359375
512,0.6750488,-0.054992676,0.8234253,1.03125,-1.25,0.421875
513,0.66259766,-0.09185791,0.7868042,-1.515625,-2.703125,0.90625
514,0.6921387,-0.112854004,0.7904663,-1.859375,-1.0625,-2.1875
515,0.7109375,-0.058654785,0.77874756,-5.921875,1.671875,1.265625
516,0.7050781,-0.012512207,0.8078003,-2.46875,-2.75,8.15625
517,0.6003418,-0.07476807,0.7736206,2.71875,-4.609375,2.75
518,0.62939453,-0.11968994,0.7938843,-0.375,-0.421875,-0.765625
519,0.6870117,-0.026428223,0.7914429,-2.078125,1.1875,-0.53125
520,0.67333984,-0.03643799,0.7687378,-0.4375,-0.09375,0.28125
521,0.66064453,-0.0569458,0.7753296,0.609375,2.1875,-0.828125
522,0.6879883,-0.05670166,0.8007202,1.078125,0.15625,0.03125
523,0.66186523,-0.07208252,0.7994995,0.859375,-0.734375,-0.375
524,0.657959,-0.08770752,0.8065796,-1.140625,-0.640625,-0.625
525,0.6694336,-0.055725098,0.80804443,-1.859375,0.421875,-1.390625
526,0.6418457,-0.030090332,0.7699585,-3.875,0.984375,0.71875
527,0.6923828,-0.070373535,0.78582764,-1.296875,3.3125,-1.9375
528,0.6862793,-0.046203613,0.777771,-0.390625,3.21875,-0.53125
529,0.68066406,-0.07110596,0.7609253,1.984375,1.390625,-0.671875
530,0.66137695,-0.07647705,0.7875366,0.703125,1.390625,-0.234375
531,0.66552734,-0.06329346,0.7814331,-1.640625,0.515625,0.0
532,0.67163086,-0.06695557,0.79901123,-2.078125,1.109375,-1.53125
533,0.6623535,-0.046691895,0.80145264,-3.5,1.1875,-1.453125
534,0.6923828,-0.062316895,0.78240967,-3.671875,1.640625,-3.40625
535,0.70214844,-0.047668457,0.7850952,-2.421875,-0.09375,-2.375
536,0.6982422,-0.06842041,0.7914429,-2.1875,-1.15625,-2.546875
537,0.6875,-0.070373535,0.7963257,-2.453125,0.078125,-1.328125
538,0.6623535,-0.046447754,0.80462646,-1.34375,-1.328125,-0.078125
539,0.6635742,-0.066223145,0.7699585,-1.25,-1.078125,-0.546875
540,0.6616211,-0.06036377,0.77752686,-0.78125,-0.28125,-1.1875
541,0.6652832,-0.053527832,0.77142334,-0.3125,0.84375,-0.921875
542,0.66015625,-0.058410645,0.7982788,0.609375,0.203125,-0.484375
543,0.67871094,-0.05621338,0.7904663,-0.609375,-0.25,-2.0625
544,0.6813965,-0.038391113,0.76239014,-1.109375,2.34375,-1.09375
545,0.6713867,-0.041809082,0.78240967,0.265625,-0.421875,1.578125
546,0.66015625,-0.06793213,0.76483154,1.703125,0.09375,0.515625
547,0.6965332,-0.07159424,0.7597046,2.953125,2.015625,0.28125
548,0.68774414,-0.062316895,0.7614136,1.59375,2.328125,2.953125
549,0.6945801,-0.09136963,0.79022217,0.515625,-1.140625,2.109375
550,0.6760254,-0.074035645,0.7938843,-2.765625,0.234375,-1.0625
551,0.6948242,-0.035949707,0.7665405,-2.75,0.3125,-1.53125
552,0.6875,-0.031066895,0.76239014,-1.65625,1.234375,-0.21875
553,0.670166,-0.06378174,0.78338623,0.4375,-0.3125,0.203125
554,0.7055664,-0.09967041,0.7909546,0.421875,-2.390625,0.203125
555,0.67285156,-0.066711426,0.7765503,0.71875,-1.109375,0.640625
556,0.6796875,-0.06524658,0.78411865,-0.828125,0.140625,0.09375
557,0.69140625,-0.032287598,0.78656006,-1.375,0.296875,0.203125
558,0.6586914,-0.06427002,0.77996826,-0.984375,-0.578125,1.046875
559,0.6647949,-0.0725708,0.8070679,0.765625,-3.65625,1.171875
560,0.65405273,-0.07647705,0.80096436,-1.921875,-1.578125,0.25
561,0.68188477,-0.045959473,0.75946045,-2.578125,-1.28125,-0.28125
562,0.6789551,-0.040100098,0.7711792,-1.609375,1.40625,0.125
563,0.65185547,-0.058166504,0.80267334,0.15625,0.828125,0.6875
564,0.67333984,-0.07965088,0.82073975,0.03125,-0.734375,0.34375
565,0.6660156,-0.057678223,0.7850952,-0.703125,-0.21875,-0.328125
566,0.67089844,-0.036193848,0.78533936,-0.140625,0.296875,-0.125
567,0.6870117,-0.04522705,0.7633667,-1.046875,1.953125,-0.0625
568,0.6687012,-0.054748535,0.79559326,-0.203125,2.296875,-0.234375
569,0.6616211,-0.07232666,0.7963257,-0.65625,0.96875,-0.40625
570,0.6796875,-0.08111572,0.78778076,-0.640625,0.171875,-0.28125
571,0.6999512,-0.05206299,0.795105,-0.5,-0.78125,-0.4375
572,0.6608887,-0.03741455,0.78167725,0.5,1.078125,0.921875
573,0.67089844,-0.050354004,0.7560425,0.21875,2.140625,1.0625
574,0.66674805,-0.054504395,0.76190186,0.546875,0.734375,0.4375
575,0.64282227,-0.06719971,0.8024292,1.5625,-1.0625,1.328125
576,0.67993164,-0.0803833,0.80511475,-1.109375,0.296875,-0.1875
577,0.7067871,-0.06549072,0.7843628,-2.28125,0.875,-1.40625
578,0.6838379,-0.0569458,0.7863159,-1.953125,-1.21875,-1.5
579,0.6520996,-0.062805176,0.7929077,-2.09375,-0.921875,-2.296875
580,0.6760254,-0.06085205,0.7885132,-5.0625,0.21875,-3.515625
581,0.703125,-0.05645752,0.8029175,-3.15625,-0.53125,-2.8125
582,0.689209,-0.047180176,0.7836304,-1.5625,-0.546875,-0.3125
583,0.67333984,-0.062072754,0.78240967,-1.546875,-0.015625,-0.28125
584,0.6555176,-0.062561035,0.78167725,-1.6875,-0.640625,-0.421875
585,0.6621094,-0.057922363,0.78118896,-2.0625,-0.734375,-1.234375
586,0.65405273,-0.0413208,0.795105,-0.6875,-1.578125,-1.0
587,0.65527344,-0.03375244,0.7706909,-0.0625,-1.296875,-0.6875
588,0.6582031,-0.045715332,0.7929077,2.078125,-1.28125,-0.515625
589,0.6899414,-0.050109863,0.79901123,5.15625,0.25,0.75
590,0.6875,-0.08892822,0.8031616,0.375,-1.015625,2.046875
591,0.654541,-0.09136963,0.7789917,-1.890625,-3.53125,0.4375
592,0.6538086,-0.06036377,0.7938843,-4.265625,0.265625,-1.328125
593,0.6845703,-0.028625488,0.7975464,-2.484375,-1.15625,-0.140625
594,0.61450195,-0.03717041,0.7765503,-0.28125,-1.8125,0.8125
595,0.69384766,-0.03765869,0.7682495,-1.375,2.984375,-0.84375
596,0.68969727,-0.05596924,0.7994995,0.40625,1.828125,-0.03125
597,0.6669922,-0.081848145,0.81243896,3.765625,-3.609375,1.640625
598,0.65356445,-0.074523926,0.7885132,-0.15625,-0.359375,0.828125
599,0.65185547,-0.053527832,0.8265991,-0.28125,-0.125,0.734375
600,0.65771484,-0.037902832,0.78533936,-1.953125,1.453125,-0.53125
601,0.66137695,-0.03692627,0.77459717,0.265625,0.03125,-0.4375
602,0.6904297,-0.036193848,0.7897339,2.28125,4.3125,3.3125
603,0.6604004,-0.0725708,0.82611084,1.859375,0.859375,6.125
604,0.6484375,-0.070617676,0.79364014,1.171875,-0.09375,2.78125
605,0.6386719,-0.051574707,0.78704834,-0.234375,1.0625,1.296875
606,0.67089844,-0.030334473,0.7887573,0.0,2.46875,0.921875
607,0.66430664,-0.0635376,0.78289795,0.203125,1.078125,-0.015625
608,0.68774414,-0.05279541,0.79119873,-0.015625,0.046875,-0.15625
609,0.67456055,-0.061828613,0.789978,-0.484375,-0.5625,0.6875
610,0.6730957,-0.04547119,0.8085327,-1.0625,-0.703125,0.0625
611,0.6652832,-0.047424316,0.77459717,-2.421875,-0.109375,-1.09375
612,0.6699219,-0.043518066,0.76190186,-2.421875,2.078125,-1.8125
613,0.68847656,-0.04034424,0.77801514,-1.859375,2.453125,-0.90625
614,0.65893555,-0.057678223,0.8060913,-0.21875,-0.390625,0.484375
615,0.6628418,-0.05670166,0.7880249,-0.4375,0.890625,0.15625
616,0.6833496,-0.03643799,0.7731323,-2.1875,3.96875,0.703125
617,0.6657715,-0.046203613,0.8185425,1.5,-2.109375,0.625
618,0.6723633,-0.07598877,0.80389404,3.171875,-4.125,-0.796875
619,0.66259766,-0.059143066,0.795105,0.796875,-1.921875,-2.296875
620,0.670166,-0.051574707,0.78582764,-2.015625,-1.375,-3.75
621,0.64819336,-0.057922363,0.79119873,-4.1875,-0.6875,-4.0625
622,0.6582031,-0.06939697,0.7941284,-5.203125,1.296875,-4.609375
623,0.6989746,-0.05670166,0.8070679,-5.25,0.8125,-3.921875
624,0.65844727,-0.051330566,0.79486084,-2.484375,1.296875,-2.5625
625,0.6779785,-0.046447754,0.8029175,0.515625,-0.34375,-0.234375
626,0.6682129,-0.059387207,0.79974365,-0.703125,-0.625,0.265625
627,0.6374512,-0.050354004,0.7885132,0.484375,-0.03125,0.171875
628,0.65722656,-0.058410645,0.80145264,0.4375,0.4375,-0.671875
629,0.6687012,-0.02960205,0.78045654,1.953125,0.90625,-0.078125
630,0.66918945,-0.050354004,0.7670288,3.453125,1.140625,-0.296875
631,0.6984863,-0.06011963,0.77996826,4.9375,3.515625,1.875
632,0.68847656,-0.082336426,0.7601929,1.453125,3.3125,2.625
633,0.6958008,-0.1026001,0.7875366,2.109375,-1.78125,1.125
634,0.6845703,-0.06427002,0.7826538,-0.90625,-0.4375,0.109375
635,0.66015625,-0.04083252,0.79119873,-0.5625,-0.9375,0.609375
636,0.66503906,-0.04864502,0.77679443,-2.21875,-0.375,-0.96875
637,0.67529297,-0.058898926,0.7868042,-1.421875,-1.5,-1.25
638,0.6921387,-0.06036377,0.8036499,0.109375,-2.78125,-0.609375
639,0.6669922,-0.089416504,0.7680054,-0.71875,-2.890625,-0.421875
640,0.6530762,-0.06842041,0.81951904,-0.109375,-2.328125,-0.375
641,0.6479492,-0.074035645,0.79608154,-1.4375,-0.0625,-0.546875
642,0.63256836,-0.06011963,0.81170654,-2.09375,1.15625,-1.03125
643,0.6459961,-0.08404541,0.807312,-2.375,0.390625,-1.1875
644,0.6477051,-0.06549072,0.8004761,-1.875,0.71875,-0.78125
645,0.67211914,-0.066711426,0.7970581,-1.765625,1.171875,0.109375
646,0.6669922,-0.051574707,0.77752686,-2.59375,2.453125,-0.140625
647,0.6574707,-0.057678223,0.7958374,-2.109375,1.515625,1.265625
648,0.6608887,-0.07525635,0.79437256,-0.6875,0.546875,0.90625
649,0.66625977,-0.08502197,0.81463623,-3.25,1.265625,-1.296875
650,0.6850586,-0.06427002,0.7941284,-4.578125,1.078125,-1.90625
651,0.6723633,-0.03277588,0.7699585,-4.453125,2.1875,-1.625
652,0.68530273,-0.046936035,0.77215576,-3.4375,3.3125,-1.484375
653,0.6904297,-0.0413208,0.7850952,-2.375,2.671875,-0.234375
654,0.68310547,-0.04547119,0.76116943,-0.125,1.15625,-0.578125
655,0.66259766,-0.04473877,0.80145264,1.15625,1.484375,0.359375
656,0.6862793,-0.055725098,0.7929077,0.828125,-0.59375,0.921875
657,0.67089844,-0.053771973,0.7958374,1.0625,-3.046875,0.46875
658,0.6789551,-0.058410645,0.7892456,-2.09375,-1.921875,-0.8125
659,0.67944336,-0.051086426,0.774353,-5.46875,0.078125,-1.21875
660,0.66381836,-0.047668457,0.7831421,-4.4375,0.21875,-1.734375
661,0.6687012,-0.039611816,0.7758179,-3.859375,1.09375,-3.03125
662,0.6706543,-0.04425049,0.7728882,-1.140625,1.8125,-3.0625
663,0.69555664,-0.058166504,0.81829834,-2.03125,1.046875,-2.1875
664,0.67626953,-0.04449463,0.793396,-2.4375,-0.03125,-1.0
665,0.6533203,-0.04498291,0.7782593,-1.265625,0.03125,-2.15625
666,0.6809082,-0.06451416,0.8004761,-0.234375,0.21875,-0.875
667,0.66186523,-0.039611816,0.8029175,0.3125,-0.109375,-0.390625
668,0.6791992,-0.051086426,0.7333374,-1.625,1.328125,-1.21875
669,0.6660156,-0.030334473,0.8097534,1.546875,1.265625,0.609375
670,0.6777344,-0.050109863,0.7807007,1.203125,1.34375,-0.28125
671,0.6887207,-0.046203613,0.74212646,4.171875,2.4375,-0.4375
672,0.70581055,-0.049621582,0.7579956,4.328125,4.34375,1.4375
673,0.69970703,-0.0947876,0.75994873,0.875,2.21875,2.671875
674,0.7060547,-0.074523926,0.7821655,0.078125,1.328125,0.984375
675,0.69677734,-0.055725098,0.7872925,0.046875,-0.859375,0.703125
676,0.6801758,-0.05206299,0.7531128,-1.25,-0.8125,0.6875
677,0.68530273,-0.034973145,0.7584839,-1.84375,1.46875,-1.15625
678,0.71191406,-0.04107666,0.7572632,-0.890625,1.296875,-0.59375
679,0.6960449,-0.054504395,0.7863159,1.953125,-2.15625,1.5
680,0.6777344,-0.09649658,0.7716675,0.265625,-2.578125,2.296875
681,0.69262695,-0.057922363,0.7704468,-1.078125,-0.640625,-0.0625
682,0.6828613,-0.02520752,0.77093506,-1.640625,0.890625,-0.390625
683,0.67456055,-0.04522705,0.7758179,1.0625,-1.546875,0.328125
684,0.670166,-0.070129395,0.79559326,0.625,-1.578125,0.5625
685,0.68188477,-0.08331299,0.7926636,0.203125,-2.59375,-0.03125
686,0.68774414,-0.05596924,0.7868042,0.9375,-2.890625,-0.546875
687,0.6586914,-0.049865723,0.7802124,-0.34375,0.953125,0.265625
688,0.6569824,-0.058410645,0.78656006,-1.125,0.828125,-0.25
689,0.6796875,-0.08477783,0.78704834,-1.859375,-0.03125,-0.640625
690,0.65966797,-0.046447754,0.77679443,-1.15625,0.296875,-0.53125
691,0.6845703,-0.049621582,0.7855835,-1.546875,-0.328125,0.6875
692,0.6862793,-0.049865723,0.76239014,-2.78125,2.4375,-0.8125
693,0.67578125,-0.050842285,0.76971436,-1.890625,2.953125,-0.296875
694,0.6945801,-0.0635376,0.7694702,-1.09375,2.90625,0.046875
695,0.6816406,-0.057678223,0.7731323,-0.84375,3.046875,0.734375
696,0.62890625,-0.034729004,0.77630615,1.21875,-0.046875,0.140625
697,0.70996094,-0.07891846,0.7789917,0.140625,0.484375,-1.15625
698,0.7011719,-0.04937744,0.7863159,-2.734375,0.625,-0.65625
699,0.6911621,-0.047912598,0.7653198,-4.171875,1.453125,-1.34375
700,0.6748047,-0.055480957,0.7692261,-3.828125,2.828125,-3.28125
701,0.6777344,-0.050109863,0.7765503,-2.375,2.921875,-3.921875
702,0.7167969,-0.06964111,0.80633545,-2.0625,-0.15625,-2.359375
703,0.7067871,-0.057922363,0.78411865,-1.75,-1.734375,-1.375
704,0.6887207,-0.042541504,0.73065186,-2.765625,0.4375,-2.25
705,0.6694336,-0.051574707,0.7782593,-1.296875,0.140625,-1.890625
706,0.6813965,-0.06939697,0.77508545,-2.515625,0.421875,-1.90625
707,0.6855469,-0.055480957,0.75457764,-1.421875,0.953125,-2.1875
708,0.69970703,-0.039367676,0.7736206,-0.84375,0.5625,-0.984375
709,0.7001953,-0.050598145,0.76849365,0.0625,-1.015625,0.03125
710,0.6953125,-0.050354004,0.78582764,0.171875,-2.53125,0.4375
711,0.68408203,-0.043029785,0.7509155,4.015625,-1.140625,0.984375
712,0.6801758,-0.045715332,0.74554443,7.84375,2.0,2.984375
713,0.7102051,-0.10650635,0.7802124,4.390625,-1.703125,3.765625
714,0.6977539,-0.11236572,0.7572632,-0.3125,-1.4375,1.109375
715,0.67211914,-0.038635254,0.727478,-2.25,1.140625,-1.578125
716,0.71484375,-0.016418457,0.75579834,-1.515625,2.109375,-0.015625
717,0.6760254,-0.055236816,0.78533936,0.28125,-0.609375,1.75
718,0.7019043,-0.105773926,0.7807007,1.421875,-3.0,0.75
719,0.6779785,-0.08868408,0.7719116,0.0,-1.34375,-1.03125
720,0.6984863,-0.066711426,0.76434326,-1.28125,-0.140625,0.1875
721,0.68774414,-0.04547119,0.7538452,-2.546875,1.34375,0.203125
722,0.66625977,-0.054016113,0.7645874,-0.421875,0.921875,1.25
723,0.67578125,-0.07989502,0.7953491,1.34375,-2.296875,1.1875
724,0.67578125,-0.07867432,0.7875366,-0.5625,-0.921875,0.25
725,0.69262695,-0.054504395,0.77215576,-1.921875,-0.078125,-0.875
726,0.68725586,-0.039855957,0.75946045,-1.421875,1.21875,-0.265625
727,0.671875,-0.06549072,0.7704468,-0.53125,-0.328125,0.59375
728,0.66918945,-0.077941895,0.78704834,-0.03125,-0.828125,0.328125
729,0.67700195,-0.058166504,0.7850952,-1.1875,0.203125,0.34375
730,0.67944336,-0.054748535,0.78289795,-1.5625,-0.046875,-0.046875
731,0.6726074,-0.04156494,0.75701904,-2.265625,2.140625,-0.34375
732,0.68310547,-0.047668457,0.76971436,-1.890625,2.71875,-0.859375
733,0.69091797,-0.051330566,0.7719116,-0.84375,2.59375,0.234375
734,0.68408203,-0.062805176,0.7584839,-0.21875,2.609375,0.234375
735,0.6816406,-0.06011963,0.77020264,-1.328125,3.28125,-0.09375
736,0.6921387,-0.06451416,0.7628784,-0.578125,1.859375,0.140625
737,0.6916504,-0.06573486,0.78704834,-0.640625,-1.109375,-0.484375
738,0.6833496,-0.057678223,0.78118896,-2.78125,-0.375,-1.375
739,0.6948242,-0.04864502,0.7904663,-5.015625,2.0,-2.984375
740,0.6923828,-0.06060791,0.7887573,-5.0,2.328125,-1.453125
741,0.70825195,-0.042053223,0.75897217,-1.9375,0.09375,-1.140625
742,0.71875,-0.05328369,0.7562866,-0.28125,0.625,-2.109375
743,0.68847656,-0.059631348,0.77142334,-0.59375,-0.171875,-0.703125
744,0.67041016,-0.053771973,0.7609253,-1.8125,-0.390625,-1.109375
745,0.6894531,-0.047180176,0.7609253,-1.859375,-0.46875,-2.015625
746,0.69311523,-0.051086426,0.7626343,-1.796875,-0.328125,-1.5
747,0.6791992,-0.043762207,0.76556396,0.46875,0.015625,-1.125
748,0.6899414,-0.054748535,0.77142334,0.65625,0.015625,-0.890625
749,0.6945801,-0.051330566,0.7711792,0.25,-0.03125,-0.828125
750,0.6916504,-0.038391113,0.7670288,1.1875,-0.71875,-0.234375
751,0.6945801,-0.05645752,0.7418823,4.4375,-2.0,0.859375
752,0.6977539,-0.06939697,0.74676514,4.703125,1.1875,2.765625
753,0.70751953,-0.0869751,0.74749756,0.734375,0.90625,2.421875
754,0.6984863,-0.07525635,0.7670288,-1.296875,1.25,-0.5
755,0.717041,-0.055480957,0.7789917,-1.953125,1.828125,-0.75
756,0.69189453,-0.049865723,0.7682495,0.625,-1.5,0.953125
757,0.68188477,-0.074035645,0.75653076,1.03125,-1.421875,1.171875
758,0.69384766,-0.0713501,0.77508545,0.125,-1.03125,-0.71875
759,0.6904297,-0.070617676,0.7548218,-1.296875,-0.359375,0.03125
760,0.7043457,-0.05255127,0.77142334,-1.25,0.265625,-0.4375
761,0.6862793,-0.061340332,0.7758179,-1.0,-0.640625,0.671875
762,0.6826172,-0.089904785,0.789978,0.390625,-3.21875,1.0625
763,0.67333984,-0.062316895,0.77093506,-1.21875,-1.625,-0.21875
