sample_no,accel_x,accel_y,accel_z,gyro_x,gyro_y,gyro_z
0,0.54296875,-0.07867432,-0.74957275,0.921875,0.21875,0.4375
1,0.5385742,-0.0713501,-0.7402954,0.125,0.21875,0.03125
2,0.5390625,-0.06842041,-0.7583618,-0.34375,-0.3125,-0.234375
3,0.5480957,-0.07354736,-0.7529907,-0.5,-0.328125,-0.3125
4,0.54956055,-0.070617676,-0.7451782,-0.5,-1.234375,-0.359375
5,0.5578613,-0.074279785,-0.756897,-0.734375,-1.234375,-0.359375
6,0.5444336,-0.06939697,-0.73809814,-0.625,-0.78125,-0.296875
7,0.55493164,-0.078186035,-0.7439575,-0.578125,-1.046875,-0.5
8,0.560791,-0.08404541,-0.75787354,-1.1875,-0.484375,-0.65625
9,0.55566406,-0.06915283,-0.74102783,-1.125,-2.625,-0.859375
10,0.56469727,-0.0869751,-0.7300415,-0.734375,-0.4375,-0.390625
11,0.55493164,-0.08258057,-0.74420166,-0.34375,2.9375,0.125
12,0.5444336,-0.07281494,-0.74786377,-0.421875,0.984375,-0.09375
13,0.5522461,-0.074523926,-0.75494385,-0.65625,0.875,-0.109375
14,0.55029297,-0.081604004,-0.7527466,-0.5625,1.375,-0.1875
15,0.5522461,-0.074279785,-0.7510376,-0.609375,0.234375,-0.21875
16,0.5515137,-0.078186035,-0.7439575,-1.03125,-0.96875,-0.375
17,0.55126953,-0.07598877,-0.7498169,-0.515625,0.78125,-0.234375
18,0.56152344,-0.078186035,-0.7571411,-0.859375,-0.328125,-0.171875
19,0.56152344,-0.08917236,-0.74176025,-0.796875,-0.078125,-0.328125
20,0.5541992,-0.07720947,-0.7461548,-0.609375,-0.515625,-0.21875
21,0.5527344,-0.07086182,-0.7546997,-0.890625,-0.015625,-0.4375
22,0.54248047,-0.0647583,-0.7456665,-0.734375,1.421875,-0.21875
23,0.55249023,-0.07086182,-0.75177,-0.953125,-2.046875,-0.703125
24,0.5510254,-0.06378174,-0.739563,-0.734375,-1.40625,-0.46875
25,0.55493164,-0.06890869,-0.73028564,-0.5,1.5625,-0.3125
26,0.5578613,-0.09234619,-0.7539673,-0.6875,2.015625,0.03125
27,0.54467773,-0.06817627,-0.755188,-0.9375,0.625,-0.25
28,0.54248047,-0.0725708,-0.73638916,-0.84375,0.859375,-0.203125
29,0.5432129,-0.059387207,-0.75079346,-0.609375,1.125,-0.203125
30,0.5461426,-0.07623291,-0.74053955,-0.5,0.609375,-0.34375
31,0.5407715,-0.069885254,-0.75079346,-0.734375,0.234375,-0.421875
32,0.54663086,-0.07183838,-0.7510376,-0.625,-0.25,-0.375
33,0.5395508,-0.066711426,-0.7546997,-0.640625,0.3125,-0.234375
34,0.55737305,-0.07940674,-0.7456665,-0.296875,2.078125,-0.0625
35,0.5480957,-0.074523926,-0.7498169,-0.40625,1.671875,-0.015625
36,0.54833984,-0.07525635,-0.7559204,-0.625,-0.265625,-0.28125
37,0.5515137,-0.07989502,-0.7390747,-0.390625,-0.203125,-0.03125
38,0.5349121,-0.074035645,-0.736145,-0.75,-0.671875,-0.4375
39,0.5341797,-0.06719971,-0.7490845,-0.71875,-0.421875,-0.234375
40,0.55615234,-0.07867432,-0.7498169,-0.921875,0.53125,-0.421875
41,0.54467773,-0.077697754,-0.7503052,-0.59375,1.328125,-0.109375
42,0.548584,-0.08428955,-0.75567627,-0.65625,0.984375,-0.25
43,0.5517578,-0.08331299,-0.74884033,-0.515625,0.09375,-0.34375
44,0.5432129,-0.06719971,-0.74298096,-0.640625,1.5625,-0.03125
45,0.5527344,-0.085510254,-0.7546997,-0.625,1.15625,-0.140625
46,0.53637695,-0.07281494,-0.7529907,-0.78125,0.328125,-0.125
47,0.54418945,-0.07476807,-0.7510376,-0.6875,-0.046875,-0.25
48,0.55566406,-0.077697754,-0.75665283,-0.59375,-0.296875,-0.125
49,0.5341797,-0.06793213,-0.7527466,-0.484375,-0.59375,-0.21875
50,0.54345703,-0.06817627,-0.74542236,-0.71875,-0.59375,-0.328125
51,0.5397949,-0.07525635,-0.739563,-0.640625,0.296875,-0.3125
52,0.5419922,-0.07476807,-0.75787354,-0.5625,0.546875,-0.15625
53,0.5390625,-0.06890869,-0.755188,-0.703125,0.625,-0.28125
54,0.54785156,-0.078430176,-0.75128174,-0.5625,-0.703125,-0.265625
55,0.54345703,-0.07501221,-0.74542236,-0.828125,-0.203125,-0.40625
56,0.54296875,-0.08013916,-0.755188,-1.15625,6.1875,-0.03125
57,0.5324707,-0.077697754,-0.7671509,-0.96875,-0.171875,-0.484375
58,0.5510254,-0.08331299,-0.75787354,-0.953125,-0.53125,-0.328125
59,0.5461426,-0.089416504,-0.74346924,-0.765625,1.71875,-0.03125
60,0.5305176,-0.074523926,-0.7583618,-0.5625,3.015625,0.03125
61,0.53564453,-0.07232666,-0.75616455,-0.640625,0.5625,-0.171875
62,0.5390625,-0.0803833,-0.7576294,-0.546875,-0.578125,-0.375
63,0.5385742,-0.061584473,-0.75128174,-0.828125,1.125,-0.453125
64,0.53564453,-0.08013916,-0.76226807,-0.984375,0.984375,-0.265625
65,0.53466797,-0.06866455,-0.75860596,-0.671875,1.078125,-0.171875
66,0.53637695,-0.07891846,-0.7503052,-0.75,0.078125,-0.421875
67,0.5415039,-0.081848145,-0.75494385,-0.796875,0.578125,-0.328125
68,0.53149414,-0.070129395,-0.7542114,-0.546875,0.84375,-0.078125
69,0.53027344,-0.07086182,-0.7481079,-0.625,-0.546875,-0.25
70,0.53344727,-0.074279785,-0.7608032,-0.421875,0.15625,-0.046875
71,0.5397949,-0.074523926,-0.75323486,-0.453125,0.8125,-0.109375
72,0.53027344,-0.0725708,-0.76934814,-0.484375,1.015625,0.125
73,0.5407715,-0.073791504,-0.7625122,-0.625,-0.546875,-0.3125
74,0.54248047,-0.07672119,-0.76153564,-0.484375,-0.203125,-0.3125
75,0.53515625,-0.07354736,-0.75323486,-0.375,0.1875,-0.09375
76,0.5336914,-0.07232666,-0.7630005,-0.421875,0.1875,-0.234375
77,0.53222656,-0.07550049,-0.7571411,-0.390625,-2.015625,-0.515625
78,0.5371094,-0.06915283,-0.7617798,0.09375,-3.484375,-0.625
79,0.54711914,-0.07354736,-0.7473755,0.015625,-3.140625,-0.59375
80,0.5439453,-0.07330322,-0.75079346,-0.234375,0.453125,-0.046875
81,0.54345703,-0.07305908,-0.74957275,-0.6875,-0.21875,-0.265625
82,0.560791,-0.097961426,-0.75616455,0.28125,1.015625,-0.671875
83,0.5358887,-0.073791504,-0.7529907,-0.609375,1.15625,-0.09375
84,0.5449219,-0.06427002,-0.7527466,-0.546875,0.28125,-0.203125
85,0.54345703,-0.07110596,-0.7490845,-0.421875,0.890625,0.015625
86,0.5439453,-0.06817627,-0.7539673,-0.3125,1.984375,0.140625
87,0.5366211,-0.06866455,-0.75665283,-0.546875,1.28125,0.046875
88,0.54003906,-0.0713501,-0.75201416,-0.5625,0.671875,-0.1875
89,0.54296875,-0.06549072,-0.7571411,-0.8125,0.171875,-0.40625
90,0.5432129,-0.07208252,-0.7539673,-0.796875,-0.546875,-0.5
91,0.5456543,-0.06744385,-0.7505493,-0.78125,-0.09375,-0.46875
92,0.53881836,-0.07672119,-0.7546997,-0.921875,-0.234375,-0.28125
93,0.5407715,-0.06817627,-0.755188,-0.734375,0.25,-0.140625
94,0.54467773,-0.06915283,-0.75128174,-0.765625,-0.0625,-0.453125
95,0.54052734,-0.070373535,-0.7529907,-0.484375,0.375,-0.15625
96,0.5449219,-0.08135986,-0.7625122,-0.703125,0.015625,-0.3125
97,0.53686523,-0.06939697,-0.7632446,-0.890625,0.6875,-0.21875
98,0.53125,-0.06304932,-0.74468994,-0.703125,0.9375,-0.125
99,0.5354004,-0.0725708,-0.7583618,-0.84375,-0.453125,-0.390625
100,0.5422363,-0.06427002,-0.75128174,-0.671875,0.015625,-0.265625
101,0.54125977,-0.07232666,-0.7490845,-0.75,0.203125,-0.078125
102,0.54125977,-0.07110596,-0.75787354,-0.65625,1.6875,-0.234375
103,0.5324707,-0.070373535,-0.7546997,-0.34375,0.703125,-0.09375
104,0.5373535,-0.07183838,-0.7539673,-0.671875,0.390625,-0.28125
105,0.5437012,-0.07696533,-0.7510376,-0.265625,0.578125,-0.140625
106,0.4650879,-0.0095825195,-0.72857666,1.171875,2.484375,-0.53125
107,0.5263672,-0.054992676,-0.7510376,0.921875,1.28125,-0.5625
108,0.53466797,-0.07745361,-0.75372314,0.703125,3.875,0.21875
109,0.5275879,-0.06085205,-0.77130127,-0.046875,2.265625,0.453125
110,0.52734375,-0.06939697,-0.77301025,-0.3125,1.59375,0.265625
111,0.52905273,-0.062805176,-0.76397705,-0.46875,-0.390625,-0.140625
112,0.5270996,-0.066711426,-0.7571411,-0.734375,0.390625,-0.109375
113,0.52612305,-0.06085205,-0.769104,-0.640625,0.078125,-0.171875
114,0.53125,-0.0647583,-0.7698364,-1.171875,-2.125,-0.6875
115,0.5280762,-0.0635376,-0.75665283,-0.9375,-1.84375,-0.84375
116,0.5419922,-0.07086182,-0.756897,-1.3125,-1.15625,-0.8125
117,0.53125,-0.06793213,-0.7637329,-0.984375,0.125,-0.53125
118,0.52734375,-0.06524658,-0.75860596,-0.578125,0.21875,-0.28125
119,0.5332031,-0.06500244,-0.75738525,-0.546875,0.03125,-0.1875
120,0.53466797,-0.06719971,-0.7564087,-0.515625,0.421875,0.03125
121,0.53222656,-0.06427002,-0.7632446,-0.5,1.171875,-0.09375
122,0.532959,-0.06427002,-0.75787354,-0.625,0.625,-0.203125
123,0.53344727,-0.06060791,-0.7595825,-0.5,0.46875,-0.1875
124,0.5292969,-0.065979004,-0.7588501,-0.71875,-0.0625,-0.375
125,0.5253906,-0.059387207,-0.756897,-0.578125,-0.34375,-0.34375
126,0.52685547,-0.057678223,-0.75323486,-0.84375,-0.609375,-0.4375
127,0.532959,-0.06866455,-0.75616455,-0.8125,0.328125,-0.453125
128,0.5300293,-0.06744385,-0.7593384,-0.765625,-0.34375,-0.359375
129,0.53271484,-0.06036377,-0.75738525,-0.953125,-0.875,-0.5625
130,0.53125,-0.06817627,-0.76275635,-0.609375,0.625,-0.15625
131,0.5280762,-0.073791504,-0.76153564,-0.78125,0.90625,-0.078125
132,0.5349121,-0.0725708,-0.7600708,-0.640625,1.53125,-0.328125
133,0.52490234,-0.0635376,-0.741272,-1.140625,2.71875,-0.5
134,0.52197266,-0.054260254,-0.755188,-1.15625,8.40625,0.28125
135,0.51171875,-0.06524658,-0.78302,-1.453125,7.390625,0.1875
136,0.5097656,-0.06793213,-0.7893677,-1.71875,2.328125,-0.265625
137,0.5097656,-0.074523926,-0.7703247,-1.671875,0.03125,-0.734375
138,0.5095215,-0.06817627,-0.7842407,-1.65625,-0.28125,-0.796875
139,0.5031738,-0.06549072,-0.78863525,-2.21875,-4.890625,-1.71875
140,0.5187988,-0.074035645,-0.7666626,-2.078125,-7.046875,-1.890625
141,0.52197266,-0.06817627,-0.7810669,-2.078125,-9.125,-2.78125
142,0.53881836,-0.07940674,-0.73883057,-0.84375,-13.09375,-2.34375
143,0.545166,-0.0803833,-0.7373657,-1.015625,-7.15625,-1.609375
144,0.5583496,-0.07965088,-0.7402954,-1.15625,-5.96875,-1.46875
145,0.5600586,-0.08917236,-0.7241821,-0.625,-4.265625,-0.828125
146,0.5644531,-0.08258057,-0.7234497,-0.25,0.421875,-0.109375
147,0.56469727,-0.08380127,-0.7354126,-0.546875,1.84375,0.078125
148,0.5588379,-0.081604004,-0.73028564,0.265625,1.390625,0.640625
149,0.56347656,-0.074523926,-0.7473755,0.953125,-0.390625,0.6875
150,0.5673828,-0.08526611,-0.7346802,0.078125,-2.53125,-0.140625
151,0.56811523,-0.07672119,-0.72442627,-0.265625,2.75,0.5625
152,0.55493164,-0.0725708,-0.7293091,-0.5625,3.015625,0.1875
153,0.56152344,-0.07305908,-0.7432251,-0.875,1.875,-0.1875
154,0.5534668,-0.07330322,-0.7456665,-0.9375,1.65625,-0.015625
155,0.5563965,-0.074279785,-0.7383423,-0.328125,-0.40625,-0.078125
156,0.5563965,-0.070129395,-0.73443604,-0.5,-0.3125,0.015625
157,0.5546875,-0.06793213,-0.7476196,-0.53125,1.453125,0.1875
158,0.56030273,-0.07672119,-0.74664307,-0.890625,0.859375,-0.234375
159,0.55200195,-0.070617676,-0.7390747,-0.796875,-0.140625,-0.53125
160,0.5605469,-0.082336426,-0.7385864,-0.375,0.5,0.109375
161,0.54248047,-0.066711426,-0.7163696,-0.109375,4.546875,0.3125
162,0.5600586,-0.08135986,-0.75787354,0.0625,6.96875,0.984375
163,0.5456543,-0.06036377,-0.7659302,-0.15625,3.21875,0.421875
164,0.54052734,-0.069885254,-0.7554321,-0.734375,0.125,-0.234375
165,0.5422363,-0.07281494,-0.74102783,-0.734375,-1.1875,-0.328125
166,0.5539551,-0.085754395,-0.7576294,-0.734375,-2.21875,-0.421875
167,0.5456543,-0.06329346,-0.7481079,-0.875,-2.0,-0.546875
168,0.5476074,-0.082336426,-0.741272,-0.875,-0.6875,-0.359375
169,0.54907227,-0.07696533,-0.74542236,-0.734375,-1.15625,-0.515625
170,0.54833984,-0.069885254,-0.7439575,-0.484375,-1.546875,-0.296875
171,0.5527344,-0.06842041,-0.7371216,-0.25,1.3125,0.03125
172,0.55444336,-0.07647705,-0.7385864,-0.890625,1.9375,-0.390625
173,0.54248047,-0.070129395,-0.7490845,-1.1875,0.25,-0.65625
174,0.5551758,-0.08013916,-0.75445557,-0.734375,0.515625,-0.265625
175,0.53686523,-0.07501221,-0.7312622,-0.703125,0.53125,-0.21875
176,0.55737305,-0.07891846,-0.76446533,-1.015625,0.046875,-0.53125
177,0.55615234,-0.07525635,-0.74176025,-1.109375,-0.90625,-0.453125
178,0.5476074,-0.07159424,-0.7481079,-0.46875,0.5,-0.125
179,0.5439453,-0.061584473,-0.7461548,-1.0,-0.140625,-0.640625
180,0.54541016,-0.06573486,-0.7449341,-1.0,0.84375,-0.40625
181,0.54785156,-0.07159424,-0.7493286,-1.4375,-0.96875,-0.65625
182,0.5410156,-0.08258057,-0.73223877,-2.0,-2.140625,-1.0
183,0.5505371,-0.08135986,-0.7402954,-1.1875,-0.4375,-0.28125
184,0.55615234,-0.07867432,-0.75201416,-1.375,-3.296875,-0.9375
185,0.55981445,-0.097961426,-0.7305298,-0.546875,-0.96875,-0.390625
186,0.56274414,-0.08770752,-0.74420166,-0.3125,2.03125,0.078125
187,0.56030273,-0.09429932,-0.72662354,0.296875,7.984375,0.90625
188,0.54785156,-0.081848145,-0.77130127,-0.296875,9.421875,0.953125
189,0.53515625,-0.07647705,-0.7559204,-0.46875,2.1875,-0.203125
190,0.5407715,-0.07623291,-0.7703247,-0.953125,4.421875,-0.015625
191,0.5319824,-0.08282471,-0.75616455,-1.0,4.375,0.015625
192,0.5227051,-0.07208252,-0.7737427,-1.03125,3.171875,-0.15625
193,0.5395508,-0.03375244,-0.75738525,-2.4375,-0.90625,-0.390625
194,0.5239258,-0.077941895,-0.7612915,-0.5,-2.140625,-0.671875
195,0.52197266,-0.07940674,-0.769104,-1.125,-3.640625,0.0
196,0.5385742,-0.08062744,-0.7427368,-0.625,-2.671875,0.34375
197,0.53515625,-0.07501221,-0.75006104,-0.671875,0.125,0.5
198,0.5227051,-0.08062744,-0.75787354,-0.578125,1.046875,0.609375
199,0.5266113,-0.07745361,-0.77130127,-0.15625,1.875,0.4375
200,0.53222656,-0.078186035,-0.75738525,-0.1875,3.078125,0.296875
201,0.52124023,-0.0713501,-0.7686157,-0.015625,4.046875,0.921875
202,0.5283203,-0.08013916,-0.75860596,-0.296875,2.0,0.328125
203,0.5097656,-0.058654785,-0.7756958,-0.296875,3.40625,1.1875
204,0.5109863,-0.0635376,-0.78204346,-0.71875,-1.625,-0.3125
205,0.5192871,-0.07232666,-0.7588501,-0.84375,-4.734375,-0.71875
206,0.532959,-0.06793213,-0.7686157,-0.984375,-5.0625,-0.859375
207,0.5371094,-0.070129395,-0.7288208,-1.203125,-2.34375,-0.671875
208,0.5332031,-0.07891846,-0.7576294,-0.78125,3.75,-0.015625
209,0.5185547,-0.06524658,-0.7307739,0.140625,10.96875,0.9375
210,0.5124512,-0.061828613,-0.8015747,0.09375,12.15625,2.0625
211,0.5024414,-0.07330322,-0.7888794,-0.875,-0.1875,-0.4375
212,0.5083008,-0.06964111,-0.77838135,-0.609375,-1.546875,-0.140625
213,0.5095215,-0.06573486,-0.767395,-0.578125,-1.203125,-0.359375
214,0.513916,-0.06793213,-0.7703247,-0.71875,-0.5,-0.265625
215,0.5124512,-0.06500244,-0.7739868,-0.890625,0.96875,-0.484375
216,0.5148926,-0.06744385,-0.7649536,-0.78125,2.28125,-0.546875
217,0.50805664,-0.06890869,-0.78570557,-1.65625,-4.203125,-1.28125
218,0.5124512,-0.065979004,-0.7649536,-0.90625,-0.921875,-0.671875
219,0.54003906,-0.038879395,-0.73394775,-1.015625,0.703125,0.21875
220,0.52685547,-0.06915283,-0.77056885,-0.890625,-0.515625,-0.3125
221,0.5131836,-0.06304932,-0.770813,-0.703125,2.078125,0.109375
222,0.52368164,-0.0803833,-0.7732544,-0.609375,0.640625,-0.09375
223,0.513916,-0.06060791,-0.7842407,-0.546875,0.0625,-0.15625
224,0.5136719,-0.06964111,-0.7764282,-0.4375,0.375,-0.234375
225,0.5090332,-0.06793213,-0.77349854,-0.609375,0.328125,-0.140625
226,0.5136719,-0.0635376,-0.77593994,-0.453125,0.59375,-0.078125
227,0.52685547,-0.0803833,-0.7678833,-0.390625,1.171875,-0.15625
228,0.5119629,-0.05670166,-0.77349854,-0.5,0.90625,-0.078125
229,0.5151367,-0.07623291,-0.7739868,-0.828125,0.359375,-0.140625
230,0.5205078,-0.081848145,-0.7649536,-0.46875,-0.265625,-0.046875
231,0.50805664,-0.070373535,-0.77130127,-0.609375,1.84375,0.078125
232,0.5097656,-0.06842041,-0.7788696,-0.765625,-0.234375,-0.234375
233,0.5126953,-0.070617676,-0.7625122,-0.71875,0.75,-0.125
234,0.5065918,-0.06915283,-0.77838135,-0.859375,4.359375,0.078125
235,0.5012207,-0.06402588,-0.78985596,-1.03125,1.078125,-0.453125
236,0.5036621,-0.07330322,-0.76934814,-1.46875,-0.203125,-1.09375
237,0.50512695,-0.074523926,-0.77178955,-0.921875,2.0,-0.703125
238,0.49975586,-0.06793213,-0.78912354,-1.375,0.515625,-1.046875
239,0.4868164,-0.07989502,-0.78692627,-1.4375,-4.1875,-1.65625
240,0.50927734,-0.07720947,-0.7769165,-2.296875,-7.0625,-1.53125
241,0.5168457,-0.07891846,-0.7749634,-2.734375,-8.1875,-1.921875
242,0.5283203,-0.08306885,-0.7810669,-3.125,-11.828125,-2.671875
243,0.5410156,-0.07989502,-0.74664307,-1.96875,-12.296875,-2.265625
244,0.56640625,-0.08673096,-0.72784424,-2.03125,-13.03125,-2.15625
245,0.57788086,-0.094055176,-0.7229614,-1.4375,-14.421875,-1.328125
246,0.5852051,-0.10064697,-0.710022,-2.515625,-11.4375,-0.375
247,0.59472656,-0.09552002,-0.7024536,-2.578125,-8.9375,0.046875
248,0.6047363,-0.10675049,-0.6795044,-1.96875,-3.953125,0.671875
249,0.6044922,-0.093811035,-0.70318604,-0.859375,-2.5625,0.734375
250,0.59521484,-0.101867676,-0.69610596,-0.5625,3.078125,1.171875
251,0.5944824,-0.09210205,-0.7124634,-1.890625,7.46875,2.0
252,0.59521484,-0.09210205,-0.72784424,-1.015625,1.578125,0.078125
253,0.5983887,-0.09088135,-0.7149048,-0.140625,-0.625,0.15625
254,0.5991211,-0.0869751,-0.69415283,0.0,0.09375,0.015625
255,0.60180664,-0.08868408,-0.7185669,-0.953125,1.34375,-0.09375
256,0.5883789,-0.081848145,-0.6956177,-1.203125,1.265625,-0.515625
257,0.58447266,-0.09454346,-0.7024536,-0.828125,0.96875,-0.125
258,0.5864258,-0.09136963,-0.6902466,-0.65625,-0.34375,-0.1875
259,0.60375977,-0.09429932,-0.7085571,-0.34375,1.515625,0.140625
260,0.58740234,-0.08892822,-0.70147705,-0.453125,0.859375,0.078125
261,0.59643555,-0.08673096,-0.7114868,-0.6875,1.828125,0.1875
262,0.5932617,-0.093811035,-0.7190552,-0.859375,-0.34375,-0.375
263,0.59521484,-0.09136963,-0.71295166,-0.859375,-0.546875,-0.265625
264,0.5847168,-0.08917236,-0.7168579,-0.875,1.25,-0.03125
265,0.59033203,-0.08892822,-0.71221924,-1.0625,0.90625,-0.359375
266,0.60180664,-0.10235596,-0.70513916,-0.484375,1.234375,0.09375
267,0.5805664,-0.086242676,-0.70440674,-0.3125,2.59375,0.125
268,0.5842285,-0.082336426,-0.71051025,-0.59375,3.640625,0.09375
269,0.58251953,-0.08428955,-0.7295532,-0.671875,2.109375,0.171875
270,0.5949707,-0.09869385,-0.7180786,-0.78125,0.0,-0.296875
271,0.5966797,-0.10797119,-0.7127075,-1.171875,0.828125,-0.0625
272,0.58203125,-0.09893799,-0.7112427,-1.578125,0.671875,-0.515625
273,0.57714844,-0.09503174,-0.71759033,-0.984375,1.8125,-0.125
274,0.57910156,-0.09820557,-0.7202759,-0.921875,0.5,-0.390625
275,0.58081055,-0.09259033,-0.72076416,-0.5,2.0625,-0.125
276,0.58251953,-0.09210205,-0.7276001,-0.484375,1.0,-0.03125
277,0.5805664,-0.09552002,-0.7190552,-0.375,-1.09375,-0.15625
278,0.5830078,-0.08770752,-0.7144165,-0.3125,0.203125,0.109375
279,0.576416,-0.085754395,-0.71759033,-0.171875,1.265625,0.203125
280,0.5727539,-0.08917236,-0.73321533,-0.625,1.5,-0.234375
281,0.5834961,-0.10406494,-0.7276001,-0.53125,-0.296875,-0.28125
282,0.579834,-0.090148926,-0.72052,-0.71875,0.6875,-0.140625
283,0.5812988,-0.08892822,-0.72198486,-0.546875,2.390625,0.15625
284,0.5690918,-0.085754395,-0.7197876,-0.265625,1.171875,0.0625
285,0.5715332,-0.08282471,-0.72369385,0.015625,2.703125,0.4375
286,0.5708008,-0.09307861,-0.72540283,-0.390625,1.453125,0.0625
287,0.5761719,-0.089416504,-0.7276001,-0.390625,1.46875,-0.09375
288,0.5629883,-0.07696533,-0.7293091,-0.703125,1.046875,-0.3125
289,0.5654297,-0.08428955,-0.7319946,-0.734375,-0.015625,-0.53125
290,0.56689453,-0.08868408,-0.7341919,-0.375,0.078125,0.03125
291,0.5800781,-0.09234619,-0.72906494,-0.46875,0.234375,-0.15625
292,0.56469727,-0.07989502,-0.72906494,-0.390625,0.390625,-0.171875
293,0.57714844,-0.0881958,-0.73272705,-0.65625,0.8125,-0.25
294,0.5605469,-0.074279785,-0.73883057,-0.796875,1.1875,-0.171875
295,0.5686035,-0.08380127,-0.7354126,-0.8125,0.25,-0.34375
296,0.5656738,-0.08355713,-0.73028564,-0.875,-1.53125,-0.46875
297,0.5644531,-0.08428955,-0.7192993,-0.3125,0.84375,-0.125
298,0.5666504,-0.08355713,-0.7341919,-0.328125,2.125,0.171875
299,0.5632324,-0.08355713,-0.7268677,-0.546875,1.140625,-0.046875
300,0.5666504,-0.085510254,-0.73516846,-0.296875,2.328125,0.21875
301,0.5583496,-0.07720947,-0.74224854,-0.390625,4.265625,0.375
302,0.548584,-0.07965088,-0.7307739,-0.765625,2.3125,-0.25
303,0.5463867,-0.06329346,-0.74346924,-0.734375,2.21875,0.15625
304,0.5500488,-0.081604004,-0.74884033,-0.484375,1.171875,-0.078125
305,0.54833984,-0.08453369,-0.74884033,-0.515625,-0.5625,-0.203125
306,0.55908203,-0.078186035,-0.7510376,-0.265625,-3.125,-0.53125
307,0.564209,-0.081848145,-0.74664307,0.4375,-4.8125,-0.953125
308,0.5571289,-0.06817627,-0.76641846,0.984375,-8.640625,-1.546875
309,0.58740234,-0.058898926,-0.7588501,4.375,-27.78125,-5.0
310,0.6245117,-0.10089111,-0.6502075,3.203125,-18.96875,-2.875
311,0.62524414,-0.07598877,-0.66973877,1.328125,-6.5625,-0.578125
312,0.63720703,-0.07086182,-0.69537354,-0.28125,-3.65625,-0.578125
313,0.6218262,-0.07867432,-0.6536255,-0.953125,2.0,-0.3125
314,0.6308594,-0.07647705,-0.6856079,-1.71875,5.875,0.1875
315,0.62524414,-0.082336426,-0.6975708,-1.328125,2.546875,-0.28125
316,0.6245117,-0.078430176,-0.6980591,-0.8125,2.90625,0.3125
317,0.6166992,-0.07867432,-0.7034302,-0.5,4.1875,0.40625
318,0.6154785,-0.070617676,-0.69244385,-0.28125,1.390625,0.09375
319,0.6142578,-0.07232666,-0.6890259,-0.515625,1.578125,-0.171875
320,0.6057129,-0.070373535,-0.7022095,-0.625,2.96875,0.03125
321,0.6135254,-0.06817627,-0.6983032,-1.203125,1.4375,-0.484375
322,0.59814453,-0.074035645,-0.6946411,-1.015625,-0.90625,-0.40625
323,0.59643555,-0.07086182,-0.70391846,-0.59375,2.96875,0.328125
324,0.61157227,-0.07086182,-0.72003174,-0.640625,-0.046875,0.03125
325,0.6088867,-0.074279785,-0.69903564,-0.671875,-0.59375,-0.21875
326,0.6052246,-0.07696533,-0.6970825,-0.84375,1.328125,-0.25
327,0.6022949,-0.07696533,-0.70928955,-1.03125,2.171875,-0.21875
328,0.6010742,-0.07550049,-0.70880127,-0.90625,-0.0625,-0.421875
329,0.5991211,-0.073791504,-0.69195557,-0.515625,0.53125,-0.125
330,0.59106445,-0.06524658,-0.6958618,-0.53125,1.15625,-0.09375
331,0.6020508,-0.06964111,-0.70196533,-0.40625,3.78125,0.484375
332,0.60180664,-0.082092285,-0.7151489,-0.890625,3.015625,0.078125
333,0.58740234,-0.07110596,-0.70806885,-0.71875,2.171875,-0.203125
334,0.59643555,-0.07305908,-0.7185669,-0.6875,1.59375,0.078125
335,0.58984375,-0.06011963,-0.7163696,-0.578125,0.359375,0.015625
336,0.5974121,-0.08502197,-0.7217407,-0.59375,-0.109375,0.0
337,0.5996094,-0.07550049,-0.70440674,-0.78125,-0.25,-0.21875
338,0.5925293,-0.07623291,-0.71661377,-0.765625,0.625,-0.0625
339,0.592041,-0.0725708,-0.72003174,-0.84375,0.09375,-0.15625
340,0.59375,-0.07525635,-0.7180786,-0.671875,-0.234375,-0.28125
341,0.58935547,-0.07281494,-0.7090454,-0.546875,0.640625,-0.28125
342,0.59350586,-0.07598877,-0.7180786,-0.328125,1.265625,0.0625
343,0.59277344,-0.07208252,-0.71051025,-0.390625,0.9375,-0.078125
344,0.59033203,-0.06817627,-0.7114868,-0.640625,0.53125,-0.296875
345,0.5991211,-0.06890869,-0.71710205,-0.65625,-0.484375,-0.328125
346,0.58374023,-0.07110596,-0.72369385,-0.890625,0.234375,-0.328125
347,0.58251953,-0.06719971,-0.70806885,-0.78125,0.53125,-0.265625
348,0.5966797,-0.07672119,-0.7119751,-0.734375,-0.5625,-0.796875
349,0.59375,-0.078430176,-0.708313,-0.78125,0.484375,-0.234375
350,0.5966797,-0.07086182,-0.71173096,-0.296875,0.796875,0.0625
351,0.5917969,-0.074279785,-0.7185669,-0.140625,-0.015625,0.09375
352,0.58251953,-0.06719971,-0.706604,0.1875,-0.296875,-0.09375
353,0.5830078,-0.040100098,-0.7490845,2.59375,-9.078125,-1.65625
354,0.61157227,-0.06890869,-0.68756104,1.96875,-8.046875,-2.21875
355,0.6010742,-0.059387207,-0.70880127,1.890625,-5.296875,-1.171875
356,0.6159668,-0.0635376,-0.6843872,0.921875,-5.125,-1.984375
357,0.62524414,-0.07232666,-0.6807251,0.203125,-2.359375,-1.078125
358,0.6152344,-0.06695557,-0.67974854,-1.1875,2.078125,-0.296875
359,0.6098633,-0.06085205,-0.69244385,-0.828125,3.328125,0.109375
360,0.6057129,-0.06378174,-0.69415283,-1.0,0.65625,-0.203125
361,0.6201172,-0.066711426,-0.6814575,-0.734375,-0.140625,-0.1875
362,0.6274414,-0.06817627,-0.69000244,-1.0,2.109375,-0.046875
363,0.6125488,-0.0713501,-0.68585205,-0.96875,5.109375,0.359375
364,0.6147461,-0.0569458,-0.7127075,-0.890625,3.9375,0.421875
365,0.5974121,-0.06378174,-0.7024536,-0.546875,2.0625,0.140625
366,0.6015625,-0.062561035,-0.7007446,-0.328125,2.171875,0.171875
367,0.60839844,-0.07623291,-0.70806885,-1.171875,4.171875,0.40625
368,0.5834961,-0.050109863,-0.7036743,-1.140625,6.96875,0.53125
369,0.5827637,-0.069885254,-0.71710205,-2.03125,7.9375,0.15625
370,0.5769043,-0.06451416,-0.7373657,-1.546875,10.1875,0.875
371,0.57250977,-0.061340332,-0.7503052,-0.5625,3.8125,0.234375
372,0.5690918,-0.055480957,-0.73028564,-0.84375,-2.1875,-0.6875
373,0.57299805,-0.06304932,-0.7305298,-1.328125,-0.734375,-1.15625
374,0.56640625,-0.06500244,-0.7371216,-1.546875,-3.078125,-1.734375
375,0.5769043,-0.06842041,-0.73150635,-2.140625,-4.5625,-1.8125
376,0.5827637,-0.06939697,-0.7246704,-2.65625,-7.3125,-1.890625
377,0.58154297,-0.07330322,-0.7005005,-2.765625,-8.90625,-1.890625
378,0.5979004,-0.074279785,-0.70098877,-1.859375,-5.484375,-1.296875
379,0.6062012,-0.077941895,-0.7017212,-1.34375,-4.328125,-0.90625
380,0.6101074,-0.07891846,-0.68951416,-0.4375,-3.8125,-0.234375
381,0.61279297,-0.07940674,-0.6865845,0.03125,-0.828125,0.296875
382,0.60913086,-0.07183838,-0.690979,0.578125,2.609375,0.953125
383,0.6152344,-0.07598877,-0.7085571,0.640625,0.625,0.921875
384,0.61035156,-0.07501221,-0.7114868,0.140625,-5.234375,-0.03125
385,0.61279297,-0.06500244,-0.6646118,0.109375,-1.765625,0.109375
386,0.6257324,-0.0791626,-0.6983032,-0.890625,2.21875,-0.109375
387,0.6040039,-0.06500244,-0.6848755,-0.9375,0.59375,-0.578125
388,0.61938477,-0.07965088,-0.6951294,-1.125,0.859375,-0.390625
389,0.6152344,-0.073791504,-0.69610596,-0.53125,1.953125,0.078125
390,0.61035156,-0.0713501,-0.70196533,-0.53125,0.671875,-0.09375
391,0.61694336,-0.07159424,-0.7034302,-0.53125,-2.296875,-0.578125
392,0.6152344,-0.077697754,-0.68414307,0.140625,-1.21875,0.109375
393,0.6218262,-0.066223145,-0.7007446,-0.59375,1.0625,-0.046875
394,0.61279297,-0.066711426,-0.6904907,-0.875,2.0,-0.28125
395,0.61499023,-0.07330322,-0.6963501,-0.734375,1.53125,0.015625
396,0.6179199,-0.07647705,-0.7078247,-0.46875,1.171875,0.0625
397,0.61206055,-0.058410645,-0.7036743,-0.640625,0.21875,-0.203125
398,0.60131836,-0.06719971,-0.6934204,-0.78125,0.6875,-0.21875
399,0.6142578,-0.085754395,-0.68292236,-0.640625,1.671875,-0.03125
400,0.60717773,-0.06549072,-0.70684814,-0.765625,1.59375,-0.3125
401,0.60668945,-0.06939697,-0.70513916,-0.859375,0.296875,-0.359375
402,0.6052246,-0.07208252,-0.69732666,-0.625,0.328125,-0.375
403,0.60180664,-0.065979004,-0.6917114,-0.65625,0.578125,-0.21875
404,0.61938477,-0.08111572,-0.69537354,-0.53125,1.6875,-0.078125
405,0.5991211,-0.057434082,-0.7034302,-0.65625,0.78125,-0.1875
406,0.60131836,-0.0647583,-0.71588135,-0.9375,0.40625,-0.296875
407,0.59643555,-0.061340332,-0.69366455,-0.671875,0.171875,-0.421875
408,0.6152344,-0.07598877,-0.6963501,-0.78125,0.734375,-0.25
409,0.60791016,-0.07867432,-0.70269775,-0.796875,1.046875,-0.1875
410,0.6015625,-0.07086182,-0.70513916,-0.609375,0.90625,-0.03125
411,0.6081543,-0.070373535,-0.7036743,-0.65625,1.15625,0.03125
412,0.6022949,-0.07208252,-0.7124634,-0.703125,0.140625,-0.234375
413,0.60180664,-0.06719971,-0.7005005,-0.546875,0.859375,-0.28125
414,0.60424805,-0.06573486,-0.70318604,-0.8125,-0.15625,-0.234375
415,0.6074219,-0.07159424,-0.7070923,-0.890625,-0.125,-0.609375
416,0.6057129,-0.061340332,-0.70513916,-0.75,-0.546875,-0.40625
417,0.60058594,-0.06817627,-0.70880127,-0.6875,-0.6875,-0.375
418,0.60913086,-0.07574463,-0.7036743,-0.59375,0.203125,-0.1875
419,0.6140137,-0.07720947,-0.71051025,-0.375,1.515625,-0.015625
420,0.6140137,-0.07232666,-0.7102661,-0.4375,0.140625,-0.234375
421,0.6125488,-0.07745361,-0.7005005,-0.390625,-0.5,-0.203125
422,0.61450195,-0.07305908,-0.70806885,-0.484375,0.9375,-0.078125
423,0.6015625,-0.08331299,-0.7156372,-0.75,1.765625,-0.078125
424,0.6015625,-0.062805176,-0.6987915,-0.890625,1.71875,-0.265625
425,0.6015625,-0.066223145,-0.7151489,-0.640625,1.125,0.0
426,0.5957031,-0.06866455,-0.71051025,-0.71875,-0.015625,-0.3125
427,0.5900879,-0.0647583,-0.7022095,-0.546875,1.3125,0.015625
428,0.6008301,-0.06866455,-0.71417236,-0.453125,0.90625,-0.265625
429,0.5957031,-0.057922363,-0.70025635,-0.484375,0.40625,-0.34375
430,0.59399414,-0.074279785,-0.7178345,-0.546875,1.609375,0.046875
431,0.60595703,-0.07525635,-0.7163696,-0.5,0.84375,-0.28125
432,0.59399414,-0.07232666,-0.71417236,-0.328125,-0.234375,-0.15625
433,0.58862305,-0.059143066,-0.704895,-0.453125,0.75,0.015625
434,0.58251953,-0.06304932,-0.7102661,-0.921875,0.453125,-0.1875
435,0.5839844,-0.07110596,-0.7131958,-0.875,0.25,-0.484375
436,0.5925293,-0.062316895,-0.7151489,-0.921875,-0.765625,-0.5625
437,0.59472656,-0.062805176,-0.708313,-0.640625,0.234375,-0.09375
438,0.59277344,-0.06744385,-0.7119751,-0.46875,0.484375,-0.265625
439,0.59765625,-0.06060791,-0.7119751,-0.546875,0.765625,0.046875
440,0.5957031,-0.065979004,-0.71173096,-0.453125,0.265625,-0.09375
441,0.592041,-0.06378174,-0.71099854,-0.53125,0.734375,-0.140625
442,0.5949707,-0.06378174,-0.7161255,-0.78125,0.984375,-0.328125
443,0.59375,-0.06402588,-0.7127075,-0.671875,1.546875,0.109375
444,0.5876465,-0.06524658,-0.71661377,-1.125,-0.90625,-0.65625
445,0.5983887,-0.07574463,-0.7202759,-0.75,-1.546875,-0.578125
446,0.57788086,-0.06451416,-0.70513916,-0.59375,-1.625,-0.421875
447,0.59716797,-0.07623291,-0.704895,-0.953125,-0.109375,-0.390625
448,0.59716797,-0.06890869,-0.7017212,-0.65625,0.0625,-0.171875
449,0.59399414,-0.070373535,-0.7131958,-0.578125,1.296875,-0.09375
450,0.5974121,-0.06085205,-0.7070923,-0.59375,1.578125,-0.265625
451,0.5876465,-0.06451416,-0.7112427,-0.578125,0.890625,-0.359375
452,0.58618164,-0.05987549,-0.71173096,-0.734375,-0.109375,-0.0625
453,0.59228516,-0.06500244,-0.72369385,-0.53125,1.125,0.140625
454,0.59277344,-0.07208252,-0.7161255,-0.75,0.234375,-0.25
455,0.5986328,-0.06817627,-0.704895,-0.671875,-0.40625,-0.484375
456,0.5996094,-0.08062744,-0.7041626,-0.40625,0.28125,-0.1875
457,0.5932617,-0.06573486,-0.71051025,-0.59375,1.546875,-0.078125
458,0.58984375,-0.06451416,-0.7337036,-0.71875,1.8125,-0.125
459,0.58251953,-0.066223145,-0.7190552,-0.0625,-1.171875,-0.34375
460,0.5930176,-0.06890869,-0.7036743,0.234375,-1.375,-0.0625
461,0.5888672,-0.062316895,-0.7114868,0.0,-0.59375,0.0
462,0.60839844,-0.070373535,-0.7227173,-0.46875,-0.703125,-0.53125
463,0.59521484,-0.062805176,-0.70562744,-0.09375,-2.375,-1.203125
464,0.60424805,-0.066711426,-0.7119751,-0.953125,-0.65625,-0.9375
465,0.59814453,-0.06402588,-0.7127075,-1.078125,0.921875,-0.53125
466,0.59521484,-0.058654785,-0.70318604,-0.53125,1.90625,0.046875
467,0.592041,-0.058898926,-0.72247314,-0.453125,2.84375,0.3125
468,0.5905762,-0.070129395,-0.7197876,-0.515625,0.828125,-0.140625
469,0.59155273,-0.06549072,-0.71588135,-0.625,1.140625,0.015625
470,0.5852051,-0.06304932,-0.7185669,-0.578125,1.6875,0.09375
471,0.57714844,-0.05718994,-0.7131958,-0.203125,2.609375,0.296875
472,0.5859375,-0.06060791,-0.73223877,-0.5,1.09375,0.171875
473,0.59155273,-0.066467285,-0.7139282,-0.359375,1.8125,0.171875
474,0.5864258,-0.05987549,-0.71221924,-0.28125,2.3125,0.03125
475,0.58154297,-0.058410645,-0.73443604,-0.265625,3.265625,0.46875
476,0.5703125,-0.050598145,-0.7424927,-0.9375,1.421875,-0.09375
477,0.5883789,-0.057922363,-0.7312622,-0.453125,0.875,0.015625
478,0.5876465,-0.06695557,-0.73565674,-0.78125,-0.25,-0.234375
479,0.56762695,-0.051818848,-0.7317505,-0.59375,-0.953125,-0.359375
480,0.5654297,-0.043518066,-0.72442627,-0.8125,-0.96875,-0.640625
481,0.5756836,-0.054504395,-0.71466064,-1.1875,-0.578125,-0.78125
482,0.57592773,-0.047912598,-0.72906494,-1.140625,-0.75,-0.5625
483,0.5847168,-0.061828613,-0.72369385,-0.625,1.515625,-0.125
484,0.5786133,-0.05987549,-0.72979736,-0.703125,0.78125,-0.21875
485,0.579834,-0.059631348,-0.72320557,-0.375,0.296875,-0.140625
486,0.579834,-0.054504395,-0.72540283,-0.375,1.453125,0.078125
487,0.5786133,-0.05621338,-0.7258911,-0.453125,2.28125,0.140625
488,0.5786133,-0.06085205,-0.72052,-0.515625,0.96875,-0.171875
489,0.5739746,-0.06524658,-0.7385864,-0.21875,0.390625,0.109375
490,0.5810547,-0.06573486,-0.7271118,-0.625,0.125,-0.21875
491,0.560791,-0.053527832,-0.72540283,-0.59375,-0.484375,-0.46875
492,0.57543945,-0.05303955,-0.7229614,-0.96875,-1.90625,-0.75
493,0.58154297,-0.066711426,-0.72735596,-0.984375,-0.6875,-0.484375
494,0.5805664,-0.058898926,-0.7300415,-0.78125,-0.171875,-0.328125
495,0.578125,-0.058654785,-0.7288208,-0.421875,0.65625,-0.140625
496,0.57788086,-0.051818848,-0.7173462,-0.296875,1.203125,-0.03125
497,0.5739746,-0.05670166,-0.73223877,-0.5625,2.203125,0.046875
498,0.57128906,-0.059143066,-0.7354126,-0.78125,1.4375,-0.234375
499,0.5722656,-0.054748535,-0.7324829,-0.75,1.9375,-0.015625
500,0.5769043,-0.06549072,-0.74102783,-0.46875,0.984375,-0.078125
501,0.5805664,-0.070617676,-0.7295532,-0.75,-0.28125,-0.140625
502,0.58374023,-0.07281494,-0.7246704,-0.9375,-0.28125,-0.28125
503,0.58032227,-0.07159424,-0.7214966,-0.890625,0.125,-0.578125
504,0.57788086,-0.06573486,-0.7229614,-0.671875,0.71875,-0.3125
505,0.5686035,-0.061584473,-0.72784424,-0.75,-1.0625,-0.609375
506,0.56762695,-0.066223145,-0.7190552,-0.46875,-0.125,-0.328125
507,0.5751953,-0.054992676,-0.72491455,-0.421875,2.03125,-0.015625
508,0.5720215,-0.055480957,-0.7305298,-0.453125,1.234375,0.015625
509,0.5734863,-0.05596924,-0.7307739,-0.609375,0.34375,0.0
510,0.5708008,-0.057678223,-0.73443604,-0.5,-0.296875,-0.046875
511,0.5698242,-0.05645752,-0.737854,-0.703125,-1.5625,-0.53125
512,0.5756836,-0.06964111,-0.72662354,0.140625,-0.703125,0.046875
513,0.5788574,-0.04815674,-0.72320557,0.3125,-3.234375,-0.40625
514,0.5756836,-0.05596924,-0.71051025,-0.015625,-1.203125,-0.265625
515,0.5793457,-0.05645752,-0.7227173,-0.71875,-0.046875,-0.296875
516,0.5822754,-0.05596924,-0.7271118,-0.53125,-0.421875,-0.609375
517,0.57958984,-0.059387207,-0.7280884,-0.5625,-1.15625,-0.75
518,0.5776367,-0.05670166,-0.7234497,0.046875,-0.203125,-0.28125
519,0.579834,-0.05670166,-0.71417236,-0.546875,0.46875,-0.390625
520,0.5805664,-0.050842285,-0.72198486,-0.46875,3.796875,0.25
521,0.5732422,-0.05621338,-0.71588135,-1.453125,5.171875,0.046875
522,0.5732422,-0.0569458,-0.7268677,-2.25,8.28125,0.21875
523,0.5576172,-0.053771973,-0.75665283,-2.03125,7.171875,0.078125
524,0.5527344,-0.061340332,-0.73883057,-1.53125,4.625,-0.21875
525,0.5529785,-0.054748535,-0.75177,-1.890625,1.78125,-0.96875
526,0.5563965,-0.059387207,-0.7564087,-1.59375,-0.875,-1.515625
527,0.55322266,-0.06109619,-0.74468994,-2.1875,-2.765625,-1.859375
528,0.55371094,-0.062316895,-0.7468872,-2.03125,-6.671875,-1.96875
529,0.5710449,-0.07867432,-0.7329712,-2.5,-8.203125,-1.9375
530,0.57592773,-0.0635376,-0.73272705,-2.515625,-7.828125,-1.703125
531,0.58740234,-0.07672119,-0.71954346,-2.0,-7.609375,-1.703125
532,0.5859375,-0.07891846,-0.70806885,-1.09375,-5.859375,-0.6875
533,0.60058594,-0.07550049,-0.7041626,-1.328125,-4.828125,-0.71875
534,0.59887695,-0.07720947,-0.7017212,-0.578125,-3.78125,-0.078125
535,0.5986328,-0.074035645,-0.68170166,0.640625,3.171875,0.953125
536,0.5991211,-0.07354736,-0.72052,0.6875,6.6875,1.625
537,0.5905762,-0.06719971,-0.722229,0.09375,1.953125,0.5625
538,0.5908203,-0.061828613,-0.72125244,0.15625,0.796875,0.5
539,0.5905762,-0.06695557,-0.706604,0.140625,0.203125,0.21875
540,0.58935547,-0.07086182,-0.71051025,-0.734375,0.828125,-0.484375
541,0.58740234,-0.070373535,-0.7070923,-0.78125,2.015625,-0.375
542,0.5842285,-0.062316895,-0.7312622,-1.03125,1.921875,-0.359375
543,0.57421875,-0.066223145,-0.70440674,-0.859375,1.75,-0.28125
544,0.5883789,-0.06890869,-0.723938,-0.578125,0.28125,-0.1875
545,0.5827637,-0.06939697,-0.704895,-0.484375,-0.703125,-0.109375
546,0.59350586,-0.07159424,-0.7136841,-0.5,-0.421875,-0.234375
547,0.5932617,-0.07086182,-0.7156372,-0.890625,-0.171875,-0.40625
548,0.57592773,-0.058898926,-0.71295166,-0.859375,-0.078125,-0.625
549,0.5878906,-0.07647705,-0.71661377,-0.859375,0.6875,-0.421875
550,0.5864258,-0.066467285,-0.70928955,-0.71875,-0.484375,-0.25
551,0.58447266,-0.06719971,-0.71221924,-0.796875,0.546875,-0.359375
552,0.5854492,-0.070373535,-0.710022,-0.5625,2.46875,-0.046875
553,0.57543945,-0.059631348,-0.72076416,-0.796875,1.234375,-0.203125
554,0.57250977,-0.06915283,-0.7151489,-0.484375,1.3125,-0.171875
555,0.5944824,-0.06695557,-0.7217407,-0.546875,1.828125,0.125
556,0.57470703,-0.06842041,-0.7197876,-0.375,1.28125,0.109375
557,0.57910156,-0.06866455,-0.73028564,-0.5,0.265625,0.0
558,0.57910156,-0.07208252,-0.7214966,-0.59375,0.703125,-0.109375
559,0.57910156,-0.06451416,-0.72906494,-0.921875,-0.1875,-0.25
560,0.5883789,-0.070617676,-0.7305298,-0.828125,-0.171875,-0.375
561,0.5673828,-0.06060791,-0.7300415,-0.734375,-0.421875,-0.3125
562,0.57421875,-0.0647583,-0.7131958,-0.6875,0.109375,-0.40625
563,0.5834961,-0.07110596,-0.71954346,-0.578125,1.0625,-0.125
564,0.5751953,-0.06842041,-0.7197876,-0.6875,0.46875,-0.328125
565,0.60180664,-0.085998535,-0.71661377,-0.625,2.0625,0.265625
566,0.5690918,-0.05670166,-0.7288208,-0.40625,1.4375,0.171875
567,0.58154297,-0.07647705,-0.7346802,-0.734375,1.5,-0.0625
568,0.57592773,-0.0725708,-0.7373657,-0.796875,2.078125,0.25
569,0.5800781,-0.06524658,-0.72979736,-0.578125,1.625,0.0625
570,0.5695801,-0.06524658,-0.7319946,-0.5,0.53125,-0.15625
571,0.57543945,-0.058898926,-0.73931885,-0.640625,1.59375,0.015625
572,0.57250977,-0.061828613,-0.74005127,-0.625,-0.34375,-0.21875
573,0.5715332,-0.06304932,-0.73760986,-0.75,0.390625,-0.21875
574,0.57006836,-0.061828613,-0.7420044,-0.703125,0.515625,-0.140625
575,0.56811523,-0.066711426,-0.72906494,-0.71875,0.0625,-0.0625
576,0.56591797,-0.058654785,-0.7354126,-0.75,-0.125,-0.34375
577,0.5720215,-0.062561035,-0.7349243,-0.609375,0.8125,-0.234375
578,0.57543945,-0.06793213,-0.73443604,-0.609375,0.6875,-0.203125
579,0.5595703,-0.06085205,-0.7346802,-0.59375,1.78125,-0.015625
580,0.5678711,-0.06109619,-0.7319946,-0.703125,-1.234375,-0.5
581,0.5756836,-0.06500244,-0.72857666,-0.546875,0.375,-0.203125
582,0.57055664,-0.05645752,-0.7305298,-0.765625,0.859375,-0.15625
583,0.5683594,-0.074523926,-0.7288208,-0.75,2.015625,0.046875
584,0.5654297,-0.062561035,-0.7317505,-0.640625,-0.125,-0.234375
585,0.5678711,-0.062072754,-0.73101807,-0.515625,0.921875,-0.109375
586,0.5686035,-0.06329346,-0.7444458,-0.5625,0.625,-0.09375
587,0.5605469,-0.05596924,-0.74005127,-0.578125,0.765625,-0.25
588,0.56396484,-0.051086426,-0.73516846,-0.75,0.71875,-0.21875
589,0.5593262,-0.054016113,-0.7373657,-0.578125,0.71875,-0.296875
590,0.56103516,-0.05230713,-0.7366333,-0.734375,-0.46875,-0.4375
591,0.5649414,-0.06549072,-0.73516846,-0.421875,0.46875,-0.015625
592,0.5695801,-0.062561035,-0.7383423,-0.53125,-0.59375,-0.328125
593,0.5751953,-0.06549072,-0.7385864,-0.609375,-0.3125,-0.296875
594,0.5751953,-0.070373535,-0.7407837,-0.375,2.453125,0.328125
595,0.5776367,-0.07525635,-0.74224854,-0.703125,1.0,-0.078125
596,0.5654297,-0.05718994,-0.72906494,-0.765625,-0.3125,-0.375
597,0.55615234,-0.054992676,-0.73931885,-0.578125,0.890625,0.078125
598,0.5600586,-0.062561035,-0.73809814,-1.078125,-0.046875,-0.375
599,0.57250977,-0.07281494,-0.7383423,-0.8125,0.421875,-0.34375
600,0.5656738,-0.06939697,-0.7383423,-0.59375,-0.40625,-0.296875
601,0.5678711,-0.066223145,-0.7324829,-0.453125,1.375,0.046875
602,0.5617676,-0.06695557,-0.7373657,-0.59375,0.734375,-0.234375
603,0.5649414,-0.0635376,-0.7420044,-0.390625,0.515625,-0.15625
604,0.56103516,-0.059631348,-0.7415161,-0.5,0.03125,-0.28125
605,0.5644531,-0.06304932,-0.74102783,-0.296875,0.984375,0.078125
606,0.5559082,-0.05645752,-0.73565674,-0.421875,-0.375,-0.40625
607,0.5644531,-0.06793213,-0.736145,-0.390625,0.703125,0.03125
608,0.56030273,-0.06402588,-0.74102783,-0.75,-0.421875,-0.265625
609,0.5673828,-0.059387207,-0.7288208,-0.671875,0.296875,-0.40625
610,0.564209,-0.06817627,-0.74346924,-0.6875,0.59375,-0.15625
611,0.5720215,-0.06915283,-0.73272705,-0.6875,0.453125,-0.21875
612,0.564209,-0.06744385,-0.73516846,-0.765625,-0.59375,-0.359375
613,0.57128906,-0.061340332,-0.7390747,-0.6875,0.578125,-0.15625
614,0.5632324,-0.0647583,-0.7424927,-0.765625,1.125,-0.140625
615,0.56689453,-0.05718994,-0.74420166,-0.640625,1.078125,-0.140625
616,0.55859375,-0.066467285,-0.74542236,-0.625,-0.359375,-0.046875
617,0.56225586,-0.055236816,-0.74664307,-0.640625,-0.21875,-0.1875
618,0.5593262,-0.05670166,-0.7329712,-0.6875,1.375,0.109375
619,0.55908203,-0.06060791,-0.7373657,-0.671875,1.21875,-0.140625
620,0.5600586,-0.062805176,-0.7420044,-0.671875,0.578125,-0.203125
621,0.5612793,-0.0635376,-0.7373657,-0.546875,1.265625,-0.015625
622,0.5656738,-0.062316895,-0.7451782,-0.796875,-0.28125,-0.46875
623,0.5583496,-0.06451416,-0.7300415,-0.640625,0.953125,0.015625
624,0.55444336,-0.05279541,-0.7473755,-1.046875,2.765625,0.09375
625,0.54785156,-0.055725098,-0.736145,-1.984375,3.703125,-0.671875
626,0.5488281,-0.06011963,-0.7451782,-2.140625,6.28125,-0.484375
627,0.546875,-0.061584473,-0.76641846,-1.15625,1.515625,-0.78125
628,0.5505371,-0.06890869,-0.7461548,-1.578125,-2.9375,-1.671875
629,0.5449219,-0.06793213,-0.7490845,-1.953125,-4.734375,-1.78125
630,0.56274414,-0.081604004,-0.7485962,-2.140625,-5.390625,-1.890625
631,0.5612793,-0.0725708,-0.73272705,-2.46875,-6.25,-1.828125
632,0.5686035,-0.07550049,-0.7373657,-2.234375,-6.828125,-1.234375
633,0.57421875,-0.07525635,-0.72442627,-1.390625,-7.984375,-1.046875
634,0.5876465,-0.08282471,-0.7124634,-0.9375,-7.59375,-0.71875
635,0.59155273,-0.077697754,-0.69732666,-0.734375,-3.484375,-0.296875
636,0.5961914,-0.082092285,-0.6995239,0.125,-0.546875,0.140625
637,0.59350586,-0.08331299,-0.7046509,0.328125,3.6875,1.0
638,0.59033203,-0.07330322,-0.73687744,0.171875,1.453125,0.5625
639,0.5900879,-0.07940674,-0.708313,0.28125,-2.65625,0.0625
640,0.60131836,-0.07476807,-0.70196533,-0.078125,-0.671875,0.4375
641,0.59472656,-0.0725708,-0.7012329,-0.484375,0.46875,0.015625
642,0.59814453,-0.070129395,-0.69903564,-1.109375,1.484375,-0.546875
643,0.5908203,-0.07354736,-0.7229614,-1.09375,2.5625,-0.171875
644,0.5883789,-0.07330322,-0.7149048,-1.15625,-0.0625,-0.546875
645,0.5949707,-0.08111572,-0.7178345,-0.421875,2.421875,0.390625
646,0.5822754,-0.06964111,-0.7185669,-0.15625,2.140625,0.265625
647,0.5830078,-0.07525635,-0.7217407,-0.421875,2.234375,-0.015625
648,0.5888672,-0.074035645,-0.7156372,-0.6875,2.453125,0.046875
649,0.579834,-0.06866455,-0.73101807,-0.625,1.375,-0.390625
650,0.5805664,-0.07696533,-0.7319946,-0.890625,0.84375,-0.265625
651,0.5876465,-0.08258057,-0.7271118,-0.765625,1.734375,-0.203125
652,0.56640625,-0.066711426,-0.73150635,-0.609375,0.515625,-0.15625
653,0.5866699,-0.077697754,-0.7329712,-0.53125,-0.140625,-0.1875
654,0.57714844,-0.06866455,-0.7180786,-0.765625,-0.40625,-0.453125
655,0.5703125,-0.06524658,-0.7180786,-0.8125,-0.328125,-0.390625
656,0.5974121,-0.0869751,-0.7227173,-0.71875,0.65625,-0.3125
657,0.5756836,-0.07354736,-0.723938,-0.796875,1.125,-0.28125
658,0.56762695,-0.06744385,-0.7329712,-0.25,0.84375,-0.0625
659,0.5739746,-0.07525635,-0.7227173,-0.578125,0.34375,-0.40625
660,0.58813477,-0.08526611,-0.72613525,-0.875,-0.234375,-0.484375
661,0.57666016,-0.078186035,-0.7268677,-0.59375,0.546875,-0.15625
662,0.5720215,-0.061584473,-0.73028564,-0.578125,0.78125,-0.0625
663,0.5720215,-0.062805176,-0.737854,-0.78125,0.71875,-0.046875
664,0.5739746,-0.07086182,-0.7263794,-0.546875,0.578125,-0.109375
665,0.57055664,-0.07281494,-0.7280884,-0.4375,1.515625,0.109375
666,0.5727539,-0.06427002,-0.7346802,-0.625,1.453125,-0.140625
667,0.57250977,-0.066467285,-0.7295532,-0.8125,1.484375,-0.171875
668,0.57373047,-0.06964111,-0.7337036,-0.96875,0.515625,-0.4375
669,0.57177734,-0.07281494,-0.72906494,-1.234375,-0.4375,-0.5
670,0.5817871,-0.082092285,-0.7324829,-0.9375,-1.046875,-0.40625
671,0.5749512,-0.07501221,-0.7241821,-0.5,0.34375,-0.234375
672,0.578125,-0.07550049,-0.7305298,-0.5625,-0.828125,-0.40625
673,0.5695801,-0.07183838,-0.7180786,-0.734375,1.921875,-0.125
674,0.56591797,-0.066711426,-0.7268677,-0.46875,2.3125,0.09375
675,0.56762695,-0.06890869,-0.7402954,-0.671875,-0.296875,-0.15625
676,0.5710449,-0.06695557,-0.7168579,-0.40625,0.59375,-0.21875
677,0.58251953,-0.08428955,-0.7349243,-0.78125,1.6875,-0.171875
678,0.5788574,-0.0791626,-0.737854,-0.734375,1.40625,-0.21875
679,0.56518555,-0.07550049,-0.739563,-0.515625,0.1875,-0.203125
680,0.56152344,-0.0713501,-0.72491455,-0.234375,0.453125,0.078125
681,0.57592773,-0.08258057,-0.7307739,-0.125,1.25,0.265625
682,0.55444336,-0.058654785,-0.7293091,-0.671875,1.625,0.078125
683,0.57128906,-0.08355713,-0.72735596,-0.453125,2.09375,0.046875
684,0.5617676,-0.070617676,-0.7527466,-0.90625,0.40625,-0.390625
685,0.56396484,-0.07183838,-0.7385864,-1.015625,-0.875,-0.515625
686,0.56933594,-0.07989502,-0.7383423,-0.609375,-0.53125,-0.375
687,0.55688477,-0.058410645,-0.74542236,-0.34375,0.234375,0.03125
688,0.5571289,-0.07208252,-0.73150635,-0.34375,0.171875,-0.0625
689,0.5595703,-0.05718994,-0.7359009,-0.15625,2.375,0.296875
690,0.5583496,-0.061828613,-0.7349243,-0.4375,1.953125,0.15625
691,0.5576172,-0.066223145,-0.75494385,-0.78125,2.1875,-0.265625
692,0.5644531,-0.06329346,-0.73809814,-0.59375,0.3125,-0.125
693,0.5576172,-0.06915283,-0.74298096,-0.4375,-0.09375,-0.1875
694,0.55737305,-0.06939697,-0.73760986,-0.234375,-0.421875,-0.21875
695,0.5539551,-0.06011963,-0.74346924,-0.4375,0.265625,-0.078125
696,0.5534668,-0.062316895,-0.74053955,-0.59375,3.140625,0.1875
697,0.55200195,-0.057922363,-0.7595825,-0.5,0.125,-0.015625
698,0.56225586,-0.070129395,-0.74176025,-0.890625,0.265625,-0.453125
699,0.55859375,-0.06866455,-0.7493286,-0.875,1.109375,-0.015625
700,0.5566406,-0.058898926,-0.7407837,-0.484375,-0.765625,-0.359375
701,0.5541992,-0.0635376,-0.7481079,-0.578125,0.796875,0.0
702,0.54589844,-0.0635376,-0.7366333,-0.4375,0.296875,-0.234375
703,0.5632324,-0.0725708,-0.75445557,-0.546875,0.96875,-0.046875
704,0.55126953,-0.047668457,-0.74420166,-0.6875,0.8125,-0.296875
705,0.5473633,-0.06866455,-0.7424927,-0.96875,0.171875,-0.5
706,0.5559082,-0.07159424,-0.7451782,-0.984375,0.671875,-0.328125
707,0.5612793,-0.066223145,-0.7449341,-0.953125,-0.375,-0.4375
708,0.5539551,-0.066223145,-0.7383423,-0.859375,-1.59375,-0.46875
709,0.55200195,-0.05230713,-0.73809814,-0.21875,1.359375,0.046875
710,0.5505371,-0.062561035,-0.7439575,-0.5,1.734375,-0.09375
711,0.5595703,-0.070617676,-0.7463989,-0.765625,1.515625,-0.140625
712,0.5620117,-0.07110596,-0.7542114,-0.796875,0.640625,-0.234375
713,0.55615234,-0.05596924,-0.755188,-0.765625,0.65625,-0.140625
714,0.546875,-0.058410645,-0.756897,-0.859375,0.078125,-0.203125
715,0.5444336,-0.055236816,-0.75860596,-0.375,-0.53125,-0.140625
716,0.5439453,-0.05279541,-0.74713135,-0.609375,-0.515625,-0.4375
717,0.5456543,-0.050842285,-0.7424927,-0.765625,-0.15625,-0.53125
718,0.55249023,-0.046447754,-0.74664307,-0.515625,0.734375,-0.3125
719,0.548584,-0.05303955,-0.75250244,-0.53125,1.28125,0.015625
720,0.546875,-0.062316895,-0.7407837,-0.609375,0.359375,0.015625
721,0.548584,-0.062316895,-0.75201416,-0.4375,0.609375,0.078125
722,0.55688477,-0.062072754,-0.7468872,-0.671875,-0.5,-0.1875
723,0.54907227,-0.06719971,-0.74664307,-0.71875,1.203125,-0.234375
724,0.5510254,-0.05718994,-0.7498169,-0.75,3.203125,-0.140625
725,0.54663086,-0.062072754,-0.755188,-0.953125,2.109375,-0.28125
726,0.5476074,-0.06304932,-0.7546997,-0.78125,1.71875,-0.15625
727,0.5402832,-0.051818848,-0.74835205,-0.828125,2.796875,-0.1875
728,0.5371094,-0.059387207,-0.76446533,-1.03125,2.015625,-0.578125
729,0.532959,-0.05987549,-0.7617798,-1.25,-0.140625,-0.96875
730,0.5373535,-0.070373535,-0.76104736,-1.484375,-1.4375,-1.171875
731,0.54589844,-0.069885254,-0.75494385,-1.6875,-2.28125,-1.546875
732,0.5385742,-0.070373535,-0.7571411,-1.625,-2.875,-1.53125
733,0.5456543,-0.074035645,-0.74884033,-1.40625,-3.609375,-1.53125
734,0.54833984,-0.06719971,-0.7510376,-1.515625,-2.484375,-1.453125
735,0.5517578,-0.06817627,-0.74786377,-0.84375,-3.5625,-1.25
736,0.55981445,-0.07330322,-0.7427368,-1.421875,-5.96875,-1.34375
737,0.56689453,-0.073791504,-0.73931885,-1.140625,-5.46875,-0.953125
738,0.5744629,-0.074523926,-0.7283325,-1.109375,-4.140625,-0.734375
739,0.58374023,-0.07940674,-0.7312622,-1.03125,-4.078125,-0.5625
740,0.5827637,-0.07965088,-0.72540283,-0.625,-4.71875,-0.71875
741,0.5793457,-0.078186035,-0.73638916,-0.609375,-6.71875,-1.0625
742,0.59155273,-0.07232666,-0.6980591,-0.140625,-3.5625,-0.125
743,0.59765625,-0.07965088,-0.7053833,-0.390625,-0.6875,-0.1875
744,0.5695801,-0.08502197,-0.7058716,-0.390625,-0.4375,-0.015625
745,0.6008301,-0.073791504,-0.69366455,0.03125,4.046875,1.15625
746,0.5854492,-0.07574463,-0.7151489,-0.96875,7.0625,1.375
747,0.5864258,-0.06964111,-0.7312622,-1.515625,2.703125,0.40625
748,0.5749512,-0.07305908,-0.71954346,-0.734375,2.875,0.796875
749,0.58032227,-0.070617676,-0.7271118,-1.046875,0.53125,0.375
750,0.58251953,-0.07208252,-0.736145,-0.546875,0.171875,-0.171875
751,0.5871582,-0.070373535,-0.72906494,-0.875,0.15625,-0.4375
752,0.5805664,-0.07281494,-0.7210083,-0.984375,0.6875,-0.46875
753,0.57177734,-0.0725708,-0.71661377,-0.875,-0.03125,-0.3125
754,0.5834961,-0.078430176,-0.71759033,-0.734375,0.5625,-0.234375
755,0.5817871,-0.06817627,-0.73760986,-0.71875,0.171875,-0.140625
756,0.5839844,-0.07110596,-0.72442627,-1.09375,-2.015625,-0.625
757,0.59106445,-0.070617676,-0.704895,-0.703125,-1.296875,-0.265625
758,0.5876465,-0.070373535,-0.72735596,-0.875,0.40625,-0.4375
759,0.5839844,-0.07696533,-0.694397,-0.5625,1.765625,-0.34375
760,0.5788574,-0.07647705,-0.6890259,-0.25,3.3125,-0.109375
761,0.57373047,-0.073791504,-0.7373657,-0.328125,5.59375,0.421875
762,0.5678711,-0.0725708,-0.73394775,-0.484375,1.734375,0.0
763,0.56103516,-0.07232666,-0.7241821,-0.5625,1.375,-0.171875
