sample_no,accel_x,accel_y,accel_z,gyro_x,gyro_y,gyro_z
0,-0.009277344,-0.99176025,0.09112549,-1.125,0.03125,-0.484375
1,-0.0021972656,-0.99005127,0.093811035,-0.859375,-1.5625,-0.171875
2,-0.0021972656,-0.9920044,0.10675049,-1.421875,-0.828125,-0.625
3,-0.0087890625,-0.9981079,0.10845947,-0.25,-0.8125,-0.046875
4,0.0009765625,-0.97906494,0.1026001,-0.265625,-0.65625,0.046875
5,0.0026855469,-0.9890747,0.10845947,-0.296875,-1.328125,-0.109375
6,-0.007080078,-0.9939575,0.10845947,0.078125,-1.265625,0.15625
7,-0.00048828125,-0.989563,0.11260986,-0.125,-0.71875,0.328125
8,-0.0031738281,-0.98883057,0.109191895,-0.515625,-0.90625,-0.125
9,-0.0041503906,-0.9927368,0.10797119,0.46875,-0.984375,-0.046875
10,-0.001953125,-0.9927368,0.10455322,0.59375,-0.90625,0.140625
11,-0.00390625,-0.991272,0.10797119,0.453125,-0.75,-0.125
12,-0.0043945312,-0.9898071,0.11212158,0.953125,-0.6875,-0.046875
13,-0.0034179688,-0.9885864,0.109680176,0.609375,-0.328125,0.046875
14,-0.0014648438,-0.9854126,0.105529785,0.1875,-0.40625,-0.1875
15,0.0017089844,-0.99713135,0.1026001,0.828125,-0.96875,-0.109375
16,-0.0026855469,-0.98760986,0.11016846,0.703125,-0.796875,-0.078125
17,-0.009521484,-0.9885864,0.10748291,1.296875,-0.578125,0.109375
18,0.0043945312,-0.9898071,0.09967041,0.734375,-0.546875,0.203125
19,-0.009765625,-0.99346924,0.10748291,0.34375,-0.84375,0.125
20,-0.0009765625,-0.9932251,0.10479736,1.046875,-0.546875,0.21875
21,-0.0056152344,-0.9819946,0.09674072,0.09375,-0.609375,0.234375
22,-0.006591797,-0.98516846,0.10089111,-1.21875,-0.375,-0.421875
23,-0.011962891,-0.9907837,0.11260986,-0.375,-0.53125,-0.03125
24,-0.0017089844,-0.99176025,0.1104126,1.03125,-0.640625,-0.1875
25,-0.012451172,-0.9883423,0.10699463,0.484375,-0.484375,-0.703125
26,-0.008300781,-0.9939575,0.105041504,0.46875,-0.859375,-0.0625
27,-0.0034179688,-0.9854126,0.105773926,0.53125,-0.25,-0.078125
28,-0.0126953125,-0.9859009,0.10284424,-0.265625,-0.265625,-0.28125
29,-0.0061035156,-0.9920044,0.10406494,0.390625,-0.4375,0.21875
30,-0.0021972656,-0.991272,0.10992432,0.84375,-0.625,0.265625
31,-0.009765625,-0.98931885,0.10699463,0.125,-0.546875,0.234375
32,-0.010009766,-0.9961548,0.10601807,0.09375,-0.8125,0.28125
33,-0.001953125,-0.991272,0.113586426,0.125,-0.703125,0.21875
34,-0.0029296875,-0.9907837,0.11236572,-0.34375,-0.921875,0.09375
35,-0.010253906,-0.9837036,0.116760254,-0.328125,-0.671875,0.0625
36,-0.008300781,-0.98687744,0.11529541,-0.390625,-0.296875,0.140625
37,-0.0078125,-0.9976196,0.11798096,-0.484375,0.140625,0.25
38,-0.013916016,-0.9885864,0.12164307,0.03125,0.9375,0.234375
39,-0.013916016,-0.9885864,0.11456299,-0.6875,0.6875,-0.046875
40,-0.0073242188,-0.98638916,0.121154785,0.0,0.46875,0.0
41,-0.00390625,-0.98565674,0.11065674,1.5,1.015625,0.109375
42,0.0014648438,-0.9807739,0.11212158,-0.1875,-0.3125,0.375
43,-0.004638672,-0.9841919,0.11773682,-0.328125,0.515625,-0.421875
44,-0.009033203,-0.9976196,0.1260376,2.53125,-0.078125,0.421875
45,0.0029296875,-0.98150635,0.1104126,1.140625,-0.046875,0.125
46,-0.0012207031,-0.9956665,0.113098145,0.953125,-0.1875,0.078125
47,-0.0031738281,-1.0029907,0.1182251,1.109375,-0.375,0.34375
48,0.0014648438,-0.9866333,0.11212158,0.265625,-0.4375,0.375
49,-0.0068359375,-0.98883057,0.1182251,0.703125,0.25,0.21875
50,-0.010498047,-0.9907837,0.11114502,1.34375,-0.703125,0.5625
51,-0.0031738281,-0.9866333,0.11407471,1.0,-0.578125,0.3125
52,-0.004638672,-0.9956665,0.11114502,1.0,-0.59375,0.296875
53,0.0017089844,-0.98809814,0.117492676,0.515625,-0.6875,0.234375
54,0.0007324219,-0.98760986,0.11407471,1.0,-0.328125,0.203125
55,-0.00024414062,-0.98321533,0.10601807,0.734375,-0.640625,0.359375
56,-0.0034179688,-0.99224854,0.11456299,0.6875,-0.53125,0.25
57,0.00048828125,-0.99005127,0.1104126,1.203125,-0.421875,0.28125
58,-0.005859375,-0.9805298,0.11065674,1.046875,-0.578125,0.140625
59,-0.0021972656,-0.9859009,0.109436035,0.71875,-0.453125,0.03125
60,-0.0061035156,-0.9990845,0.10845947,1.203125,-0.359375,0.390625
61,0.006591797,-0.9817505,0.10406494,1.234375,-0.28125,0.140625
62,-0.0031738281,-0.9937134,0.10821533,0.0,-1.359375,0.265625
63,0.00048828125,-0.99053955,0.10455322,0.765625,-0.5,0.171875
64,-0.0061035156,-0.9949341,0.109680176,1.3125,-0.5625,0.40625
65,0.0,-0.98809814,0.101867676,0.015625,-0.734375,0.09375
66,0.0017089844,-0.9939575,0.10748291,0.203125,-0.953125,0.0625
67,0.0014648438,-0.9924927,0.10992432,0.0625,-0.921875,-0.015625
68,0.0034179688,-0.9890747,0.10455322,-0.015625,-0.84375,0.03125
69,-0.0078125,-0.98931885,0.11065674,-0.546875,-0.625,-0.21875
70,-0.0063476562,-0.98809814,0.109436035,0.296875,-0.71875,-0.078125
71,-0.0036621094,-0.987854,0.11212158,-0.8125,-0.734375,-0.203125
72,-0.0021972656,-0.98883057,0.108947754,-0.265625,-0.875,-0.28125
73,-0.005859375,-0.9866333,0.11798096,-0.28125,-1.09375,-0.09375
74,0.005126953,-0.9890747,0.109436035,-0.265625,-1.140625,-0.015625
75,-0.007080078,-0.9885864,0.11602783,-0.25,-1.03125,-0.15625
76,-0.008300781,-0.98394775,0.11602783,-0.046875,-0.84375,0.171875
77,-0.0024414062,-0.9920044,0.117004395,-0.203125,-1.0,0.078125
78,-0.005126953,-0.9866333,0.11187744,-0.453125,-1.125,-0.0625
79,-0.018798828,-0.9873657,0.13580322,0.75,-1.328125,0.171875
80,-0.016113281,-0.98809814,0.14556885,0.953125,-1.015625,0.515625
81,-0.011474609,-0.9854126,0.12774658,1.890625,-1.21875,0.625
82,-0.018310547,-0.9873657,0.12042236,0.578125,-1.59375,0.59375
83,-0.025390625,-0.98443604,0.13800049,0.546875,-1.046875,0.34375
84,-0.024169922,-0.99298096,0.1296997,0.734375,-0.5625,0.296875
85,-0.017333984,-0.98638916,0.1326294,-0.234375,-1.03125,0.328125
86,-0.010253906,-0.98321533,0.13604736,-0.71875,-0.421875,-0.28125
87,-0.025390625,-0.991272,0.13946533,-0.171875,-1.125,0.34375
88,-0.012939453,-0.98028564,0.13531494,0.984375,-1.28125,0.484375
89,-0.014160156,-0.9885864,0.1326294,0.6875,-0.609375,0.390625
90,-0.0234375,-0.9873657,0.14093018,0.3125,-0.984375,0.203125
91,-0.015136719,-0.9883423,0.13433838,1.078125,-1.171875,0.25
92,-0.010253906,-0.987854,0.13531494,0.078125,-0.84375,-0.28125
93,-0.020507812,-0.9841919,0.14190674,0.6875,-0.484375,-0.171875
94,-0.016845703,-0.9834595,0.13653564,0.984375,-0.109375,0.140625
95,-0.018554688,-0.986145,0.12921143,0.453125,-0.1875,0.125
96,-0.010986328,-0.9846802,0.1338501,0.875,-0.390625,0.15625
97,-0.011230469,-0.99102783,0.14385986,0.078125,-0.375,0.4375
98,-0.014404297,-0.9817505,0.13946533,0.84375,0.046875,0.28125
99,-0.016601562,-0.98687744,0.13165283,0.703125,-0.25,0.515625
100,-0.01171875,-0.9837036,0.13336182,0.703125,-0.328125,0.546875
101,-0.011474609,-0.9859009,0.13580322,0.34375,-0.4375,0.28125
102,-0.014404297,-0.9859009,0.13653564,0.3125,-0.421875,0.0625
103,-0.015136719,-0.9873657,0.13604736,0.3125,-0.28125,0.265625
104,-0.0061035156,-0.98638916,0.14019775,-0.390625,-0.59375,-0.125
105,-0.017333984,-0.98883057,0.14068604,-0.1875,-0.296875,0.109375
106,-0.018798828,-0.98809814,0.12872314,-0.6875,0.390625,0.15625
107,-0.011230469,-0.9800415,0.144104,-1.515625,0.0,0.171875
108,-0.013916016,-0.9920044,0.1453247,-1.71875,0.765625,-0.40625
109,-0.01977539,-0.9907837,0.15045166,0.203125,-0.125,0.46875
110,-0.0056152344,-0.98150635,0.14556885,0.953125,0.46875,0.390625
111,-0.018554688,-0.9859009,0.14117432,-0.515625,-0.171875,-0.21875
112,-0.01171875,-0.9873657,0.14971924,1.296875,-0.40625,0.4375
113,-0.0031738281,-0.97491455,0.14239502,1.234375,-0.421875,0.703125
114,-0.010986328,-0.9783325,0.13922119,0.25,-0.453125,0.09375
115,-0.026855469,-0.9873657,0.14459229,1.71875,0.671875,0.3125
116,-0.0087890625,-0.9780884,0.13433838,1.390625,0.171875,0.671875
117,-0.0063476562,-0.9849243,0.1404419,1.28125,0.0,0.09375
118,-0.0073242188,-0.98272705,0.13897705,1.953125,0.078125,0.234375
119,-0.012207031,-0.98687744,0.13702393,1.640625,-0.125,0.390625
120,-0.006591797,-0.99102783,0.13800049,1.703125,0.171875,0.09375
121,-0.006591797,-0.9902954,0.13409424,1.3125,0.078125,0.328125
122,-0.0063476562,-0.99346924,0.13214111,1.046875,-0.171875,-0.109375
123,-0.011962891,-0.9937134,0.13458252,1.71875,-0.078125,0.03125
124,-0.004638672,-0.9890747,0.13043213,1.9375,-0.453125,0.3125
125,-0.0043945312,-0.99664307,0.12579346,1.046875,-0.390625,0.203125
126,-0.014160156,-0.9859009,0.12896729,1.6875,-0.703125,0.15625
127,0.005126953,-0.9795532,0.12799072,2.53125,-0.46875,0.28125
128,-0.014892578,-0.9907837,0.12408447,0.703125,-0.3125,0.3125
129,-0.0041503906,-0.9819946,0.1194458,0.609375,-0.453125,0.203125
130,-0.012939453,-0.9920044,0.12530518,1.828125,-0.34375,0.53125
131,-0.004638672,-0.9866333,0.117248535,0.890625,-0.21875,0.421875
132,-0.0034179688,-0.99346924,0.11920166,0.84375,-0.484375,0.359375
133,-0.0073242188,-0.99005127,0.12017822,0.78125,-0.921875,0.265625
134,-0.0007324219,-0.98394775,0.12213135,1.4375,-0.421875,0.25
135,-0.009521484,-0.98223877,0.117248535,0.0,-0.28125,0.0625
136,-0.012207031,-0.9873657,0.117004395,1.4375,-0.78125,0.390625
137,-0.004638672,-0.9902954,0.113586426,0.359375,-0.59375,0.171875
138,-0.0043945312,-0.9871216,0.11627197,0.546875,-0.828125,0.28125
139,-0.0048828125,-0.98687744,0.11627197,-0.015625,-0.609375,0.203125
140,-0.0024414062,-0.9907837,0.11431885,0.046875,-0.765625,0.171875
141,-0.0061035156,-0.9927368,0.121154785,-0.078125,-0.734375,0.125
142,-0.0068359375,-0.9841919,0.11993408,-0.359375,-0.640625,0.21875
143,-0.009521484,-0.9927368,0.11627197,-0.71875,-0.8125,0.0625
144,-0.005126953,-0.9841919,0.121154785,0.109375,-0.765625,0.125
145,-0.0029296875,-0.98687744,0.12042236,-0.75,-0.609375,-0.125
146,-0.008056641,-0.9920044,0.11846924,-0.46875,-1.234375,-0.078125
147,-0.008300781,-0.98687744,0.12432861,-0.046875,-0.4375,-0.25
148,-0.012207031,-0.9924927,0.1260376,-0.5625,-1.390625,0.09375
149,0.0009765625,-0.98101807,0.12579346,-1.546875,-0.71875,-0.09375
150,-0.008056641,-0.99468994,0.14337158,-0.34375,-1.296875,0.03125
151,-0.008544922,-0.9824829,0.1260376,0.34375,-0.796875,0.1875
152,-0.0056152344,-0.99102783,0.13409424,-0.78125,-0.796875,-0.171875
153,-0.010253906,-0.9866333,0.13604736,-0.265625,-0.984375,-0.078125
154,-0.0056152344,-0.97906494,0.13336182,0.734375,-0.96875,0.40625
155,-0.0029296875,-0.98150635,0.13140869,-0.90625,-0.640625,-0.25
156,-0.01171875,-0.987854,0.13702393,0.265625,-0.796875,0.0625
157,-0.0048828125,-0.9841919,0.12994385,0.546875,-0.9375,-0.078125
158,-0.010986328,-0.98638916,0.12823486,0.328125,-0.4375,0.078125
159,-0.012207031,-0.98565674,0.13970947,0.34375,-1.0,-0.015625
160,-0.013671875,-0.991272,0.13482666,0.34375,-0.609375,-0.046875
161,-0.008300781,-0.9859009,0.13897705,0.265625,-0.28125,0.03125
162,-0.011474609,-0.97906494,0.1362915,0.875,-0.5625,0.0
163,-0.0087890625,-0.9866333,0.13092041,1.046875,-0.5,-0.125
164,-0.0078125,-0.9871216,0.13458252,0.390625,-0.90625,0.078125
165,-0.013183594,-0.9854126,0.13433838,0.453125,-0.296875,0.0
166,-0.011474609,-0.9902954,0.13336182,-0.109375,-0.515625,0.09375
167,-0.0021972656,-0.97906494,0.13775635,1.015625,-0.53125,0.171875
168,-0.014160156,-0.99542236,0.13409424,0.5,-0.28125,0.34375
169,-0.0043945312,-0.9817505,0.12628174,-0.875,-0.5,0.265625
170,-0.016845703,-0.9871216,0.13824463,-0.484375,-0.625,-0.234375
171,-0.016845703,-0.989563,0.1404419,1.15625,-0.875,0.53125
172,-0.0056152344,-0.9793091,0.13922119,0.421875,-0.1875,-0.046875
173,-0.0087890625,-0.9902954,0.13238525,0.390625,-0.734375,-0.109375
174,-0.016601562,-0.98687744,0.13775635,0.953125,-0.984375,0.28125
175,-0.008300781,-0.98321533,0.13360596,0.453125,-0.46875,0.203125
176,-0.009033203,-0.98638916,0.13043213,0.328125,-0.6875,-0.0625
177,-0.0078125,-0.9834595,0.14141846,0.640625,-0.265625,0.234375
178,-0.004638672,-0.9849243,0.13702393,0.15625,-0.515625,0.28125
179,-0.005859375,-0.98809814,0.13165283,0.296875,-0.578125,-0.015625
180,-0.012207031,-0.9915161,0.14068604,0.375,-0.296875,0.1875
181,-0.011474609,-0.9944458,0.14483643,-0.203125,-0.6875,0.171875
182,-0.0068359375,-0.9834595,0.13360596,0.0625,-0.125,0.125
183,-0.005126953,-0.98809814,0.14019775,0.109375,-0.296875,0.234375
184,-0.009765625,-0.98883057,0.14141846,-0.640625,-0.046875,0.296875
185,-0.00390625,-0.9846802,0.1404419,-0.046875,0.15625,0.28125
186,-0.005859375,-0.9873657,0.13677979,0.125,0.328125,0.390625
187,-0.009277344,-0.98272705,0.14117432,0.546875,-0.21875,0.203125
188,-0.005859375,-0.9885864,0.14117432,1.4375,-0.234375,0.640625
189,-0.009033203,-0.9890747,0.1404419,0.609375,0.609375,0.171875
190,-0.005126953,-0.9854126,0.13677979,1.0,-0.078125,0.640625
191,-0.013671875,-0.98150635,0.13604736,0.375,0.28125,0.015625
192,-0.009521484,-0.99176025,0.14263916,2.328125,0.046875,0.546875
193,0.0009765625,-0.9819946,0.13360596,1.5625,0.59375,0.375
194,-0.0009765625,-0.9873657,0.12701416,0.671875,0.03125,0.234375
195,-0.008544922,-0.987854,0.13311768,1.234375,-0.640625,0.109375
196,-0.0034179688,-0.986145,0.12994385,1.65625,-0.03125,0.40625
197,-0.0026855469,-0.98272705,0.1416626,1.25,0.171875,0.0625
198,-0.0073242188,-0.98565674,0.1338501,1.84375,0.03125,0.5
199,0.0026855469,-0.9846802,0.12921143,1.453125,-0.25,0.296875
200,-0.0029296875,-0.98443604,0.124816895,1.078125,-0.0625,-0.0625
201,-0.004638672,-0.9883423,0.12408447,1.296875,0.234375,0.28125
202,0.001953125,-0.9859009,0.12432861,1.359375,-0.78125,0.21875
203,0.0029296875,-0.989563,0.12310791,1.4375,-0.171875,0.25
204,0.0,-0.9866333,0.11871338,1.15625,-0.484375,0.25
205,-0.004638672,-0.99224854,0.12213135,1.28125,-0.140625,0.21875
206,0.005126953,-0.98760986,0.12506104,1.828125,-0.234375,0.359375
207,-0.0017089844,-0.989563,0.11871338,1.234375,-0.421875,0.125
208,-0.00024414062,-0.99420166,0.11407471,1.40625,-0.75,0.21875
209,0.0061035156,-0.98565674,0.12042236,2.25,-0.125,0.34375
210,-0.004638672,-0.9883423,0.11529541,1.046875,-0.71875,0.375
211,0.0026855469,-0.9883423,0.11480713,0.78125,-0.34375,0.15625
212,-0.0036621094,-0.9963989,0.1182251,1.953125,-0.46875,0.21875
213,0.0034179688,-0.97784424,0.109191895,0.96875,-0.546875,0.34375
214,0.0021972656,-0.98931885,0.11114502,0.875,-0.5625,0.09375
215,-0.0048828125,-0.99468994,0.1116333,0.8125,-0.546875,0.203125
216,0.00390625,-0.9885864,0.113098145,1.46875,-0.390625,0.28125
217,0.010009766,-0.9927368,0.108947754,-0.359375,-0.25,-0.046875
218,-0.01171875,-0.989563,0.10821533,1.234375,-0.703125,0.296875
219,0.0041503906,-0.9871216,0.10675049,-0.015625,-0.671875,0.109375
220,-0.0029296875,-0.9859009,0.11138916,0.125,-0.5625,-0.0625
221,0.00048828125,-0.99005127,0.11553955,0.40625,-0.828125,0.296875
222,-0.0056152344,-0.99053955,0.113098145,-0.359375,-0.921875,0.015625
223,-0.001953125,-0.9873657,0.113586426,-0.375,-0.78125,0.03125
224,-0.0075683594,-0.9837036,0.11187744,-0.59375,-0.734375,0.0
225,0.0,-0.99102783,0.11773682,-0.171875,-1.109375,-0.171875
226,0.0056152344,-0.99005127,0.11480713,-0.03125,-0.671875,-0.3125
227,-0.005126953,-0.9902954,0.12017822,-0.171875,-0.828125,-0.046875
228,-0.0009765625,-0.9890747,0.11651611,0.578125,-0.9375,-0.046875
229,-0.004638672,-0.991272,0.11260986,-0.640625,-0.546875,0.0
230,-0.0053710938,-0.98565674,0.109680176,-0.984375,-0.71875,-0.0625
231,-0.007080078,-0.99298096,0.12677002,-0.484375,-0.90625,-0.34375
232,-0.0063476562,-0.9944458,0.12628174,0.15625,-0.65625,0.09375
233,-0.0014648438,-0.98565674,0.116760254,-0.625,-0.828125,-0.21875
234,-0.0034179688,-0.9956665,0.12164307,-0.546875,-0.765625,-0.1875
235,-0.0075683594,-0.99224854,0.12628174,0.1875,-1.03125,0.140625
236,0.0017089844,-0.9824829,0.11871338,-0.296875,-1.0,0.0
237,-0.008300781,-0.9859009,0.13604736,-0.4375,-0.609375,-0.234375
238,-0.005859375,-0.9939575,0.12677002,0.375,-0.953125,0.03125
239,-0.001953125,-0.97979736,0.12945557,-0.53125,-0.765625,-0.0625
240,-0.0061035156,-0.9920044,0.128479,-0.109375,-0.625,-0.265625
241,-0.011962891,-0.98394775,0.12677002,-0.140625,-0.9375,-0.0625
242,-0.008300781,-0.98760986,0.13165283,-0.171875,-0.703125,-0.015625
243,-0.0075683594,-0.99176025,0.12799072,-0.015625,-0.71875,0.0
244,-0.0107421875,-0.986145,0.13238525,-0.109375,-0.734375,-0.046875
245,-0.0063476562,-0.9846802,0.1362915,0.140625,-0.6875,0.015625
246,-0.0041503906,-0.99102783,0.12994385,0.21875,-0.609375,0.0625
247,-0.008544922,-0.9873657,0.13360596,-0.015625,-1.078125,0.03125
248,-0.0012207031,-0.9793091,0.14215088,0.828125,-0.75,0.046875
249,-0.0073242188,-0.986145,0.1296997,0.546875,-0.6875,0.28125
250,-0.0053710938,-0.98223877,0.1260376,-0.453125,-0.578125,0.34375
251,-0.010498047,-0.989563,0.14093018,-0.5,-0.453125,-0.078125
252,-0.018554688,-0.987854,0.1362915,1.3125,-0.5625,0.53125
253,-0.00390625,-0.97491455,0.13238525,1.015625,-0.171875,0.15625
254,-0.009277344,-0.9883423,0.13165283,0.78125,-0.90625,0.34375
255,-0.009033203,-0.989563,0.13848877,1.125,-0.875,0.09375
256,-0.004638672,-0.97906494,0.1326294,0.609375,-0.65625,0.21875
257,-0.013916016,-0.9890747,0.13116455,0.0,-0.6875,0.171875
258,-0.008300781,-0.9883423,0.13873291,0.703125,-0.4375,0.140625
259,-0.008544922,-0.98638916,0.13482666,0.4375,-0.53125,0.171875
260,-0.00390625,-0.98809814,0.13433838,-0.03125,-0.6875,0.046875
261,-0.01171875,-0.9854126,0.13458252,0.359375,-0.1875,0.109375
262,-0.0024414062,-0.98883057,0.13311768,0.234375,-0.5625,0.125
263,-0.005126953,-0.98443604,0.1350708,0.15625,-0.234375,-0.0625
264,-0.0126953125,-0.987854,0.14068604,0.015625,-0.234375,0.125
265,-0.0029296875,-0.986145,0.13775635,0.125,-0.34375,0.328125
266,-0.0036621094,-0.99420166,0.13653564,0.0,-0.34375,-0.015625
267,-0.0053710938,-0.99053955,0.13702393,0.3125,-0.203125,0.03125
268,-0.011230469,-0.9849243,0.1428833,-0.140625,-0.4375,0.078125
269,-0.012451172,-0.99053955,0.14678955,0.71875,-0.09375,0.5
270,0.0,-0.9932251,0.13653564,2.21875,0.671875,0.59375
271,-0.009033203,-0.9829712,0.13702393,2.15625,0.71875,0.9375
272,-0.0078125,-0.9746704,0.13140869,-0.484375,0.8125,0.359375
273,-0.013427734,-0.9944458,0.1350708,1.890625,-0.59375,0.703125
274,0.00048828125,-0.9824829,0.13336182,2.828125,0.078125,0.71875
275,0.0056152344,-0.98443604,0.13116455,0.734375,0.65625,0.125
276,-0.0053710938,-0.98883057,0.12945557,1.3125,-0.28125,0.265625
277,0.00024414062,-0.9907837,0.12701416,1.375,-0.109375,0.546875
278,0.004638672,-0.9849243,0.12701416,1.296875,-0.203125,0.046875
279,-0.0073242188,-0.99053955,0.12579346,1.1875,-0.078125,0.453125
280,0.0026855469,-0.98687744,0.11895752,1.0625,-0.53125,0.25
281,0.0021972656,-0.991272,0.12506104,0.546875,-0.1875,0.265625
282,-0.0031738281,-0.9915161,0.12750244,0.734375,0.171875,0.390625
283,0.0009765625,-0.98883057,0.124816895,1.421875,-0.328125,0.3125
284,0.0024414062,-0.98516846,0.12213135,1.234375,-0.265625,0.203125
285,-0.0041503906,-0.9859009,0.120910645,1.28125,-0.015625,0.375
286,-0.00048828125,-0.9898071,0.11383057,1.390625,-0.390625,0.34375
287,0.005126953,-0.9819946,0.11895752,1.125,-0.34375,0.3125
288,0.0026855469,-0.9883423,0.11895752,1.53125,0.015625,0.40625
289,0.00390625,-0.9885864,0.109680176,1.375,-0.21875,0.296875
290,-0.0007324219,-0.9927368,0.113586426,1.859375,-0.34375,0.359375
291,-0.0017089844,-0.98223877,0.10845947,1.359375,0.5,0.09375
292,0.0014648438,-0.99053955,0.105773926,1.25,-0.625,0.5625
293,0.0056152344,-0.99591064,0.11114502,1.171875,-0.078125,0.234375
294,0.0026855469,-0.99005127,0.11431885,1.96875,-0.03125,0.296875
295,0.008300781,-0.9805298,0.1038208,1.03125,-0.421875,0.3125
296,0.0056152344,-0.99664307,0.09991455,2.5625,-1.09375,0.21875
297,0.0075683594,-0.9898071,0.10406494,2.671875,-0.953125,0.359375
298,0.015380859,-0.9824829,0.097229004,1.625,-0.890625,0.296875
299,0.0075683594,-0.99224854,0.097717285,0.859375,-0.421875,0.0625
300,-0.0021972656,-0.98638916,0.101379395,1.296875,-0.78125,0.28125
301,0.0063476562,-0.9920044,0.09307861,0.78125,-0.421875,0.015625
302,0.010498047,-0.99053955,0.09283447,0.890625,-0.484375,-0.078125
303,0.0007324219,-0.98809814,0.09698486,0.40625,-0.46875,-0.015625
304,0.0024414062,-0.98931885,0.101135254,0.296875,-0.640625,-0.03125
305,0.009521484,-0.99346924,0.097717285,0.328125,-0.578125,-0.109375
306,0.0029296875,-0.9898071,0.09967041,0.171875,-0.625,0.03125
307,0.0029296875,-0.9859009,0.10284424,0.109375,-0.5,-0.0625
308,0.0031738281,-0.9937134,0.09039307,0.171875,-0.453125,-0.125
309,0.001953125,-0.99420166,0.097717285,0.078125,-0.703125,0.078125
310,0.016845703,-0.9846802,0.097961426,0.609375,-0.59375,0.125
311,-0.001953125,-0.98883057,0.10089111,0.046875,-0.71875,0.109375
312,0.012207031,-0.991272,0.093566895,-0.953125,-0.75,0.0
313,0.0007324219,-0.9885864,0.1116333,-0.203125,-0.671875,-0.296875
314,-0.0036621094,-0.991272,0.101867676,-0.484375,-0.640625,-0.03125
315,0.008056641,-0.9961548,0.105285645,-0.84375,-0.71875,-0.390625
316,0.008056641,-0.9939575,0.10357666,-0.546875,-0.953125,-0.15625
317,-0.0029296875,-0.9973755,0.11016846,-0.234375,-0.96875,-0.109375
318,0.0073242188,-0.98223877,0.108947754,-1.15625,-0.8125,-0.328125
319,-0.0009765625,-0.98638916,0.109680176,-0.109375,-0.828125,-0.359375
320,0.0041503906,-0.9915161,0.109436035,-0.1875,-0.953125,-0.125
321,0.005859375,-0.98883057,0.11578369,-0.765625,-0.9375,-0.46875
322,-0.0017089844,-0.9920044,0.11846924,-0.625,-0.921875,-0.203125
323,0.00024414062,-0.9920044,0.10845947,-0.546875,-1.125,0.046875
324,0.0,-0.9854126,0.117248535,-0.875,-1.078125,-0.140625
325,-0.0031738281,-0.9932251,0.11871338,-0.671875,-0.75,-0.21875
326,-0.0053710938,-0.989563,0.11553955,-0.46875,-0.90625,-0.171875
327,-0.0031738281,-0.989563,0.12188721,-0.390625,-0.84375,0.0
328,-0.0026855469,-0.9849243,0.124816895,-0.65625,-0.875,-0.125
329,-0.008544922,-0.9883423,0.12506104,-0.6875,-0.734375,-0.390625
330,-0.0056152344,-0.9949341,0.13165283,-0.0625,-0.953125,-0.046875
331,-0.008056641,-0.9812622,0.13409424,-0.203125,-0.265625,-0.140625
332,-0.00390625,-0.9873657,0.1260376,0.125,-0.953125,0.234375
333,-0.0048828125,-0.9883423,0.12701416,-1.875,-0.75,-0.625
334,-0.01171875,-1.00177,0.13775635,0.515625,-0.75,0.03125
335,0.0,-0.9873657,0.13336182,0.71875,-0.5,0.234375
336,0.0075683594,-0.9817505,0.13116455,0.0625,-0.671875,-0.3125
337,-0.0041503906,-0.9873657,0.13970947,0.515625,-0.703125,-0.109375
338,-0.004638672,-0.98809814,0.13604736,0.609375,-0.796875,0.296875
339,-0.0056152344,-0.98687744,0.13458252,-0.328125,-1.09375,-0.203125
340,-0.011474609,-0.98394775,0.13214111,0.625,-0.84375,0.234375
341,-0.005859375,-0.9902954,0.14117432,0.3125,-0.71875,0.375
342,-0.0036621094,-0.9837036,0.1326294,0.109375,-0.90625,-0.03125
343,-0.01586914,-0.9849243,0.13458252,0.171875,-0.6875,0.109375
344,-0.0053710938,-0.987854,0.13360596,0.328125,-0.484375,0.265625
345,-0.008056641,-0.9866333,0.13702393,0.546875,-0.640625,0.1875
346,-0.0107421875,-0.9924927,0.13092041,0.703125,-0.875,-0.015625
347,-0.011962891,-0.9846802,0.13360596,0.84375,-0.671875,0.0625
348,-0.0075683594,-0.9846802,0.13580322,0.6875,-0.28125,-0.09375
349,-0.0012207031,-0.9890747,0.13165283,0.3125,-0.46875,0.0625
350,-0.009521484,-0.989563,0.13531494,0.53125,-0.34375,0.0
351,-0.005126953,-0.98223877,0.128479,0.671875,-0.28125,0.140625
352,-0.013916016,-0.9885864,0.13116455,0.25,-0.375,0.0
353,-0.0007324219,-0.99005127,0.1428833,0.9375,-0.375,-0.109375
354,-0.010253906,-0.98516846,0.13458252,0.203125,-0.046875,0.03125
355,-0.0024414062,-0.98028564,0.12823486,-0.59375,-0.671875,-0.109375
356,-0.013183594,-0.98809814,0.13726807,-0.84375,0.1875,-0.34375
357,-0.013427734,-0.98394775,0.13482666,0.921875,-0.21875,0.453125
358,-0.0007324219,-0.9812622,0.1350708,-0.234375,-0.09375,-0.015625
359,-0.0034179688,-0.9961548,0.1375122,-0.46875,0.015625,0.109375
360,-0.009521484,-0.9871216,0.13214111,0.875,0.0,0.109375
361,-0.0073242188,-0.98101807,0.1326294,0.453125,-0.28125,0.21875
362,-0.016113281,-0.9890747,0.13409424,0.5,-0.171875,0.03125
363,-0.009765625,-0.9890747,0.14215088,1.546875,0.046875,0.453125
364,-0.0053710938,-0.9866333,0.13067627,1.0625,0.21875,0.375
365,-0.0012207031,-0.9829712,0.12799072,0.8125,0.28125,0.078125
366,-0.010986328,-0.9944458,0.13360596,1.734375,0.046875,0.515625
367,-0.008544922,-0.9866333,0.13140869,1.609375,-0.109375,0.328125
368,-0.00390625,-0.9859009,0.1338501,1.59375,0.234375,0.25
369,-0.0073242188,-0.99468994,0.12701416,1.671875,-0.296875,0.203125
370,-0.0026855469,-0.98565674,0.12359619,1.484375,-0.15625,0.078125
371,0.0053710938,-0.98443604,0.1272583,1.46875,-0.078125,0.421875
372,0.0012207031,-0.9885864,0.12384033,1.90625,0.15625,0.3125
373,0.0043945312,-0.987854,0.117004395,1.859375,-0.328125,0.125
374,-0.0053710938,-0.9873657,0.11895752,1.28125,-0.140625,0.1875
375,-0.00048828125,-0.99053955,0.121398926,1.984375,-0.453125,0.484375
376,-0.00390625,-0.989563,0.11578369,1.65625,0.671875,0.203125
377,-0.0031738281,-0.9963989,0.105041504,1.0,-0.796875,0.4375
378,0.00390625,-0.99420166,0.12310791,0.84375,0.03125,0.203125
379,0.0,-0.99224854,0.11456299,2.015625,-0.125,0.609375
380,0.0026855469,-0.98028564,0.11065674,0.84375,-0.421875,0.390625
381,-0.00390625,-0.991272,0.10626221,1.546875,-0.1875,0.109375
382,0.0009765625,-0.99346924,0.113342285,1.5625,-0.5625,0.25
383,0.008300781,-0.98687744,0.10626221,1.4375,-0.703125,0.546875
384,-0.0063476562,-0.989563,0.10772705,1.15625,-0.203125,0.25
385,-0.004638672,-0.987854,0.11212158,1.96875,-0.5,0.640625
386,0.005859375,-0.98443604,0.10455322,1.015625,-0.53125,0.234375
387,-0.0007324219,-0.9939575,0.10479736,1.234375,-0.703125,0.28125
388,0.006591797,-0.99102783,0.105529785,1.203125,-0.484375,0.359375
389,0.0075683594,-0.99591064,0.10992432,1.015625,-0.6875,0.375
390,-0.0017089844,-0.98931885,0.101623535,0.625,-0.625,0.21875
391,0.0012207031,-0.99713135,0.09649658,0.640625,-0.625,0.078125
392,-0.0007324219,-0.989563,0.10430908,0.921875,-0.53125,0.140625
393,0.0009765625,-0.9915161,0.10235596,1.09375,-0.75,0.359375
394,0.0056152344,-0.9915161,0.09088135,1.0625,-0.125,0.375
395,0.004638672,-0.9927368,0.09527588,0.265625,-0.671875,-0.046875
396,0.0087890625,-0.989563,0.1038208,0.4375,-0.6875,-0.125
397,-0.0029296875,-0.9956665,0.09576416,-0.453125,0.125,0.046875
398,0.008056641,-0.991272,0.093811035,-0.921875,-1.140625,0.078125
399,0.001953125,-0.99346924,0.10650635,-0.78125,-0.9375,-0.1875
400,0.0017089844,-0.99176025,0.105773926,-0.1875,-0.46875,0.171875
401,0.008300781,-0.9873657,0.10626221,-0.453125,-0.8125,-0.0625
402,0.005126953,-0.9924927,0.09674072,-0.296875,-0.75,-0.203125
403,0.0029296875,-0.9885864,0.108947754,-0.265625,-0.703125,-0.15625
404,0.012207031,-0.98394775,0.1038208,-0.390625,-0.765625,-0.125
405,0.0043945312,-0.9951782,0.11090088,-1.125,-0.9375,-0.46875
406,-0.0024414062,-0.98883057,0.10845947,-0.109375,-0.890625,-0.109375
407,0.0043945312,-0.98809814,0.11260986,-0.75,-0.875,-0.265625
408,-0.0017089844,-0.9915161,0.11407471,-0.578125,-0.84375,-0.234375
409,0.0029296875,-0.9849243,0.11651611,-0.390625,-0.78125,0.125
410,-0.00048828125,-0.98883057,0.117248535,-0.5625,-0.984375,-0.140625
411,-0.0021972656,-0.98809814,0.11651611,-0.515625,-0.875,0.046875
412,-0.004638672,-0.9890747,0.1260376,-0.640625,-0.625,0.15625
413,-0.00048828125,-0.991272,0.12359619,-0.421875,-1.125,-0.078125
414,-0.00048828125,-0.9834595,0.1182251,-0.234375,-1.03125,0.03125
415,-0.0073242188,-0.9849243,0.12872314,-0.453125,-0.703125,-0.28125
416,-0.0056152344,-0.9898071,0.1272583,-0.46875,-0.890625,-0.0625
417,-0.0012207031,-0.98443604,0.12872314,0.390625,-0.75,-0.078125
418,-0.0075683594,-0.98809814,0.12432861,0.171875,-1.125,0.296875
419,0.0036621094,-0.9902954,0.12896729,-1.671875,-0.265625,-0.265625
420,-0.0075683594,-0.99884033,0.13580322,-0.109375,-0.46875,0.0
421,0.0012207031,-0.98931885,0.13018799,1.265625,-0.5,0.546875
422,0.001953125,-0.98760986,0.13018799,-0.046875,-0.1875,-0.109375
423,-0.008300781,-0.9885864,0.128479,0.3125,-0.703125,-0.109375
424,-0.0063476562,-0.986145,0.12677002,0.96875,-0.6875,0.265625
425,0.0034179688,-0.9871216,0.12945557,-0.453125,-0.5,-0.15625
426,-0.0029296875,-0.9927368,0.13482666,0.59375,-0.296875,-0.203125
427,-0.0034179688,-0.99298096,0.12921143,0.75,-0.84375,0.078125
428,-0.0048828125,-0.9841919,0.128479,0.125,-0.5625,-0.015625
429,-0.0078125,-0.99542236,0.13287354,0.34375,-0.609375,-0.15625
430,-0.005126953,-0.99005127,0.1296997,0.453125,-0.671875,0.078125
431,-0.0061035156,-0.9837036,0.12628174,0.40625,-0.578125,0.03125
432,0.00024414062,-0.9898071,0.13043213,0.28125,-0.578125,0.015625
433,-0.0024414062,-0.9885864,0.12945557,0.578125,-0.78125,0.171875
434,0.0024414062,-0.98516846,0.13165283,0.078125,-0.609375,0.125
435,0.001953125,-0.9849243,0.13458252,0.328125,-0.609375,0.0625
436,-0.009033203,-0.98687744,0.13165283,0.1875,-0.625,0.265625
437,-0.009521484,-0.9829712,0.13043213,0.0,-1.015625,0.046875
438,0.0021972656,-0.9854126,0.1338501,1.28125,-0.5,0.109375
439,-0.0053710938,-0.9834595,0.13238525,0.171875,-0.734375,0.296875
440,0.005859375,-0.9829712,0.12530518,-0.921875,-0.84375,0.03125
441,-0.0056152344,-0.987854,0.14117432,-0.546875,-0.125,-0.21875
442,-0.008544922,-0.98565674,0.13336182,0.984375,-0.59375,0.25
443,0.0,-0.9819946,0.13287354,0.3125,-0.109375,0.0625
444,-0.004638672,-0.9849243,0.13677979,0.21875,-0.296875,-0.046875
445,-0.0056152344,-0.9951782,0.13531494,0.75,-0.734375,0.328125
446,0.0036621094,-0.98223877,0.13360596,0.046875,-0.359375,0.171875
447,-0.007080078,-0.98565674,0.14215088,0.546875,-0.375,-0.015625
448,-0.009521484,-0.9824829,0.13336182,1.0625,-0.515625,0.25
449,0.00024414062,-0.98931885,0.13922119,0.46875,-0.234375,0.0625
450,0.00024414062,-0.99102783,0.13531494,0.546875,-0.546875,0.03125
451,-0.008300781,-0.9898071,0.14117432,0.46875,-0.40625,0.25
452,0.006591797,-0.98687744,0.13189697,0.234375,-0.40625,0.15625
453,-0.009033203,-0.98150635,0.13580322,0.1875,-0.453125,-0.125
454,-0.0078125,-0.99298096,0.13238525,0.359375,-0.4375,0.234375
455,-0.0061035156,-0.98565674,0.12750244,0.59375,-0.234375,0.34375
456,-0.0056152344,-0.98883057,0.13873291,2.34375,0.296875,0.390625
457,0.0041503906,-0.9805298,0.13482666,0.859375,0.140625,0.296875
458,-0.0061035156,-0.9859009,0.13214111,0.359375,-0.3125,0.140625
459,-0.006591797,-0.9819946,0.13873291,0.875,-0.203125,0.515625
460,0.0056152344,-0.99005127,0.13018799,0.734375,0.265625,0.25
461,0.009033203,-0.99005127,0.12945557,0.640625,-0.15625,0.546875
462,0.005859375,-0.9817505,0.12677002,-0.609375,0.046875,0.078125
463,-0.0078125,-1.0010376,0.13653564,1.125,-0.375,0.5625
464,-0.001953125,-0.97979736,0.13092041,1.71875,0.1875,0.5625
465,0.005126953,-0.98565674,0.12652588,-0.15625,0.28125,0.0625
466,-0.0014648438,-0.9849243,0.13360596,1.0,-0.25,0.140625
467,0.007080078,-0.9902954,0.12896729,1.609375,0.03125,0.484375
468,0.0021972656,-0.986145,0.1296997,0.96875,0.125,0.046875
469,-0.005859375,-0.9812622,0.12530518,1.53125,-0.03125,0.3125
470,0.0024414062,-0.9812622,0.12335205,0.953125,-0.234375,0.3125
471,0.0036621094,-0.98516846,0.12554932,0.96875,-0.140625,0.046875
472,0.00390625,-0.98883057,0.12359619,1.5,0.03125,0.1875
473,0.005126953,-0.9873657,0.12213135,1.171875,-0.578125,0.203125
474,0.0041503906,-0.9819946,0.11895752,1.75,-0.171875,0.15625
475,0.0036621094,-0.99176025,0.12628174,1.484375,-0.265625,0.28125
476,0.0,-0.987854,0.12359619,1.078125,-0.09375,0.078125
477,0.006591797,-0.9902954,0.12017822,1.640625,-0.390625,0.484375
478,0.009033203,-0.98883057,0.11578369,1.609375,-0.078125,0.390625
479,-0.0007324219,-0.98809814,0.11236572,1.1875,-0.734375,0.046875
480,0.014404297,-0.98883057,0.117492676,1.65625,-0.296875,0.28125
481,-0.0041503906,-0.98443604,0.11431885,0.890625,0.46875,0.078125
482,0.0075683594,-0.98516846,0.113098145,1.171875,-0.484375,0.3125
483,0.004638672,-0.9927368,0.11456299,0.875,-0.359375,-0.109375
484,0.001953125,-0.98883057,0.11114502,1.8125,-0.28125,0.140625
485,0.0034179688,-0.9849243,0.10357666,0.75,-0.28125,0.0
486,0.005126953,-0.9927368,0.101623535,0.84375,-0.6875,0.171875
487,0.0009765625,-0.99102783,0.113586426,1.1875,-0.6875,0.25
488,0.010498047,-0.9859009,0.10211182,0.875,-0.703125,0.0625
489,-0.0024414062,-0.99591064,0.10675049,1.25,-0.859375,0.0
490,0.00390625,-0.98760986,0.10430908,1.46875,-0.265625,0.328125
491,0.0061035156,-0.9873657,0.097961426,1.140625,-0.015625,0.109375
492,0.0029296875,-0.99053955,0.10748291,1.140625,-0.4375,0.28125
493,0.005859375,-0.9924927,0.101623535,0.828125,-0.515625,0.328125
494,0.0012207031,-0.9902954,0.09698486,0.3125,-0.640625,0.125
495,0.0024414062,-0.9939575,0.09918213,0.4375,-0.515625,0.140625
496,0.0056152344,-0.99298096,0.10821533,-0.1875,-1.03125,0.140625
497,0.0041503906,-0.99005127,0.105773926,0.171875,-0.5,0.03125
498,0.0073242188,-0.9898071,0.10284424,-0.140625,-0.78125,0.046875
499,-0.0014648438,-0.9885864,0.105041504,0.0625,-0.796875,0.109375
500,0.0034179688,-0.9898071,0.10235596,0.25,-0.125,0.0
501,0.0053710938,-0.99224854,0.105285645,0.0,-1.25,0.140625
502,0.0063476562,-0.9890747,0.105285645,-1.234375,-0.53125,-0.296875
503,0.005126953,-0.9976196,0.113586426,0.015625,-0.5625,0.046875
504,0.0041503906,-0.98760986,0.11065674,-0.609375,-0.703125,0.046875
505,0.009521484,-0.989563,0.11260986,-0.71875,-0.84375,-0.234375
506,0.0021972656,-0.99224854,0.11456299,-0.203125,-0.828125,-0.09375
507,0.0014648438,-0.986145,0.1116333,-0.3125,-0.78125,0.046875
508,0.00024414062,-0.9829712,0.1116333,-1.1875,-0.859375,-0.328125
509,-0.0017089844,-0.9937134,0.117492676,0.0,-0.921875,0.03125
510,-0.005126953,-0.9907837,0.11798096,-0.296875,-0.8125,0.21875
511,-0.0021972656,-0.9883423,0.109680176,-0.265625,-1.1875,0.015625
512,-0.0024414062,-0.9885864,0.121398926,-0.328125,-1.03125,-0.125
513,0.0024414062,-0.9951782,0.12310791,-0.25,-0.578125,0.046875
514,-0.005126953,-0.99005127,0.12188721,-0.296875,-0.578125,-0.015625
515,-0.00390625,-0.9885864,0.11798096,0.296875,-0.796875,-0.078125
516,-0.00048828125,-0.98272705,0.12335205,-0.078125,-0.765625,-0.140625
517,-0.0026855469,-0.98394775,0.128479,0.171875,-0.671875,-0.03125
518,-0.0012207031,-0.99102783,0.1194458,0.140625,-0.671875,0.125
519,0.0007324219,-0.9819946,0.12994385,0.234375,-0.53125,-0.046875
520,-0.0073242188,-0.9927368,0.12774658,0.046875,-0.078125,-0.09375
521,-0.0012207031,-0.99346924,0.11920166,0.015625,-0.9375,0.234375
522,0.0026855469,-0.98687744,0.12799072,-1.640625,-0.3125,-0.703125
523,-0.0073242188,-0.99713135,0.13482666,0.34375,-0.640625,0.03125
524,0.004638672,-0.98883057,0.12310791,0.515625,-0.59375,0.015625
525,0.0007324219,-0.9898071,0.12945557,-0.375,-0.578125,-0.375
526,0.0007324219,-0.98565674,0.13311768,0.328125,-0.8125,-0.140625
527,0.0014648438,-0.9873657,0.13140869,0.09375,-0.671875,0.046875
528,-0.007080078,-0.9873657,0.13458252,-0.71875,-0.765625,-0.40625
529,-0.006591797,-0.98638916,0.1326294,0.625,-0.515625,0.03125
530,0.0014648438,-0.9924927,0.1350708,0.46875,-0.59375,0.328125
531,-0.00390625,-0.98931885,0.12701416,-0.015625,-0.84375,-0.15625
532,-0.0021972656,-0.9890747,0.1350708,0.265625,-0.546875,0.109375
533,-0.0026855469,-0.9793091,0.13531494,0.390625,-0.71875,0.171875
534,-0.0073242188,-0.98931885,0.12896729,0.25,-0.546875,0.015625
535,-0.0029296875,-0.98883057,0.13360596,0.328125,-0.546875,0.140625
536,-0.0017089844,-0.98516846,0.1338501,0.375,-0.46875,0.21875
537,-0.008056641,-0.9944458,0.13116455,0.671875,-0.5,0.0625
538,-0.0068359375,-0.9866333,0.12750244,0.21875,-0.65625,0.015625
539,-0.0012207031,-0.9951782,0.13482666,0.59375,-0.140625,0.265625
540,0.0014648438,-0.98028564,0.13214111,0.78125,-0.296875,-0.03125
541,-0.010253906,-0.991272,0.12896729,0.265625,-0.609375,0.203125
542,0.005126953,-0.98394775,0.12994385,-0.796875,-0.234375,-0.015625
543,-0.012451172,-0.9949341,0.13824463,-0.3125,-0.5,-0.078125
544,-0.0012207031,-0.98638916,0.13848877,0.640625,-0.5625,0.359375
545,-0.006591797,-0.9837036,0.13775635,-0.5625,-0.515625,-0.15625
546,-0.0043945312,-0.9841919,0.13995361,-0.03125,-0.46875,-0.15625
547,-0.0073242188,-0.987854,0.13604736,0.53125,-0.375,0.375
548,-0.005126953,-0.9849243,0.1350708,0.375,-0.453125,0.140625
549,-0.0107421875,-0.9834595,0.13995361,1.046875,-0.1875,0.078125
550,-0.00390625,-0.9846802,0.14239502,1.078125,-0.09375,0.375
551,0.0017089844,-0.99005127,0.13287354,0.828125,-0.140625,0.3125
552,-0.0056152344,-0.98223877,0.1338501,1.28125,0.015625,0.03125
553,-0.0009765625,-0.9883423,0.13433838,1.8125,0.28125,0.65625
554,0.0017089844,-0.9873657,0.13165283,1.28125,-0.296875,0.515625
555,0.0036621094,-0.98638916,0.13116455,1.40625,0.125,0.328125
556,-0.0012207031,-0.98101807,0.13653564,1.4375,0.03125,0.34375
557,-0.00024414062,-0.98883057,0.13214111,1.359375,0.109375,0.453125
558,-0.0012207031,-0.99053955,0.12823486,1.25,0.0,0.34375
559,0.0009765625,-0.98516846,0.12652588,0.734375,0.21875,0.234375
560,0.0007324219,-0.9993286,0.12750244,1.328125,-0.1875,0.5
561,0.007080078,-0.98272705,0.12335205,2.3125,0.15625,0.421875
562,-0.0014648438,-0.9805298,0.121154785,0.6875,-0.4375,0.28125
563,0.0026855469,-0.98883057,0.12017822,0.546875,-0.015625,0.046875
564,-0.0026855469,-0.991272,0.12652588,1.40625,-0.15625,0.0
565,0.0014648438,-0.9883423,0.117004395,1.078125,-0.28125,0.15625
566,0.009521484,-0.986145,0.11993408,0.890625,-0.25,0.046875
567,0.001953125,-0.9902954,0.11993408,1.125,-0.28125,0.046875
568,0.005126953,-0.99053955,0.12335205,1.40625,-0.375,0.25
569,0.007080078,-0.98516846,0.11553955,0.5,-0.203125,-0.0625
570,0.0,-0.98883057,0.1182251,1.75,-0.546875,0.28125
571,0.0021972656,-0.98565674,0.113098145,1.28125,-0.515625,0.140625
572,0.008056641,-0.9849243,0.116760254,1.015625,-0.09375,0.046875
573,0.006591797,-0.9951782,0.109680176,1.59375,-0.71875,0.390625
574,0.004638672,-0.98516846,0.11529541,1.203125,-0.484375,0.046875
575,0.0024414062,-0.9854126,0.11431885,1.296875,-0.25,0.15625
576,0.009277344,-0.9898071,0.11090088,1.5,-0.4375,0.34375
577,-0.00024414062,-0.99053955,0.10797119,0.78125,-0.65625,0.09375
578,0.0056152344,-0.9873657,0.11016846,1.28125,-0.609375,0.15625
579,0.005126953,-0.98931885,0.10650635,0.640625,-0.359375,0.09375
580,0.0009765625,-0.98760986,0.10699463,0.890625,-0.890625,0.171875
581,0.011474609,-0.97613525,0.105041504,1.5,-0.546875,0.15625
582,0.0009765625,-0.9829712,0.10064697,0.25,-0.75,0.109375
583,0.0029296875,-0.98760986,0.10797119,-0.328125,-0.484375,-0.109375
584,0.005859375,-0.99835205,0.10479736,0.5625,-0.6875,0.171875
585,0.005859375,-0.97906494,0.10211182,-0.21875,-0.53125,-0.015625
586,0.0063476562,-0.99420166,0.10699463,-0.0625,-0.609375,0.0
587,0.0063476562,-0.98809814,0.105529785,-0.328125,-0.640625,0.09375
588,-0.00048828125,-0.9937134,0.11383057,0.390625,-0.9375,0.140625
589,0.008300781,-0.9812622,0.108947754,-0.546875,-0.75,-0.328125
590,-0.0063476562,-0.99102783,0.109680176,0.28125,-0.875,0.1875
591,0.007080078,-0.98223877,0.11602783,0.015625,-0.84375,0.03125
592,0.0048828125,-0.9885864,0.11016846,-0.21875,-0.8125,-0.125
593,-0.0007324219,-0.9920044,0.113586426,-0.28125,-0.890625,-0.046875
594,0.0043945312,-0.9907837,0.116760254,-0.15625,-0.671875,0.09375
595,0.0036621094,-0.98883057,0.1194458,-0.0625,-0.625,0.109375
596,0.0007324219,-0.9873657,0.117492676,-0.34375,-0.765625,0.15625
597,-0.0017089844,-0.9885864,0.11993408,-0.0625,-0.96875,0.109375
598,0.0041503906,-0.9937134,0.12554932,0.046875,-0.734375,0.203125
599,-0.0007324219,-0.9834595,0.11651611,-0.296875,-0.84375,0.0625
600,-0.00048828125,-0.9883423,0.12579346,0.0,-0.75,-0.015625
601,-0.00048828125,-0.989563,0.11505127,-0.21875,-0.125,-0.03125
602,-0.0009765625,-0.9841919,0.120910645,-0.046875,-1.265625,0.21875
603,0.0075683594,-0.97906494,0.12530518,-1.296875,-0.265625,-0.28125
604,0.0031738281,-0.9963989,0.13214111,0.21875,-1.015625,0.046875
605,0.001953125,-0.98321533,0.121398926,0.453125,-0.8125,0.3125
606,0.007080078,-0.989563,0.13336182,0.09375,-0.484375,0.140625
607,-0.00048828125,-0.99053955,0.12335205,-0.03125,-0.671875,0.25
608,0.0034179688,-0.98809814,0.12799072,0.828125,-0.6875,0.453125
609,0.007080078,-0.9873657,0.12286377,-0.015625,-0.703125,-0.171875
610,-0.0014648438,-0.9846802,0.12945557,0.3125,-0.640625,0.125
611,0.0073242188,-0.98760986,0.12994385,0.578125,-0.328125,0.046875
612,0.006591797,-0.98565674,0.12408447,0.578125,-0.671875,0.078125
613,0.0,-0.9902954,0.12896729,0.453125,-0.671875,0.0625
614,0.0056152344,-0.991272,0.13189697,0.6875,-0.40625,0.328125
615,0.0068359375,-0.989563,0.12701416,0.46875,-0.546875,0.21875
616,0.00024414062,-0.986145,0.12530518,0.234375,-0.5,0.0625
617,0.005126953,-0.9920044,0.124816895,0.546875,-0.625,0.296875
618,0.004638672,-0.99053955,0.12164307,0.6875,-0.953125,0.34375
619,0.0031738281,-0.99176025,0.12359619,0.390625,-0.984375,0.109375
620,-0.0034179688,-0.98760986,0.12164307,0.5625,-0.578125,0.234375
621,0.00390625,-0.9800415,0.12799072,0.953125,-1.125,0.671875
622,-0.00048828125,-0.98565674,0.12530518,0.375,-0.21875,0.21875
623,0.0056152344,-0.98931885,0.120666504,-0.03125,-0.9375,0.3125
624,0.0029296875,-0.9837036,0.12188721,-0.953125,-0.8125,-0.25
625,-0.005859375,-0.9963989,0.13336182,0.84375,-0.25,0.265625
626,0.008056641,-0.9824829,0.12921143,0.71875,-0.15625,0.390625
627,0.008300781,-0.98516846,0.1272583,0.09375,-0.71875,-0.28125
628,0.0031738281,-0.9846802,0.13116455,0.625,-0.515625,-0.046875
629,0.008544922,-0.9849243,0.11846924,0.40625,-0.390625,0.296875
630,0.0063476562,-0.98687744,0.12554932,-0.34375,-0.5,-0.015625
631,-0.0026855469,-0.9920044,0.12921143,0.5,-0.609375,0.390625
632,0.0053710938,-0.99005127,0.1272583,0.703125,-0.671875,0.3125
633,0.0061035156,-0.9902954,0.12384033,0.390625,-0.359375,0.078125
634,0.0048828125,-0.9890747,0.12799072,1.140625,-0.09375,0.1875
635,-0.0007324219,-0.9871216,0.12554932,0.84375,-0.203125,0.3125
636,0.0061035156,-0.9883423,0.1296997,0.734375,0.234375,0.328125
637,0.0048828125,-0.9837036,0.12628174,1.109375,-0.09375,0.421875
638,0.00390625,-0.98638916,0.124816895,0.640625,-0.125,0.171875
639,0.006591797,-0.99102783,0.121154785,0.8125,-0.609375,0.375
640,0.0053710938,-0.98272705,0.13336182,1.484375,0.09375,0.1875
641,0.016845703,-0.9819946,0.11920166,1.03125,0.21875,0.25
642,0.0,-0.9915161,0.12310791,1.390625,0.5,0.515625
643,0.014404297,-0.98638916,0.11651611,1.765625,0.03125,0.296875
644,0.0073242188,-0.987854,0.12286377,1.546875,-0.21875,0.671875
645,0.010986328,-0.9841919,0.10870361,0.703125,0.046875,0.296875
646,0.0031738281,-0.99224854,0.12677002,1.734375,0.34375,0.34375
647,0.015380859,-0.9854126,0.1116333,1.625,-0.25,0.796875
648,0.017089844,-0.9873657,0.11480713,0.71875,-0.140625,0.328125
649,0.005126953,-0.9956665,0.112854004,0.9375,-0.265625,0.25
650,0.0068359375,-0.9849243,0.11505127,1.609375,-0.578125,0.375
651,0.020507812,-0.98931885,0.10626221,0.171875,-0.765625,-0.15625
652,0.008300781,-0.9898071,0.11431885,1.0,-0.265625,-0.15625
653,0.012207031,-0.9846802,0.10870361,0.5625,-0.625,0.125
654,0.01586914,-0.98760986,0.10992432,0.59375,-0.453125,-0.21875
655,0.011230469,-0.9859009,0.10992432,0.3125,-0.859375,-0.109375
656,0.009277344,-0.991272,0.11627197,0.078125,-0.625,0.046875
657,0.016845703,-0.9841919,0.113342285,0.265625,-0.65625,0.0625
658,0.0107421875,-0.9883423,0.11602783,-0.078125,-0.875,-0.109375
659,0.0087890625,-0.9837036,0.11651611,-0.109375,-1.265625,0.171875
660,0.009521484,-0.9890747,0.11212158,-0.1875,-1.703125,0.109375
661,0.010498047,-0.9866333,0.11138916,-0.4375,-1.359375,-0.203125
662,0.0024414062,-0.99298096,0.11651611,-0.21875,-1.078125,-0.234375
663,0.005859375,-0.9771118,0.112854004,0.296875,-0.5,-0.203125
664,0.005859375,-0.99468994,0.12213135,0.71875,-0.6875,0.0
665,0.016357422,-0.98443604,0.11260986,-0.9375,-0.046875,-0.25
666,0.012451172,-0.9932251,0.12896729,-0.40625,-0.5625,-0.203125
667,0.01171875,-0.99005127,0.12384033,1.125,-0.4375,0.234375
668,0.014404297,-0.987854,0.12652588,0.078125,-0.328125,-0.03125
669,0.005126953,-0.9961548,0.12310791,-0.359375,-0.671875,0.015625
670,0.007080078,-0.9927368,0.121398926,0.625,-1.15625,0.15625
671,0.016601562,-0.9819946,0.120910645,-0.390625,-0.921875,-0.046875
672,-0.0007324219,-0.99176025,0.12579346,0.203125,-0.640625,-0.0625
673,0.0031738281,-0.9885864,0.117004395,0.578125,-1.203125,0.328125
674,0.009521484,-0.9873657,0.12432861,-0.1875,-0.671875,-0.078125
675,0.0014648438,-0.9927368,0.12554932,0.140625,-0.84375,0.015625
676,0.0029296875,-0.9902954,0.12310791,0.390625,-0.953125,0.046875
677,0.008056641,-0.9859009,0.12945557,0.40625,-0.640625,0.0625
678,0.005859375,-0.986145,0.12945557,0.3125,-0.71875,-0.03125
679,0.0075683594,-0.98638916,0.12774658,-0.046875,-0.609375,-0.140625
680,0.0041503906,-0.9846802,0.12432861,0.5625,-0.90625,-0.0625
681,0.0068359375,-0.99176025,0.12554932,0.546875,-0.71875,0.140625
682,-0.005126953,-0.9924927,0.12677002,-0.109375,-0.859375,0.078125
683,0.0053710938,-0.99053955,0.124572754,0.671875,-0.59375,0.28125
684,-0.00024414062,-0.98638916,0.12530518,0.328125,-0.3125,0.09375
685,0.010253906,-0.9920044,0.1326294,0.21875,-0.625,0.375
686,0.0063476562,-0.9871216,0.12286377,-0.1875,-0.34375,-0.046875
687,0.0029296875,-0.9902954,0.13067627,0.6875,-0.34375,0.234375
688,0.0073242188,-0.98760986,0.12506104,0.734375,0.109375,0.125
689,0.009521484,-0.9873657,0.124572754,0.09375,0.015625,0.1875
690,0.010498047,-0.98638916,0.1296997,0.234375,-0.234375,0.125
691,0.014404297,-0.9885864,0.12701416,0.4375,-0.078125,0.34375
692,0.015136719,-0.99176025,0.12432861,-0.109375,-0.421875,-0.09375
693,0.0078125,-0.98809814,0.1296997,0.46875,-0.25,-0.046875
694,0.008544922,-0.9885864,0.13287354,0.1875,-0.328125,0.078125
695,0.009521484,-0.99005127,0.124816895,-0.0625,-0.46875,0.015625
696,0.0036621094,-0.99176025,0.12921143,0.5,-0.1875,0.09375
697,0.009277344,-0.98516846,0.13238525,0.78125,-0.078125,0.296875
698,0.0053710938,-0.9841919,0.12579346,0.421875,-0.34375,0.09375
699,0.010498047,-0.98687744,0.13018799,1.21875,-0.046875,0.203125
700,0.0107421875,-0.9812622,0.12286377,1.015625,-0.125,0.234375
701,0.0009765625,-0.9907837,0.13165283,1.34375,-0.046875,-0.015625
702,0.0031738281,-0.99102783,0.13092041,1.171875,0.0625,0.234375
703,0.0053710938,-0.9932251,0.12261963,1.09375,-0.71875,0.171875
704,0.010009766,-0.98223877,0.12335205,1.765625,0.015625,-0.046875
705,0.0009765625,-0.9973755,0.12579346,1.0625,0.40625,0.1875
706,0.01977539,-0.99053955,0.117248535,0.171875,-0.578125,0.203125
707,0.0061035156,-0.98565674,0.1296997,0.5625,-0.046875,-0.203125
708,0.0041503906,-0.9846802,0.12359619,2.046875,-0.0625,0.375
709,0.0068359375,-0.9871216,0.117492676,0.6875,-0.375,0.171875
710,0.0041503906,-0.99298096,0.11651611,0.734375,-0.484375,-0.265625
711,0.0048828125,-0.9939575,0.12506104,1.4375,-0.734375,0.140625
712,0.0053710938,-0.9883423,0.109680176,0.671875,-0.328125,0.0625
713,-0.0017089844,-0.99053955,0.121154785,1.265625,-0.359375,0.015625
714,0.004638672,-0.9890747,0.11236572,1.578125,-0.21875,0.296875
715,0.011962891,-0.98321533,0.11456299,0.984375,-0.09375,-0.0625
716,0.010498047,-0.9951782,0.112854004,1.234375,-0.53125,0.09375
717,0.0056152344,-0.99298096,0.11383057,0.90625,-0.453125,0.125
718,0.0041503906,-0.989563,0.11627197,0.390625,-0.515625,-0.046875
719,0.0087890625,-0.99468994,0.11602783,0.75,-0.4375,0.25
720,0.006591797,-0.9944458,0.11602783,1.046875,-0.671875,0.15625
721,0.011230469,-0.9885864,0.11431885,0.984375,-0.75,0.140625
722,0.0053710938,-0.9873657,0.11114502,0.578125,-0.375,0.078125
723,0.0078125,-0.9902954,0.11602783,0.84375,-0.671875,0.203125
724,0.006591797,-0.986145,0.117004395,0.9375,-0.40625,0.0
725,0.0041503906,-0.9927368,0.11407471,0.90625,-0.9375,0.125
726,0.017333984,-0.9898071,0.10797119,0.15625,0.03125,-0.015625
727,0.012939453,-0.9939575,0.117492676,1.15625,-0.375,0.25
728,0.010498047,-0.9819946,0.10797119,0.921875,-0.296875,0.078125
729,0.008300781,-0.99713135,0.10845947,0.6875,-0.09375,0.140625
730,0.0034179688,-1.000061,0.10821533,0.828125,-0.484375,0.375
731,0.005859375,-0.991272,0.113098145,1.234375,-0.296875,0.09375
732,0.017333984,-0.98321533,0.11065674,0.3125,-0.03125,-0.140625
733,0.0043945312,-0.9981079,0.113098145,1.578125,-0.796875,0.28125
734,0.013427734,-0.99005127,0.101623535,0.640625,-0.5625,-0.0625
735,0.0007324219,-0.9885864,0.09967041,0.90625,-0.328125,-0.109375
736,0.0031738281,-0.9924927,0.11065674,0.9375,-0.484375,0.234375
737,0.009765625,-0.9915161,0.10748291,0.859375,-0.421875,0.21875
738,0.01171875,-0.99224854,0.105285645,0.65625,-0.375,0.234375
739,0.010498047,-0.9866333,0.101867676,0.796875,-0.65625,0.046875
740,0.009033203,-0.9949341,0.09991455,0.625,-0.546875,0.21875
741,0.01171875,-0.9873657,0.10308838,0.390625,-0.515625,0.015625
742,0.0009765625,-0.9937134,0.10015869,0.234375,-0.625,0.03125
743,0.013427734,-0.9834595,0.09820557,0.078125,-0.21875,-0.015625
744,0.0068359375,-0.99102783,0.1038208,0.0625,-1.03125,0.0625
745,0.013671875,-0.98931885,0.10406494,-0.9375,-0.578125,0.0
746,0.0009765625,-0.9963989,0.116760254,0.34375,-0.453125,-0.078125
747,0.007080078,-0.98394775,0.10699463,-0.421875,-0.71875,-0.078125
748,0.0063476562,-0.9924927,0.10284424,-0.25,-0.734375,-0.171875
749,0.0,-0.98809814,0.109191895,-0.390625,-0.859375,-0.1875
750,0.0026855469,-0.9871216,0.11553955,0.125,-0.875,0.0
751,-0.0012207031,-0.9807739,0.116760254,-0.921875,-0.1875,-0.515625
752,0.00024414062,-0.99102783,0.12384033,0.0625,-0.609375,-0.3125
753,0.0087890625,-0.9944458,0.113586426,-0.1875,-0.71875,-0.03125
754,0.0031738281,-0.98321533,0.113342285,-0.359375,-0.640625,-0.375
755,0.0031738281,-0.9939575,0.11871338,-0.40625,-0.4375,-0.265625
756,0.004638672,-0.9873657,0.121398926,-0.59375,-0.34375,-0.140625
757,0.009033203,-0.9902954,0.12432861,-0.375,-0.59375,-0.078125
758,-0.00390625,-0.9873657,0.12554932,-0.1875,-0.671875,-0.3125
759,-0.0048828125,-0.9902954,0.12384033,-0.03125,-0.6875,0.0
