sample_no,accel_x,accel_y,accel_z,gyro_x,gyro_y,gyro_z
0,-0.16210938,-0.87872314,0.13519287,28.5,-15.6875,-5.390625
1,-0.0012207031,-1.1235962,0.15228271,9.53125,-3.78125,-1.796875
2,-0.03491211,-1.1633911,0.17913818,-8.484375,1.234375,3.28125
3,-0.08300781,-1.0991821,0.22137451,-12.734375,-1.8125,-2.21875
4,-0.083740234,-1.1599731,0.26287842,-44.828125,-8.90625,-1.140625
5,0.0546875,-1.484436,0.09124756,-1.875,-13.140625,-11.75
6,0.80029297,-1.4556274,-0.053527832,-31.28125,8.875,-7.421875
7,0.59594727,-0.94610596,-0.054260254,24.703125,-32.484375,23.0
8,0.028808594,-0.66192627,0.0446167,17.296875,-30.609375,26.984375
9,-0.22216797,-1.0586548,0.2921753,10.953125,-22.765625,-2.046875
10,-0.045166016,-0.9631958,0.06317139,28.3125,-9.921875,-16.078125
11,0.36572266,-0.5845337,-0.0960083,-9.671875,-1.359375,-11.203125
12,0.12207031,-0.6001587,0.09197998,11.25,-3.65625,13.59375
13,-0.013427734,-0.81695557,0.1864624,5.890625,-4.34375,14.59375
14,0.06323242,-0.8875122,0.22479248,-7.90625,-10.515625,6.015625
15,0.033691406,-0.92755127,0.30560303,-16.4375,3.6875,4.203125
16,-0.106933594,-1.0410767,0.30462646,-15.71875,6.21875,-15.71875
17,0.020019531,-1.1834106,0.34735107,-28.34375,11.296875,-11.375
18,-0.2602539,-1.4641724,0.21453857,-10.09375,11.875,-15.203125
19,0.3317871,-1.5440063,-0.08135986,-2.015625,20.609375,-31.71875
20,0.40673828,-1.1729126,-0.1519165,32.953125,8.015625,2.03125
21,0.18261719,-0.85723877,-0.19952393,-4.09375,21.859375,-1.96875
22,0.13574219,-1.0283813,-0.022766113,-6.875,17.0625,3.125
23,0.12402344,-0.99884033,0.109558105,-6.25,17.984375,12.046875
24,0.10644531,-0.8518677,0.1605835,3.796875,8.21875,4.578125
25,0.0034179688,-0.61383057,0.121276855,15.109375,-6.90625,0.296875
26,0.009277344,-0.51812744,-0.013977051,14.21875,-7.8125,3.0625
27,-0.022705078,-0.6174927,0.06048584,18.328125,-14.953125,4.859375
28,-0.072753906,-0.94781494,0.20013428,18.875,-12.859375,8.375
29,-0.1508789,-1.2634888,0.14642334,11.21875,-8.3125,4.765625
30,-0.27783203,-1.4221802,0.20916748,-12.375,-8.71875,-6.9375
31,-0.103027344,-1.2368774,0.22650146,-41.765625,3.03125,-11.546875
32,-0.052978516,-1.4661255,0.137146,-31.0625,1.625,-12.625
33,0.23266602,-1.5078735,0.14324951,-22.65625,-1.46875,-21.609375
34,0.7426758,-1.0418091,-0.034484863,-28.484375,-6.640625,-8.65625
35,0.60375977,-0.659729,-0.094055176,15.8125,6.90625,24.5625
36,0.123046875,-0.7715454,0.15740967,19.375,-29.03125,13.84375
37,-0.1538086,-0.9319458,0.22918701,-1.84375,-5.0,4.09375
38,-0.08105469,-0.69366455,0.04095459,12.921875,-15.578125,-15.1875
39,0.103515625,-0.6135864,0.054626465,17.640625,-4.125,-1.765625
40,0.012939453,-0.67755127,0.14056396,17.984375,14.0625,15.09375
41,0.07788086,-0.83477783,0.10321045,2.625,8.40625,7.578125
42,0.14257812,-0.84991455,0.30047607,4.0,3.984375,3.765625
43,0.035888672,-0.9841919,0.3427124,-12.421875,13.53125,11.640625
44,-0.1184082,-1.1714478,0.27264404,-8.546875,2.28125,-6.546875
45,-0.0017089844,-1.1497192,0.29656982,-8.0,4.734375,-16.046875
46,-0.068115234,-1.2556763,0.19207764,-8.71875,12.265625,-10.484375
47,0.041015625,-1.5064087,-0.02960205,11.953125,9.921875,-27.140625
48,0.2824707,-1.2424927,-0.16021729,-3.0,2.0625,-23.71875
49,0.27856445,-0.9776001,-0.24639893,16.578125,12.28125,0.375
50,0.09887695,-0.8015747,-0.12408447,0.015625,4.484375,-0.578125
51,0.061035156,-0.92852783,0.041931152,0.34375,8.640625,18.171875
52,0.09448242,-0.8587036,0.09051514,1.5,7.875,15.921875
53,0.02368164,-0.8430786,0.1749878,1.9375,-0.0625,6.34375
54,0.029541016,-0.642395,-0.010314941,-5.3125,-11.109375,4.171875
55,-0.028564453,-0.6802368,-0.06402588,16.1875,-22.65625,10.6875
56,-0.09765625,-0.8755493,0.11663818,16.515625,-28.625,2.03125
57,-0.087402344,-1.019104,0.23309326,5.78125,-6.375,4.921875
58,-0.111572266,-1.0647583,0.17108154,-0.984375,-1.25,3.5
59,-0.15600586,-1.2349243,0.24871826,4.0625,-0.65625,-6.125
60,-0.16064453,-1.3521118,0.2506714,-24.828125,-0.59375,-3.453125
61,-0.0234375,-1.4902954,0.113708496,-25.515625,0.640625,-13.15625
62,0.40478516,-1.3152466,0.101501465,-26.0625,3.3125,-13.46875
63,0.9206543,-1.010315,-0.2498169,17.578125,2.296875,12.578125
64,0.13183594,-0.62628174,0.14666748,0.015625,-13.90625,29.1875
65,-0.111328125,-0.9998169,0.16522217,-4.515625,-14.234375,-1.09375
66,-0.13574219,-0.8555298,0.12030029,23.296875,-1.421875,-10.984375
67,0.19921875,-0.66656494,0.008728027,-3.734375,2.859375,-16.234375
68,0.076416016,-0.6626587,0.18084717,6.5625,7.0,10.625
69,-0.01586914,-0.741272,0.2189331,11.0625,2.625,12.578125
70,0.064941406,-0.7839966,0.22845459,5.3125,-7.984375,2.03125
71,0.095703125,-0.88360596,0.27947998,-6.125,3.375,5.578125
72,-0.034179688,-1.0574341,0.26141357,-7.421875,4.828125,-5.140625
73,-0.02368164,-1.2612915,0.38494873,-0.75,5.0,-16.390625
74,-0.17114258,-1.1965942,0.2753296,-7.359375,6.015625,-14.59375
75,-0.43701172,-1.5169067,-0.026916504,9.90625,20.265625,-36.6875
76,0.6882324,-1.3626099,-0.25616455,-14.921875,26.671875,-12.0625
77,0.2998047,-0.9793091,-0.14483643,34.28125,27.1875,12.109375
78,0.08251953,-0.86431885,-0.16607666,-7.640625,8.09375,-7.421875
79,0.083740234,-1.0037231,0.029968262,15.515625,14.234375,17.375
80,0.095703125,-0.82476807,0.070495605,-7.140625,11.1875,-6.953125
81,0.118652344,-0.753479,0.07611084,14.328125,2.8125,-1.4375
82,0.060546875,-0.59259033,0.026062012,14.15625,-7.0625,10.84375
83,-0.14355469,-0.6868286,-0.002746582,20.859375,-16.46875,7.65625
84,-0.18310547,-0.96466064,0.1071167,29.09375,-16.8125,-1.375
85,-0.095947266,-1.1306763,0.08856201,-0.234375,-5.96875,3.46875
86,-0.1665039,-1.0596313,0.08734131,-13.90625,9.046875,3.34375
87,-0.114990234,-1.1148071,0.20135498,-21.734375,1.046875,-3.546875
88,-0.052001953,-1.3787231,0.20452881,-50.71875,4.953125,4.078125
89,0.059326172,-1.6348267,0.16668701,-48.734375,-4.546875,-16.328125
90,0.5554199,-1.3604126,0.05731201,-34.609375,-12.109375,-12.21875
91,0.6816406,-0.97247314,-0.18096924,30.203125,-7.78125,24.421875
92,0.14624023,-0.6375122,-0.019836426,4.46875,-14.765625,22.75
93,-0.087646484,-0.8999634,0.19403076,-9.078125,-18.578125,0.15625
94,-0.03491211,-0.8584595,0.11199951,-7.34375,-13.421875,-1.84375
95,0.13574219,-0.7617798,0.08099365,12.609375,-14.890625,-8.734375
96,0.044433594,-0.67510986,0.23114014,15.84375,-7.359375,4.703125
97,-0.037841797,-0.7139282,0.2904663,13.15625,-3.140625,7.265625
98,0.0021972656,-0.83551025,0.3085327,-1.796875,-10.171875,3.90625
99,0.079833984,-0.9036255,0.36395264,-9.4375,2.5625,2.078125
100,-0.045654297,-0.9866333,0.29364014,-0.609375,1.703125,-4.1875
101,0.06274414,-1.1189575,0.26800537,2.078125,6.875,-12.265625
102,0.14379883,-1.3157349,0.39764404,-4.984375,17.625,-2.265625
103,0.03540039,-1.5203247,0.17376709,13.0625,-5.953125,-27.1875
104,0.10083008,-1.2554321,-0.15826416,8.390625,2.109375,-20.125
105,0.2133789,-0.96221924,-0.22955322,18.390625,13.5625,3.75
106,-0.013427734,-0.89801025,-0.109436035,6.3125,5.5625,-3.84375
107,0.08178711,-0.9019165,0.04559326,-7.375,14.09375,12.734375
108,0.07788086,-0.7424927,0.09197998,3.875,15.453125,10.21875
109,0.05102539,-0.7241821,0.13861084,-1.25,0.09375,-0.578125
110,0.029785156,-0.69000244,0.042419434,2.578125,-5.359375,6.109375
111,-0.006591797,-0.73565674,0.007019043,15.234375,-9.25,6.140625
112,-0.09033203,-0.93878174,0.15130615,22.578125,-9.453125,0.921875
113,-0.14379883,-1.1021118,0.21014404,15.390625,2.6875,3.546875
114,-0.13842773,-1.0652466,0.21746826,5.125,3.4375,1.296875
115,-0.14453125,-1.0796509,0.1083374,1.53125,-1.78125,-4.078125
116,-0.026611328,-1.3999634,0.22210693,-34.046875,4.296875,0.0
117,-0.0014648438,-1.6138306,0.06732178,-24.296875,-0.21875,-4.984375
118,0.4633789,-1.2393188,-0.062561035,-15.40625,-7.953125,-11.1875
119,0.5756836,-0.98687744,-0.237854,26.59375,-4.984375,12.53125
120,-0.1003418,-0.7774048,0.028015137,5.453125,-2.34375,19.0
121,-0.055908203,-0.9458618,0.06707764,30.84375,-10.15625,-8.921875
122,-0.053222656,-0.9319458,0.010192871,12.671875,6.390625,-0.890625
123,0.100097656,-0.76690674,-0.07989502,-13.40625,5.5625,-3.453125
124,0.020996094,-0.6734009,0.008483887,6.5625,1.703125,8.671875
125,0.030029297,-0.7647095,0.120788574,9.265625,3.53125,16.15625
126,0.07910156,-0.8213501,0.12860107,0.71875,5.578125,8.4375
127,0.013916016,-0.8711548,0.13885498,-4.921875,2.796875,6.375
128,-0.13476562,-1.0530396,0.14691162,-1.578125,4.640625,-0.796875
129,0.006591797,-1.2490845,0.22796631,-21.484375,1.546875,-12.6875
130,0.0061035156,-1.2869263,0.11102295,1.984375,8.9375,-5.375
131,-0.07055664,-1.6304321,0.030456543,21.171875,5.0,-19.859375
132,0.5383301,-1.3045044,-0.26055908,-12.90625,5.1875,-18.3125
133,0.18188477,-0.8406372,-0.2937622,12.53125,13.171875,2.453125
134,-0.005126953,-0.76031494,-0.2617798,-3.578125,18.3125,-1.484375
135,0.10668945,-1.0298462,-0.05645752,12.859375,11.0,14.0
136,0.10913086,-0.91363525,-0.030822754,-15.515625,10.53125,-1.546875
137,0.07495117,-0.7214966,0.0040893555,3.796875,9.921875,1.09375
138,0.0925293,-0.59747314,0.014343262,10.203125,-2.0,9.921875
139,-0.09716797,-0.6055298,-0.0178833,16.40625,-11.890625,2.125
140,-0.1340332,-0.7764282,0.07879639,28.15625,-11.046875,-4.265625
141,-0.060302734,-1.0808716,0.093444824,5.40625,-7.578125,3.609375
142,-0.09448242,-1.1262817,-0.030578613,-12.671875,6.359375,6.875
143,-0.16723633,-1.1355591,0.12835693,-2.6875,6.0,-0.953125
144,-0.10961914,-1.2468872,0.1515503,-32.75,4.828125,-4.984375
145,-0.19555664,-1.5188599,0.09564209,-26.34375,3.546875,-7.65625
146,0.03515625,-1.5147095,0.0079956055,-44.015625,4.03125,-21.9375
147,0.68725586,-1.0725708,-0.14508057,-30.78125,-2.5625,-18.078125
148,0.5605469,-0.7293091,-0.2444458,4.671875,-0.578125,23.78125
149,-0.031982422,-0.7581177,0.17181396,15.53125,-13.53125,12.9375
150,-0.006591797,-0.8897095,0.15814209,8.4375,-9.8125,2.984375
151,0.00024414062,-0.817688,0.06512451,5.09375,-11.5625,-6.65625
152,0.11328125,-0.6812134,0.051696777,5.21875,-10.53125,-6.921875
153,0.017089844,-0.77471924,0.1293335,8.53125,-7.5625,9.5625
154,-0.087646484,-0.8713989,0.19671631,2.6875,-7.1875,3.78125
155,0.02734375,-0.92559814,0.28118896,-15.234375,-1.21875,3.5
156,-0.0031738281,-0.9282837,0.34539795,-11.875,5.328125,5.5
157,-0.10229492,-0.9795532,0.27020264,-5.5625,-1.953125,-5.828125
158,-0.015380859,-1.1651001,0.3036499,2.78125,1.625,-8.0
159,-0.083984375,-1.281311,0.07171631,-0.796875,8.671875,0.140625
160,-0.022949219,-1.5842896,-0.024475098,32.171875,14.796875,-24.859375
161,0.4428711,-1.1472778,-0.32647705,-19.640625,7.3125,-16.796875
162,0.20996094,-0.864563,-0.27130127,25.53125,25.90625,11.46875
163,0.07006836,-1.0049438,-0.07574463,3.25,14.5,6.40625
164,0.19335938,-1.0186157,0.03314209,-9.828125,31.53125,18.453125
165,0.118652344,-0.8440552,0.11590576,6.0625,6.640625,-2.15625
166,0.08544922,-0.7214966,0.12030029,-0.125,-1.015625,-0.5625
167,0.02368164,-0.57476807,0.0036010742,-0.40625,-7.03125,11.53125
168,-0.14672852,-0.6433716,0.044128418,8.6875,-17.046875,2.953125
169,-0.12548828,-0.87701416,0.11395264,14.796875,-6.8125,-4.265625
170,-0.07128906,-1.0391235,0.109313965,2.359375,-1.0625,1.25
171,-0.11645508,-1.1487427,0.19012451,1.8125,3.484375,1.65625
172,-0.11621094,-1.1453247,0.22650146,-6.875,1.640625,-7.9375
173,-0.18408203,-1.2913208,0.05706787,-32.25,3.546875,-4.359375
174,0.07836914,-1.7288208,-0.046447754,-14.5,6.8125,-26.796875
175,0.7285156,-1.2398071,-0.09625244,-22.609375,-4.96875,-10.921875
176,0.5476074,-0.87042236,-0.14556885,5.6875,-11.75,23.21875
177,-0.052246094,-0.7366333,0.078063965,-4.03125,-14.765625,15.1875
178,-0.10913086,-0.95513916,0.20574951,16.875,-10.578125,-0.46875
179,-0.07788086,-0.81866455,0.021911621,14.078125,-1.078125,-10.890625
180,0.12719727,-0.68292236,-0.015930176,-4.265625,0.59375,-8.125
181,0.037353516,-0.7151489,0.07733154,23.28125,2.53125,14.03125
182,-0.018798828,-0.8936157,0.15570068,9.765625,0.609375,10.625
183,0.18334961,-0.91485596,0.20404053,-2.4375,-10.46875,0.53125
184,0.009765625,-0.87823486,0.27069092,1.21875,4.390625,12.53125
185,-0.1616211,-0.9961548,0.24383545,-1.515625,6.328125,2.609375
186,-0.01586914,-1.1887817,0.27972412,-10.6875,4.4375,-18.578125
187,0.075927734,-1.2588501,0.14129639,-11.078125,6.125,-11.109375
188,-0.095703125,-1.7158813,-0.05303955,21.296875,14.9375,-20.3125
189,0.7080078,-1.335022,-0.37579346,-42.65625,2.4375,-20.765625
190,0.3774414,-0.85894775,-0.22589111,35.53125,10.3125,11.25
191,0.046875,-0.71588135,-0.18096924,0.6875,0.9375,10.328125
192,-0.064453125,-0.987854,0.13446045,16.875,7.078125,20.71875
193,0.07739258,-0.8609009,0.039245605,-27.421875,1.296875,-2.640625
194,0.12133789,-0.7476196,0.012878418,13.015625,-5.046875,-6.703125
195,0.08642578,-0.61602783,0.018005371,17.390625,-12.234375,9.578125
196,-0.05029297,-0.7012329,-0.07525635,9.171875,-16.359375,4.53125
197,-0.09741211,-0.9038696,0.12176514,25.3125,-14.359375,-7.9375
198,-0.018066406,-1.0584106,0.19989014,5.265625,5.046875,1.578125
199,-0.21704102,-1.0852661,0.07879639,-14.3125,5.125,3.09375
200,-0.2680664,-1.1414185,0.17156982,-5.046875,-3.4375,-7.75
201,-0.13330078,-1.3743286,0.1395874,-22.640625,2.03125,-11.75
202,0.018554688,-1.6135864,0.117614746,-22.796875,8.75,-14.421875
203,0.32983398,-1.4395142,0.06854248,-40.59375,-2.84375,-14.609375
204,0.8066406,-0.9475708,-0.30670166,-7.171875,-8.609375,-3.65625
205,0.12866211,-0.5269165,-0.12506104,5.4375,-11.4375,19.296875
206,-0.16503906,-0.9649048,0.23846436,9.546875,-23.0625,-0.4375
207,-0.22387695,-0.8743286,0.09686279,8.78125,2.375,-0.015625
208,0.09472656,-0.756897,-0.0869751,-11.828125,-3.328125,-13.015625
209,0.072753906,-0.73687744,0.12591553,6.890625,-7.75,1.4375
210,-0.016113281,-0.84454346,0.24603271,0.203125,2.078125,13.171875
211,-0.02709961,-0.96661377,0.24334717,-9.515625,-1.859375,6.484375
212,-0.020019531,-0.92633057,0.33807373,-13.046875,4.1875,7.96875
213,-0.19165039,-0.9295044,0.21136475,-12.890625,-5.03125,0.078125
214,-0.10131836,-1.1404419,0.3085327,1.671875,3.46875,-4.3125
215,-0.042236328,-1.1953735,0.34710693,-1.0,13.1875,-5.5
216,-0.072509766,-1.50177,0.08441162,8.359375,11.453125,-23.453125
217,0.22705078,-1.354065,-0.20977783,-3.46875,20.390625,-15.8125
218,0.27172852,-0.9143677,-0.29864502,20.09375,25.53125,3.78125
219,0.111328125,-0.9331665,-0.08648682,13.90625,19.921875,5.375
220,0.056640625,-1.0447388,0.11444092,-1.71875,30.953125,22.40625
221,0.008056641,-0.83721924,0.0680542,-8.328125,17.140625,-0.828125
222,0.037841797,-0.66412354,0.07171631,5.53125,5.40625,-5.765625
223,0.072753906,-0.56207275,0.0021362305,8.921875,2.921875,10.03125
224,0.01953125,-0.6675415,-0.027893066,20.40625,-0.546875,11.921875
225,-0.0703125,-0.87750244,0.09197998,30.5625,-8.640625,2.296875
226,-0.056396484,-1.1167603,0.105163574,19.59375,-5.546875,4.140625
227,-0.10839844,-1.1934204,0.13934326,-0.09375,2.90625,4.734375
228,-0.17675781,-1.1797485,0.13104248,3.234375,-4.96875,-3.390625
229,-0.14477539,-1.375061,0.08782959,-43.28125,-2.703125,-3.375
230,0.080322266,-1.5501099,-0.059143066,-43.015625,-6.59375,-21.28125
231,0.8671875,-1.0964966,-0.17315674,-32.8125,-2.40625,-10.421875
232,0.5559082,-0.80670166,-0.077697754,-10.171875,-18.0,31.28125
233,-0.1772461,-0.8442993,0.15985107,0.875,-18.140625,17.96875
234,-0.13598633,-1.053772,0.21429443,29.3125,-11.828125,-6.53125
235,-0.08276367,-0.8401489,0.04852295,27.09375,-16.859375,-11.796875
236,0.19165039,-0.6699829,-0.058166504,6.359375,-8.125,-7.4375
237,0.013671875,-0.6682739,0.124938965,10.859375,-2.359375,12.828125
238,-0.043701172,-0.80841064,0.21038818,7.921875,-7.265625,11.921875
239,0.07543945,-0.87945557,0.20159912,-7.21875,-5.703125,5.890625
240,-0.004638672,-0.9673462,0.2111206,-6.84375,-0.453125,7.65625
241,-0.09472656,-1.1033325,0.23382568,4.78125,-0.25,-9.6875
242,0.0053710938,-1.1856079,0.3270874,-7.515625,3.65625,-15.359375
243,-0.1262207,-1.4387817,0.046569824,10.203125,10.328125,-7.90625
244,0.16113281,-1.7505493,-0.10284424,-2.484375,23.328125,-28.6875
245,0.64038086,-0.9780884,-0.23321533,12.984375,22.375,-8.078125
246,0.104003906,-0.62823486,-0.32965088,6.453125,29.078125,7.515625
247,-0.0029296875,-0.9121704,-0.015686035,13.609375,10.265625,8.5
248,0.22924805,-1.0681763,0.053894043,-13.21875,11.390625,8.046875
249,0.16821289,-0.8960571,0.034362793,-3.84375,7.515625,-7.546875
250,0.08935547,-0.62164307,0.03753662,13.625,-6.125,-0.46875
251,0.0126953125,-0.5774536,-0.03302002,13.203125,-13.0,5.140625
252,-0.103759766,-0.7317505,0.001159668,27.984375,-17.984375,-2.125
253,-0.060791016,-1.0078735,0.11785889,24.96875,-12.53125,-4.890625
254,-0.048339844,-0.9678345,-0.010070801,-5.265625,8.203125,7.734375
255,-0.17138672,-1.1152954,0.15203857,-7.484375,5.953125,3.171875
256,-0.22802734,-1.263977,0.26068115,-17.453125,-4.03125,-4.703125
257,-0.042236328,-1.3809204,0.22283936,-57.546875,0.875,-5.203125
258,0.029296875,-1.4551392,0.04046631,-31.65625,-11.578125,-20.21875
259,0.60546875,-1.303772,-0.038635254,-33.96875,-19.734375,-18.90625
260,0.6599121,-0.98101807,-0.2539673,7.5625,-16.125,27.734375
261,-0.02734375,-0.72857666,0.050476074,-2.265625,-24.5625,22.5625
262,-0.15283203,-0.98101807,0.31732178,-7.25,-23.078125,0.796875
263,-0.107666016,-0.86138916,0.006286621,7.484375,-14.6875,-0.59375
264,0.022705078,-0.70440674,0.058044434,16.59375,-14.3125,-9.578125
265,-0.0087890625,-0.6758423,0.2098999,22.46875,-3.078125,3.828125
266,-0.020263672,-0.74346924,0.24945068,5.3125,3.671875,6.25
267,0.06982422,-0.82354736,0.30950928,-13.0,0.21875,7.703125
268,-0.06958008,-0.9468384,0.33709717,-20.921875,10.21875,6.984375
269,-0.10424805,-1.0879517,0.23602295,-10.46875,0.734375,-12.078125
270,0.064941406,-1.1924438,0.35760498,-3.5,3.59375,-7.65625
271,-0.029052734,-1.3652954,0.21722412,-13.296875,12.15625,0.890625
272,0.16870117,-1.6668091,0.09075928,6.109375,3.234375,-21.6875
273,0.24780273,-1.1426392,-0.034240723,28.0,6.0,-11.484375
274,-0.05126953,-0.82476807,-0.1272583,18.984375,11.6875,-4.734375
275,-0.022460938,-0.9126587,-0.04547119,-1.65625,21.03125,4.3125
276,-0.0075683594,-0.88409424,-0.05206299,-7.296875,16.671875,6.265625
277,-0.028320312,-0.84991455,0.0692749,13.796875,16.25,-2.859375
278,0.072753906,-0.6951294,0.055114746,14.84375,21.453125,7.03125
279,0.111816406,-0.65753174,0.046325684,12.171875,14.875,11.078125
280,-0.009277344,-0.7815552,0.1071167,10.703125,-0.078125,12.40625
281,-0.083496094,-0.9697876,0.168396,11.09375,-5.5,9.359375
282,-0.16259766,-1.0540161,0.097595215,9.84375,-0.0625,7.9375
283,-0.21240234,-1.0567017,0.078552246,5.546875,2.78125,2.5625
284,-0.1484375,-1.1463013,0.081970215,-5.203125,2.96875,-4.140625
285,-0.1665039,-1.359436,0.12005615,-32.96875,3.796875,-0.921875
286,0.0063476562,-1.6929321,0.04534912,-25.890625,8.8125,-20.65625
287,0.6154785,-1.1436157,-0.06573486,-29.625,3.5,-12.6875
288,0.6748047,-0.9475708,-0.061584473,19.796875,-4.015625,14.453125
289,0.104003906,-0.75787354,0.08416748,-0.53125,-18.203125,21.9375
290,-0.07055664,-0.90704346,0.13250732,-12.890625,-14.328125,-2.375
291,0.0014648438,-0.8418579,0.11175537,11.453125,-20.09375,-8.203125
292,0.20336914,-0.7620239,0.11785889,4.703125,-12.046875,-9.171875
293,0.005859375,-0.69244385,0.1564331,5.296875,-5.015625,5.859375
294,-0.12963867,-0.7451782,0.21502686,-1.640625,-1.875,-0.046875
295,0.05078125,-0.83721924,0.23822021,-8.84375,3.3125,6.78125
296,0.09033203,-0.87164307,0.2699585,-3.40625,8.796875,9.515625
297,-0.10522461,-1.0239868,0.2850952,-3.203125,7.09375,7.359375
298,-0.05029297,-1.2192993,0.36151123,-8.515625,10.546875,-9.390625
299,-0.033935547,-1.1651001,0.40325928,2.984375,11.5,-12.28125
300,-0.12670898,-1.3833618,0.11907959,20.53125,14.90625,-19.796875
301,0.26904297,-1.6243286,-0.11651611,0.171875,21.5,-26.203125
302,0.32958984,-1.0794067,-0.12579346,17.71875,13.625,3.59375
303,0.06738281,-0.66900635,-0.19268799,6.28125,14.65625,-3.359375
304,0.0949707,-0.8262329,-0.023498535,13.40625,11.453125,6.65625
305,0.11425781,-0.8442993,0.034851074,6.390625,8.46875,7.546875
306,0.15771484,-0.8413696,-0.007385254,5.03125,7.421875,-2.890625
307,0.17700195,-0.755188,-0.013244629,12.5,-3.1875,9.375
308,-0.0053710938,-0.72369385,0.020202637,19.453125,-11.03125,11.3125
309,-0.18066406,-0.8731079,0.093444824,30.703125,-14.90625,-1.109375
310,-0.18945312,-1.069397,0.16131592,19.046875,-11.484375,-2.0625
311,-0.11328125,-1.0513306,0.1359253,-6.75,-0.359375,3.875
312,-0.059570312,-1.0147095,0.05731201,-9.96875,2.0,-0.65625
313,-0.09277344,-1.1863403,0.09832764,-7.28125,-0.03125,-2.484375
314,-0.21289062,-1.329895,0.18353271,-53.921875,1.859375,6.59375
315,0.06616211,-1.5178833,0.07171631,-40.046875,-3.734375,-24.78125
316,0.81762695,-1.2158813,-0.21124268,-12.671875,9.421875,-7.1875
317,0.69799805,-0.80352783,-0.12799072,22.546875,-27.46875,28.109375
318,-0.111572266,-0.89190674,0.15179443,12.734375,-21.125,22.984375
319,-0.25268555,-1.0637817,0.21429443,14.8125,-20.015625,-4.515625
320,-0.087402344,-0.81573486,-0.0022583008,13.03125,-13.515625,-13.453125
321,0.26391602,-0.5606079,-0.07745361,-7.59375,-2.484375,-11.0
322,0.083496094,-0.7439575,0.14837646,9.046875,-1.421875,8.671875
323,0.036376953,-0.8389282,0.19915771,-2.0625,2.828125,10.46875
324,0.08935547,-0.8374634,0.24481201,-9.46875,1.9375,14.296875
325,-0.060302734,-0.86553955,0.2994995,-3.421875,1.859375,11.609375
326,-0.083984375,-1.0545044,0.21258545,1.390625,-4.046875,-3.15625
327,0.07324219,-1.2158813,0.32196045,-9.90625,2.96875,-8.546875
328,0.05444336,-1.3635864,0.17059326,-0.28125,5.453125,-5.34375
329,0.18774414,-1.6182251,-0.020080566,4.625,-14.203125,-28.890625
330,0.49145508,-1.177063,-0.28277588,2.40625,10.109375,-9.375
331,0.07836914,-0.7061157,-0.24273682,13.828125,9.609375,-0.703125
332,-0.037841797,-0.90582275,0.012145996,0.28125,11.1875,5.125
333,0.017578125,-0.9788208,-0.019836426,-13.828125,14.734375,10.96875
334,0.13500977,-0.96051025,0.00970459,-0.453125,10.140625,-0.984375
335,0.11767578,-0.79034424,0.14593506,11.234375,11.25,0.859375
336,0.019042969,-0.631897,0.07635498,1.140625,8.109375,9.0625
337,-0.075927734,-0.66656494,0.066345215,1.25,-4.296875,1.15625
338,-0.023925781,-0.784729,0.12982178,8.265625,-6.453125,-1.375
339,-0.028320312,-0.9434204,0.14837646,11.421875,1.4375,4.359375
340,-0.060058594,-1.1838989,0.15008545,10.84375,2.890625,6.0
341,-0.087402344,-1.2532349,0.26068115,-11.578125,3.234375,5.03125
342,-0.080078125,-1.3399048,0.1852417,-36.546875,-3.84375,5.125
343,0.07763672,-1.6306763,0.10467529,-25.234375,-2.296875,-13.375
344,0.63964844,-1.0830688,-0.23834229,-34.703125,-23.796875,-23.625
345,0.73046875,-0.8892212,-0.26446533,15.296875,-13.0,13.015625
346,-0.030273438,-0.98394775,0.14251709,-2.828125,-37.671875,17.234375
347,-0.24536133,-0.9624634,0.12322998,4.03125,-19.953125,-3.921875
348,-0.043701172,-0.7317505,0.062927246,7.109375,-18.53125,-18.984375
349,0.16625977,-0.75665283,0.039001465,3.265625,-12.5,-10.359375
350,0.07763672,-0.647522,0.22601318,6.015625,-6.25,2.609375
351,0.015136719,-0.77838135,0.3163452,0.625,-4.5625,4.9375
352,-0.004638672,-0.79644775,0.30560303,-1.4375,-6.578125,3.671875
353,-0.21484375,-0.9817505,0.24139404,-14.59375,11.046875,9.265625
354,-0.056640625,-1.0757446,0.16790771,1.5625,11.28125,-6.125
355,-0.01171875,-1.1895142,0.37078857,-3.953125,15.21875,-2.78125
356,-0.18603516,-1.3150024,0.14569092,-8.265625,6.96875,-11.125
357,0.10888672,-1.404602,0.003112793,18.75,21.84375,-31.546875
358,0.4560547,-1.3128052,-0.13189697,2.75,20.734375,-3.453125
359,0.18847656,-0.8501587,-0.18292236,11.5,12.59375,-2.359375
360,0.015625,-1.0349731,-0.11651611,15.140625,11.15625,1.796875
361,0.036132812,-1.0684204,-0.0095825195,5.765625,17.140625,11.640625
362,0.1381836,-0.8442993,0.12542725,-3.4375,15.125,1.359375
363,0.13208008,-0.6602173,0.10272217,-5.828125,0.953125,3.734375
364,0.025146484,-0.536438,0.024353027,13.0625,-4.265625,10.703125
365,-0.0637207,-0.70391846,-0.0115356445,26.078125,-14.40625,2.59375
366,-0.111816406,-0.8701782,0.101257324,27.53125,-13.828125,-2.375
367,-0.10864258,-1.06427,0.12030029,12.546875,-2.84375,5.203125
368,-0.1508789,-1.2034302,0.1642456,1.21875,1.8125,2.984375
369,-0.18603516,-1.1868286,0.2567749,-10.46875,1.078125,-1.953125
370,-0.08984375,-1.3245239,0.15350342,-43.671875,7.09375,-0.375
371,0.12182617,-1.6973267,0.028747559,-46.640625,12.3125,-17.359375
372,0.6953125,-1.4736938,-0.13092041,-13.9375,-4.125,-7.609375
373,0.5805664,-0.8501587,-0.18804932,-0.9375,-18.625,11.46875
374,-0.106933594,-0.64849854,0.07537842,-5.59375,-9.734375,13.359375
375,-0.1496582,-0.98394775,0.27020264,21.359375,-10.90625,-0.53125
376,-0.09448242,-0.91290283,0.04071045,8.359375,-9.75,-7.390625
377,0.115722656,-0.64801025,-0.09820557,-1.296875,-2.375,-6.671875
378,-0.0073242188,-0.6421509,0.11517334,14.203125,-8.203125,9.09375
379,-0.06518555,-0.76934814,0.1552124,5.171875,-0.578125,9.59375
380,0.13647461,-0.83013916,0.25628662,8.6875,0.859375,6.25
381,0.056640625,-0.99591064,0.35638428,-9.359375,15.578125,16.359375
382,-0.045654297,-1.0647583,0.26068115,-14.59375,3.90625,0.859375
383,-0.088378906,-1.1253052,0.25091553,-1.6875,-4.4375,-18.40625
384,0.05444336,-1.1602173,0.34613037,-9.046875,2.578125,-13.859375
385,-0.0087890625,-1.5960083,-0.02178955,16.578125,10.3125,-3.671875
386,0.3659668,-1.4563599,-0.24078369,-13.671875,8.8125,-11.875
387,0.20166016,-0.8809204,-0.27398682,24.921875,6.8125,-9.0
388,0.010986328,-0.833313,-0.17999268,-8.78125,14.578125,-3.140625
389,0.12231445,-1.0745239,0.06121826,-11.734375,12.828125,14.0
390,0.14501953,-0.93341064,0.13763428,-19.421875,17.375,4.109375
391,0.03491211,-0.6968384,0.1618042,7.578125,8.953125,-1.21875
392,-0.028808594,-0.53790283,0.062194824,4.90625,-3.421875,3.015625
393,-0.061279297,-0.63775635,-0.007873535,2.546875,-19.546875,0.609375
394,-0.032470703,-0.89263916,0.184021,9.484375,-13.109375,4.3125
395,-0.043945312,-1.0254517,0.19940186,-0.390625,7.171875,10.875
396,-0.20092773,-1.1558228,0.24456787,11.4375,8.40625,5.609375
397,-0.15112305,-1.1497192,0.28289795,-8.109375,2.390625,-1.96875
398,-0.10424805,-1.2756958,0.3522339,-32.265625,2.546875,0.859375
399,-0.011962891,-1.4644165,0.22235107,-23.78125,-6.265625,-5.15625
400,0.29736328,-1.4055786,0.22698975,-31.015625,0.75,-17.578125
401,0.7529297,-0.9780884,-0.2210083,15.875,-16.8125,-5.328125
402,0.44702148,-0.6567993,-0.1038208,23.015625,-18.34375,25.09375
403,-0.17480469,-0.94244385,0.14154053,1.625,-22.578125,13.828125
404,-0.1784668,-0.95635986,0.18109131,9.09375,-7.046875,5.390625
405,0.034423828,-0.7739868,0.05340576,10.59375,-9.328125,-13.125
406,0.05908203,-0.72906494,0.14129639,10.078125,-2.15625,-2.34375
407,0.011962891,-0.7029419,0.21868896,10.375,5.640625,9.125
408,0.004638672,-0.8364868,0.2140503,-1.15625,2.828125,9.953125
409,0.011230469,-0.88482666,0.32513428,-5.171875,1.234375,6.890625
410,-0.107910156,-0.987854,0.26312256,-11.59375,-0.25,-1.859375
411,-0.0690918,-1.0859985,0.21624756,-8.671875,5.265625,-11.703125
412,-0.007080078,-1.140686,0.4142456,-6.65625,16.34375,-10.578125
413,-0.05883789,-1.5278931,0.13690186,5.734375,10.859375,-19.921875
414,0.25512695,-1.3616333,-0.058654785,-13.21875,0.78125,-33.953125
415,0.22729492,-1.0244751,-0.21514893,16.09375,22.015625,-8.484375
416,0.030761719,-0.87384033,-0.10699463,2.5,19.609375,-3.671875
417,0.0703125,-1.0230103,0.04852295,-7.859375,27.96875,11.0
418,0.13476562,-0.94903564,0.11224365,6.609375,28.609375,3.96875
419,0.17480469,-0.7781372,0.121032715,14.9375,15.46875,-0.984375
420,0.106933594,-0.61138916,0.05609131,7.34375,3.578125,8.734375
421,-0.03173828,-0.64508057,0.0038452148,15.6875,-7.203125,12.765625
422,-0.020263672,-0.8032837,0.07293701,31.09375,-19.25,1.234375
423,-0.064941406,-1.0252075,0.15057373,23.375,-12.28125,4.9375
424,-0.15820312,-1.1021118,0.13568115,8.84375,-6.015625,5.859375
425,-0.1652832,-1.1306763,0.21990967,8.390625,-7.359375,-1.265625
426,-0.09863281,-1.2432251,0.2345581,-16.671875,-3.859375,-2.859375
427,-0.072509766,-1.4075317,0.11859131,-39.625,-4.5,0.9375
428,0.06958008,-1.4055786,0.0993042,-36.0,-14.9375,-15.296875
429,0.5390625,-1.0344849,-0.105285645,-2.671875,-5.78125,-12.046875
430,0.5136719,-0.88897705,-0.2234497,5.265625,-16.59375,20.3125
431,-0.03125,-0.81085205,0.12298584,17.53125,-24.625,10.296875
432,-0.10083008,-1.0283813,0.11273193,27.90625,-18.171875,-1.203125
433,-0.045654297,-0.8687134,0.04876709,-0.1875,-2.4375,-8.859375
434,0.17871094,-0.6392212,-0.08282471,-14.78125,-5.796875,-6.078125
435,-0.0087890625,-0.66534424,0.11541748,7.171875,-9.25,11.6875
436,-0.044433594,-0.82891846,0.21258545,-2.671875,-2.1875,10.828125
437,0.0107421875,-0.88848877,0.22088623,-14.28125,-7.3125,1.234375
438,-0.080322266,-0.8892212,0.2670288,-11.234375,2.765625,11.0
439,-0.16699219,-1.0881958,0.23480225,3.53125,5.359375,0.046875
440,0.024658203,-1.1030884,0.25604248,-6.046875,10.625,-12.953125
441,0.016113281,-1.2783813,0.12835693,7.0,20.140625,-1.640625
442,0.0026855469,-1.8213501,0.03265381,9.109375,3.921875,-32.203125
443,0.5283203,-1.0457153,-0.31500244,19.21875,21.3125,-5.0625
444,0.0234375,-0.72320557,-0.24029541,4.65625,19.1875,-3.90625
445,0.10229492,-1.0823364,-0.16339111,5.59375,28.03125,5.109375
446,0.1862793,-1.0374146,0.013122559,-5.421875,30.328125,17.234375
447,0.11694336,-0.8023071,-0.010803223,-20.890625,24.4375,-7.03125
448,0.18237305,-0.71466064,0.0770874,11.25,6.5625,3.15625
449,0.1159668,-0.59259033,0.036071777,3.078125,-0.90625,9.15625
450,-0.11254883,-0.6018677,0.018493652,11.6875,-14.484375,-0.84375
451,-0.11328125,-0.8101196,0.11810303,26.5,-14.34375,-9.28125
452,-0.08959961,-1.0098267,0.11785889,2.6875,-4.28125,2.65625
453,-0.12182617,-1.1599731,0.11981201,-0.40625,1.515625,1.828125
454,-0.111083984,-1.2163696,0.18133545,-12.78125,2.953125,-5.4375
455,-0.09741211,-1.3140259,0.27850342,-32.015625,5.0,-1.203125
456,-0.11743164,-1.4900513,0.15301514,-41.03125,2.828125,-11.96875
457,0.34960938,-1.347229,-0.0015258789,-7.609375,0.296875,-21.90625
458,1.0148926,-0.9619751,-0.22613525,38.046875,7.09375,5.765625
459,0.11743164,-0.73394775,-0.07623291,24.5625,-35.140625,31.453125
460,-0.18969727,-0.8892212,0.10614014,17.359375,-39.46875,-2.125
461,-0.18139648,-0.98321533,0.08905029,35.5625,-9.265625,-7.125
462,0.05859375,-0.7173462,-0.11602783,-11.890625,2.296875,-7.65625
463,0.068115234,-0.70562744,-0.024230957,-2.390625,-10.703125,-3.484375
464,-0.024414062,-0.8401489,0.21697998,5.125,-3.0625,10.890625
465,0.07055664,-0.88531494,0.22406006,-13.484375,-4.28125,2.015625
466,0.024414062,-0.8970337,0.19158936,-21.21875,-3.296875,3.921875
467,-0.114990234,-1.0039673,0.18353271,-12.671875,-1.5,0.03125
468,-0.1899414,-1.128479,0.22015381,-13.78125,2.46875,-14.828125
469,-0.023925781,-1.1216431,0.41888428,-9.8125,12.96875,-6.734375
470,-0.14257812,-1.3413696,0.15985107,-3.125,7.25,-11.328125
471,0.2290039,-1.4690552,-0.018859863,-16.78125,14.375,-15.8125
472,0.34643555,-1.1409302,-0.26324463,28.3125,8.71875,-2.046875
473,0.045654297,-0.8171997,-0.2312622,10.828125,15.203125,1.921875
474,0.03955078,-0.9631958,-0.030334473,-2.328125,16.234375,7.640625
475,0.1706543,-1.0796509,0.11859131,-4.28125,19.765625,13.984375
476,0.19140625,-0.91070557,0.14007568,-0.59375,13.65625,2.46875
477,0.13476562,-0.66778564,0.10394287,8.546875,-4.5625,5.078125
478,-0.0056152344,-0.56207275,0.020935059,11.640625,-8.3125,12.375
479,-0.0847168,-0.7476196,0.066833496,19.6875,-15.828125,9.71875
480,-0.12036133,-0.98272705,0.15594482,28.765625,-7.296875,3.796875
481,-0.19189453,-1.0835571,0.1383667,12.328125,4.453125,6.484375
482,-0.07910156,-1.1130981,0.18353271,2.3125,5.65625,0.46875
483,0.0036621094,-1.1919556,0.15106201,1.40625,-3.125,-4.953125
484,-0.05810547,-1.3313599,0.12664795,-35.078125,-1.171875,4.015625
485,0.032714844,-1.571106,0.0060424805,-3.375,0.625,-9.625
486,0.53759766,-1.1558228,-0.13214111,-34.8125,5.15625,-18.546875
487,0.81884766,-0.8411255,-0.3501587,22.984375,-1.4375,16.375
488,-0.012939453,-0.8970337,0.19720459,18.78125,-28.609375,31.078125
489,-0.21679688,-0.9763794,0.08416748,6.1875,-23.515625,-3.765625
490,-0.07324219,-0.7835083,0.0048217773,5.15625,-5.96875,-18.34375
491,0.18920898,-0.7637329,-0.070617676,-9.734375,-4.859375,-13.5
492,0.052734375,-0.7539673,0.15447998,9.296875,-1.140625,3.953125
493,-0.025146484,-0.7871704,0.19622803,-3.546875,-2.03125,-1.046875
494,0.05834961,-0.77838135,0.21673584,-10.34375,-1.609375,-1.296875
495,-0.021972656,-0.8687134,0.22454834,-3.53125,-2.421875,6.734375
496,-0.083496094,-1.0518188,0.17938232,-3.515625,-1.25,-1.515625
497,-0.016113281,-1.1433716,0.22601318,-4.0625,8.46875,-6.984375
498,-0.06665039,-1.2971802,0.13787842,-4.859375,9.171875,-5.015625
499,0.03149414,-1.5193481,0.047546387,13.53125,5.5625,-26.890625
500,0.29736328,-1.2537231,-0.23956299,-5.109375,6.921875,-24.25
501,0.16357422,-1.0215454,-0.22442627,11.640625,16.546875,-4.921875
502,0.05859375,-0.92559814,-0.20831299,-3.609375,22.328125,-1.359375
503,0.12695312,-0.9907837,-0.12042236,0.125,24.234375,14.171875
504,0.10253906,-0.92510986,-0.0010375977,3.171875,14.28125,5.96875
505,0.11303711,-0.92144775,0.10369873,7.609375,11.109375,-0.765625
506,0.01586914,-0.6814575,0.08099365,1.171875,4.84375,11.21875
507,-0.072753906,-0.5935669,0.04046631,10.78125,-7.875,7.546875
508,-0.033203125,-0.7295532,0.0368042,20.375,-12.8125,2.09375
509,-0.0715332,-0.9116821,0.0914917,20.4375,-9.015625,6.125
510,-0.099609375,-1.0960083,0.046569824,13.65625,-7.65625,9.78125
511,-0.14257812,-1.1636353,0.0993042,0.46875,-4.078125,3.546875
512,-0.15893555,-1.2468872,0.14056396,-4.125,-3.484375,-0.890625
513,-0.18603516,-1.3215942,-0.004211426,-41.90625,-2.390625,0.90625
514,0.076171875,-1.5601196,0.006286621,-36.03125,-2.15625,-26.171875
515,0.7348633,-1.0962524,-0.14849854,-31.78125,9.515625,-7.65625
516,0.61816406,-0.80255127,-0.15924072,12.21875,-20.71875,23.265625
517,-0.02734375,-0.69659424,0.050476074,5.40625,-12.515625,16.828125
518,0.03564453,-0.9907837,0.14691162,31.765625,-13.25,0.625
519,0.06933594,-0.9104614,0.035339355,10.296875,-7.0625,-5.5
520,0.26513672,-0.6963501,-0.06036377,-18.046875,-5.671875,-8.03125
521,0.064208984,-0.6934204,0.13665771,-0.015625,-10.21875,12.8125
522,-0.061767578,-0.80133057,0.20892334,2.21875,-6.375,11.390625
523,-0.016601562,-0.86602783,0.14178467,-6.828125,-10.46875,-0.703125
524,0.007080078,-0.9192505,0.2518921,1.640625,2.21875,6.515625
525,-0.12182617,-1.0413208,0.20379639,-4.015625,7.234375,-1.9375
526,0.043945312,-1.1638794,0.26971436,-8.90625,9.1875,-13.609375
527,0.057617188,-1.223938,0.38079834,-10.3125,11.828125,-6.265625
528,-0.057861328,-1.585022,0.09906006,22.015625,11.390625,-27.46875
529,0.38891602,-1.6321411,-0.14508057,-18.234375,16.609375,-26.796875
530,0.34106445,-0.8875122,-0.28570557,22.515625,14.234375,3.296875
531,0.061279297,-0.6380005,-0.33673096,2.390625,10.8125,-4.125
532,0.13916016,-1.0186157,-0.074279785,10.09375,14.1875,10.359375
533,0.22241211,-1.0401001,0.020202637,-10.953125,6.859375,9.59375
534,0.16772461,-0.89971924,0.07244873,-8.875,6.703125,-3.0
535,0.029296875,-0.6260376,0.13323975,16.15625,-9.4375,6.28125
536,-0.09741211,-0.66729736,0.011169434,14.5,-13.046875,3.890625
537,-0.075683594,-0.8128052,0.040222168,27.90625,-15.578125,-3.65625
538,-0.08935547,-0.9373169,0.13861084,17.421875,-11.578125,-2.40625
539,-0.19677734,-0.98638916,0.112976074,-4.328125,-0.53125,5.21875
540,-0.118896484,-1.1292114,0.1461792,-20.078125,4.296875,0.859375
541,-0.04321289,-1.2393188,0.17669678,-11.546875,-1.4375,-5.8125
542,-0.060302734,-1.3775024,0.026550293,-24.484375,3.703125,-0.6875
543,0.055908203,-1.6399536,0.0211792,-40.078125,-4.640625,-22.046875
544,0.6425781,-1.2505493,-0.034240723,-13.1875,-20.15625,-15.515625
545,0.65478516,-0.7695923,-0.20147705,-14.140625,-1.625,22.25
546,-0.07836914,-0.7258911,0.059020996,3.84375,-22.609375,13.28125
547,-0.09399414,-0.8933716,0.18011475,0.625,-18.84375,1.921875
548,-0.0637207,-0.8670044,0.09222412,-0.28125,-10.875,-4.96875
549,0.1977539,-0.74786377,0.023864746,1.453125,-10.484375,-5.3125
550,0.03491211,-0.7468872,0.1984253,14.109375,-6.25,8.046875
551,-0.052490234,-0.80792236,0.3234253,-0.421875,-6.125,9.78125
552,0.044189453,-0.82647705,0.35076904,-13.265625,-6.28125,2.84375
553,-0.021728516,-0.87677,0.30706787,-13.59375,-7.96875,2.640625
554,-0.10913086,-1.0542603,0.24627686,-15.140625,-7.1875,-5.359375
555,-0.006591797,-1.2000122,0.38494873,0.046875,0.015625,-8.125
556,-0.22998047,-1.3201294,0.20233154,-2.84375,9.671875,0.359375
557,-0.020751953,-1.5964966,0.109558105,19.171875,21.640625,-26.171875
558,0.41918945,-1.2427368,-0.101623535,9.640625,14.375,-13.53125
559,0.09814453,-0.85723877,-0.22662354,19.5,24.3125,-5.875
560,0.026367188,-0.85650635,-0.06549072,-3.328125,19.65625,0.671875
561,0.05859375,-0.958313,-0.00982666,-7.984375,19.953125,12.703125
562,0.072265625,-0.9048462,0.09197998,-7.578125,12.734375,-3.40625
563,0.13305664,-0.7896118,0.15228271,5.328125,7.3125,2.296875
564,0.06616211,-0.690979,0.09320068,3.03125,-5.734375,10.28125
565,-0.045654297,-0.7227173,0.059509277,9.59375,-8.859375,6.828125
566,-0.044921875,-0.85162354,0.15081787,27.484375,-4.78125,6.09375
567,-0.12207031,-0.9788208,0.16741943,21.65625,-3.578125,6.390625
568,-0.13769531,-1.0662231,0.17034912,6.875,-0.984375,2.421875
569,-0.119384766,-1.1655884,0.15838623,11.03125,-0.984375,0.421875
570,-0.12646484,-1.3545532,0.2645874,-13.03125,3.296875,1.640625
571,-0.107177734,-1.4500122,0.1437378,-30.78125,4.484375,-4.75
572,0.08666992,-1.4519653,0.1618042,-37.609375,-5.984375,-18.5625
573,0.8022461,-1.0679321,-0.1453247,-14.734375,-2.484375,-6.6875
574,0.47851562,-0.65167236,-0.16680908,7.3125,-11.5625,26.828125
575,0.0146484375,-0.7720337,0.1359253,15.890625,-19.96875,15.40625
576,0.026855469,-0.9829712,0.14202881,18.90625,-22.640625,7.03125
577,0.009277344,-0.8584595,0.047546387,5.703125,-16.75,-3.90625
578,0.09033203,-0.7515259,-0.035949707,15.03125,-12.75,1.90625
579,-0.05053711,-0.7918091,0.15057373,14.890625,-6.875,11.375
580,-0.06274414,-0.8809204,0.1918335,-0.546875,-2.5,8.140625
581,0.0925293,-0.92144775,0.18841553,-7.015625,-0.859375,4.03125
582,-0.0041503906,-0.92755127,0.20355225,-1.0,6.203125,4.140625
583,-0.12084961,-0.9937134,0.24066162,5.765625,1.359375,-8.546875
584,0.12841797,-1.1567993,0.29974365,-14.3125,9.421875,-12.484375
585,0.0637207,-1.2210083,0.2008667,-8.484375,9.453125,-10.65625
586,-0.13330078,-1.5254517,0.09515381,17.390625,15.421875,-28.015625
587,0.2800293,-1.3198853,-0.20733643,-23.328125,11.75,-28.4375
588,0.2746582,-0.9277954,-0.2703247,18.84375,20.34375,-0.140625
589,0.12817383,-0.76885986,-0.22418213,-7.90625,19.046875,-0.015625
590,0.1665039,-1.0110474,0.0026245117,6.90625,8.046875,15.859375
591,0.12207031,-0.91900635,0.097351074,-0.8125,7.71875,3.75
592,0.12158203,-0.81207275,0.006286621,5.109375,-0.953125,-2.21875
593,0.015625,-0.68829346,0.024841309,16.1875,-10.015625,6.828125
594,-0.09887695,-0.70196533,0.0018920898,19.171875,-13.53125,4.75
595,-0.12451172,-0.892395,0.085876465,28.71875,-14.078125,-0.390625
596,-0.107177734,-1.034729,0.15960693,6.421875,-2.0,5.265625
597,-0.15698242,-1.1143188,0.12371826,-9.234375,2.28125,7.65625
598,-0.0949707,-1.1084595,0.12225342,-13.015625,-3.53125,-5.109375
599,-0.04345703,-1.2749634,0.22357178,-17.0625,-5.484375,-3.9375
600,-0.14013672,-1.3401489,0.07196045,-33.09375,-2.03125,-1.03125
601,-0.03491211,-1.4431763,0.05291748,-32.109375,-6.765625,-24.390625
602,0.72314453,-1.159729,-0.04937744,-30.6875,-3.890625,-15.46875
603,0.6677246,-0.80914307,-0.20245361,1.625,-5.203125,28.328125
604,-0.076660156,-0.76446533,0.21356201,-1.671875,-23.03125,18.640625
605,-0.15820312,-1.0154419,0.21063232,8.1875,-14.546875,3.875
606,-0.13354492,-0.767395,0.042419434,20.515625,-11.03125,-6.9375
607,0.15673828,-0.6538696,-0.07696533,8.78125,-7.015625,-7.46875
608,0.11303711,-0.7131958,0.16204834,9.953125,4.296875,13.6875
609,0.021240234,-0.93634033,0.27435303,-1.984375,6.03125,16.5625
610,0.06762695,-0.93048096,0.32244873,-9.4375,4.21875,8.203125
611,-0.11669922,-0.99420166,0.3361206,-9.671875,9.578125,2.6875
612,-0.103271484,-1.1060181,0.17474365,-5.046875,0.546875,-16.328125
613,0.06274414,-1.1184692,0.33465576,1.859375,9.421875,-14.484375
614,-0.008056641,-1.333313,0.042663574,6.203125,19.703125,-5.125
615,0.19042969,-1.6484985,-0.07183838,16.234375,11.3125,-28.09375
616,0.3996582,-1.0864868,-0.24176025,15.0625,10.53125,-12.984375
617,0.10473633,-0.73809814,-0.24102783,5.640625,20.796875,0.765625
618,0.040771484,-0.9536743,0.019714355,-7.921875,14.609375,6.78125
619,0.13623047,-0.9763794,0.007507324,-10.25,15.15625,11.28125
620,0.115234375,-0.8381958,0.07171631,-3.515625,10.046875,-5.46875
621,0.111572266,-0.6807251,0.06732178,2.78125,3.359375,6.03125
622,0.02368164,-0.61676025,0.0006713867,0.234375,-1.5,7.984375
623,-0.08642578,-0.7124634,0.07489014,15.796875,-11.4375,3.75
624,-0.047851562,-0.97442627,0.15838623,26.09375,-4.5625,2.109375
625,-0.09692383,-1.1333618,0.14300537,19.65625,0.4375,7.15625
626,-0.12011719,-1.1931763,0.20843506,5.890625,1.953125,2.34375
627,-0.09277344,-1.2217407,0.19158936,-9.328125,-5.046875,-4.796875
628,-0.087402344,-1.3418579,0.15252686,-34.078125,-0.875,1.65625
629,0.022705078,-1.4268188,0.07366943,-38.34375,-1.609375,-9.515625
630,0.46899414,-1.2752075,0.017028809,-12.703125,-6.921875,-13.5
631,0.73657227,-0.91192627,-0.22149658,2.015625,-10.53125,12.390625
632,0.109375,-0.6265259,-0.046203613,12.046875,-20.390625,24.34375
633,-0.083984375,-0.8557739,0.12713623,13.953125,-25.546875,0.78125
634,-0.029052734,-0.9524536,0.058288574,10.6875,-9.765625,-2.125
635,0.09448242,-0.67633057,-0.004211426,2.359375,-12.78125,-8.609375
636,0.083984375,-0.72662354,0.024841309,13.5,-0.265625,8.015625
637,0.028808594,-0.9126587,0.19720459,9.765625,-0.90625,17.21875
638,0.09741211,-0.954895,0.2518921,-2.015625,-6.609375,10.25
639,0.03173828,-0.9776001,0.27557373,-12.25,2.484375,4.875
640,-0.14257812,-0.95928955,0.199646,-2.375,-0.953125,-8.078125
641,-0.039794922,-1.0505981,0.21136475,4.328125,2.375,-10.78125
642,0.15649414,-1.194397,0.24017334,-8.671875,8.90625,-6.703125
643,-0.11376953,-1.5244751,0.1251831,25.265625,15.125,-14.8125
644,0.23339844,-1.4563599,-0.1482544,-13.140625,6.6875,-24.6875
645,0.35839844,-0.96417236,-0.23956299,11.859375,14.8125,-4.421875
646,0.12451172,-0.73272705,-0.26837158,-8.109375,20.515625,0.046875
647,0.13769531,-0.96832275,-0.074035645,7.34375,18.21875,7.640625
648,0.17163086,-0.96588135,0.03778076,-0.015625,9.125,2.453125
649,0.18676758,-0.8015747,0.027526855,-6.734375,11.53125,-2.6875
650,0.15112305,-0.6646118,0.039245605,8.671875,-2.8125,7.234375
651,-0.0041503906,-0.65093994,0.018493652,16.34375,-17.359375,2.609375
652,-0.08959961,-0.8167114,0.031433105,27.4375,-18.578125,-2.640625
653,-0.08300781,-0.9800415,0.12884521,24.5,-8.8125,2.84375
654,-0.14648438,-1.0942993,0.13079834,4.953125,1.140625,8.453125
655,-0.22021484,-1.1694946,0.15667725,-10.609375,3.5,1.90625
656,-0.079833984,-1.3145142,0.1774292,-13.359375,4.78125,-8.3125
657,-0.028564453,-1.3840942,0.035095215,-38.21875,6.234375,-0.296875
658,0.016845703,-1.413147,-0.053771973,-48.78125,0.625,-12.546875
659,0.4572754,-1.3027954,0.09613037,-21.265625,-7.859375,-20.015625
660,0.75219727,-0.8843384,-0.3147583,2.484375,9.9375,17.8125
661,0.14135742,-0.54229736,0.06439209,11.015625,-23.234375,16.390625
662,-0.14941406,-0.85723877,0.15594482,-6.921875,-20.921875,1.828125
663,-0.05029297,-0.8064575,0.06854248,3.203125,-27.703125,-10.625
664,0.20800781,-0.77349854,0.08319092,1.765625,-16.125,-8.875
665,0.09008789,-0.7944946,0.21868896,3.796875,-6.796875,6.75
666,0.008544922,-0.8699341,0.28948975,-2.28125,-9.71875,4.90625
667,-0.0021972656,-0.91412354,0.28631592,2.921875,-5.75,2.484375
668,-0.024414062,-0.86846924,0.30706787,1.921875,-7.296875,-0.90625
669,-0.20141602,-0.9273071,0.21185303,-2.6875,-6.09375,-5.796875
670,-0.072753906,-1.0979614,0.24627686,-1.546875,4.203125,-10.671875
671,0.03515625,-1.2896118,0.2597046,-13.484375,15.875,-1.6875
672,0.029052734,-1.6367798,0.17352295,12.15625,8.65625,-21.6875
673,0.2019043,-1.3374634,-0.17437744,0.9375,6.984375,-22.390625
674,0.13623047,-0.9011841,-0.2539673,18.71875,8.46875,-8.8125
675,0.009277344,-0.91778564,-0.12286377,5.15625,16.859375,-2.59375
676,0.022460938,-0.93634033,0.0065307617,-4.328125,25.796875,12.15625
677,0.040771484,-0.82696533,0.045837402,8.265625,13.875,-1.484375
678,0.09008789,-0.75494385,0.058044434,6.3125,7.265625,3.375
679,0.057861328,-0.6370239,-0.018127441,6.421875,-2.59375,16.609375
680,-0.022949219,-0.71759033,0.03314209,10.234375,-3.84375,11.640625
681,-0.1081543,-0.89849854,0.11102295,24.0,-3.609375,11.734375
682,-0.18676758,-1.1099243,0.11639404,16.390625,-1.703125,9.78125
683,-0.13720703,-1.2105103,0.12054443,3.328125,-2.640625,8.25
684,-0.072021484,-1.1526489,0.16253662,-9.171875,-3.546875,-0.5625
685,-0.060302734,-1.1765747,0.16033936,-19.953125,-2.0,4.5625
686,-0.1262207,-1.4136353,0.08734131,-18.484375,-4.0,2.234375
687,0.024658203,-1.5020142,0.0993042,-34.515625,-1.96875,-21.015625
688,0.7011719,-0.9348755,-0.12359619,-23.09375,-11.046875,-10.5
689,0.5917969,-0.67071533,-0.19293213,15.078125,-4.28125,25.828125
690,0.00048828125,-0.8381958,0.2267456,8.546875,-18.890625,17.625
691,-0.016357422,-0.9768677,0.11444092,20.3125,-15.609375,3.375
692,-0.020019531,-0.7522583,0.038757324,16.375,-16.453125,-16.171875
693,0.16796875,-0.6487427,-0.066223145,5.296875,-4.484375,-1.390625
694,-0.009277344,-0.7793579,0.1227417,5.359375,-0.421875,16.140625
695,-0.033447266,-0.9011841,0.19915771,-3.28125,-0.640625,9.640625
696,0.08544922,-0.9915161,0.24407959,-5.359375,-3.0,3.640625
697,0.071777344,-0.9951782,0.3060913,-5.15625,6.34375,1.28125
698,-0.09790039,-0.99420166,0.2741089,1.46875,0.578125,-11.484375
699,0.018310547,-1.1121216,0.24822998,-13.09375,0.375,-17.578125
700,0.08569336,-1.1948853,0.117126465,-8.375,6.71875,-8.96875
701,-0.03515625,-1.6216431,0.0028686523,15.21875,13.921875,-22.8125
702,0.39770508,-1.2007446,-0.19464111,-26.375,12.96875,-14.59375
703,0.15844727,-0.80841064,-0.23370361,18.53125,16.984375,3.59375
704,0.052246094,-0.87701416,-0.15679932,-2.484375,15.53125,-0.578125
705,0.22094727,-1.038147,0.007019043,-6.046875,15.8125,19.125
706,0.18041992,-0.9175415,0.109558105,0.921875,7.859375,-1.0
707,0.14355469,-0.7564087,0.09857178,14.625,-0.578125,4.125
708,0.010986328,-0.6116333,0.11053467,19.125,-11.5,8.71875
709,-0.09643555,-0.6421509,-0.019104004,22.625,-21.71875,1.03125
710,-0.12866211,-0.91241455,0.11151123,25.109375,-20.1875,-5.015625
711,-0.049316406,-1.0776978,0.08026123,4.921875,-10.71875,2.21875
712,-0.10620117,-1.0877075,0.09832764,-10.28125,-2.4375,4.359375
713,-0.087646484,-1.1907349,0.2531128,-12.78125,-7.3125,-4.921875
714,-0.10449219,-1.2525024,0.28363037,-37.15625,0.71875,3.578125
715,-0.050048828,-1.5647583,0.050964355,-32.53125,-8.734375,-16.421875
716,0.52368164,-1.411438,0.1239624,-36.28125,-8.1875,-17.109375
717,0.8762207,-0.97906494,-0.1260376,25.828125,3.734375,15.78125
718,-0.029785156,-0.7017212,0.05340576,9.015625,-18.53125,21.375
719,-0.12426758,-0.90802,0.22406006,-4.375,-24.4375,0.9375
720,-0.0859375,-0.82696533,0.05316162,19.640625,-7.171875,-3.28125
721,0.11425781,-0.6782837,-0.021057129,-1.265625,-4.34375,-12.03125
722,0.15527344,-0.7173462,0.13104248,7.65625,-6.65625,9.3125
723,-0.00024414062,-0.8128052,0.25042725,0.65625,-0.640625,15.28125
724,0.045898438,-0.8735962,0.28118896,-10.390625,-10.96875,1.625
725,0.053466797,-0.90093994,0.38323975,-13.3125,-2.1875,2.4375
726,-0.03466797,-1.0374146,0.31732178,-8.328125,-1.625,-4.4375
727,0.033447266,-1.1323853,0.32635498,-1.953125,-1.25,-11.015625
728,0.029052734,-1.1355591,0.41107178,-6.734375,8.984375,-7.234375
729,-0.099121094,-1.3787231,0.12030029,14.8125,5.890625,-14.453125
730,0.24731445,-1.4483032,-0.09234619,12.9375,12.21875,-28.40625
731,0.23608398,-1.0894165,-0.12506104,22.53125,20.65625,-3.625
732,0.045654297,-0.79644775,-0.14483643,-4.515625,20.65625,-9.0
733,0.09472656,-0.91070557,-0.009338379,-5.390625,21.234375,7.375
734,0.10839844,-0.9216919,0.018737793,-5.0625,11.53125,9.390625
735,0.14892578,-0.8809204,0.10491943,2.859375,8.1875,-0.828125
736,0.13696289,-0.7334595,0.047058105,5.9375,4.03125,7.921875
737,-0.040039062,-0.61309814,0.08782959,16.71875,-6.203125,7.203125
738,-0.053710938,-0.73931885,0.07977295,27.859375,-14.203125,3.015625
739,-0.08569336,-0.96343994,0.13079834,28.703125,-11.75,4.046875
740,-0.14990234,-1.140686,0.12322998,3.328125,-7.109375,4.03125
741,-0.123291016,-1.1758423,0.16522217,0.75,-5.390625,-0.0625
742,-0.12768555,-1.2683716,0.23529053,-15.8125,-3.765625,-4.65625
743,-0.099121094,-1.3616333,0.09661865,-34.28125,0.8125,-1.28125
744,0.06640625,-1.3728638,0.06561279,-37.1875,-5.21875,-14.9375
745,0.625,-1.1555786,0.029724121,-14.65625,-4.21875,-7.390625
746,0.5834961,-0.8648071,-0.15216064,10.171875,-5.84375,25.671875
747,-0.055419922,-0.7334595,0.113464355,10.0,-15.1875,12.859375
748,0.028076172,-0.9048462,0.12908936,15.921875,-15.65625,-1.96875
749,0.0053710938,-0.89923096,0.11444092,3.671875,-6.65625,-5.296875
750,0.17456055,-0.6397095,-0.05303955,-7.84375,-4.359375,-3.984375
751,0.016113281,-0.69854736,0.12591553,18.578125,-4.84375,13.6875
752,-0.009033203,-0.8687134,0.26654053,11.421875,-2.453125,9.140625
753,0.17089844,-0.90753174,0.19281006,-7.78125,-5.953125,4.875
754,0.055908203,-0.9282837,0.23944092,-2.234375,1.875,3.609375
755,-0.08203125,-1.0462036,0.27557373,9.6875,2.515625,-5.84375
756,0.049072266,-1.1887817,0.31756592,-7.40625,6.03125,-17.609375
757,0.08544922,-1.1934204,0.215271,-8.53125,6.328125,-7.921875
758,-0.15185547,-1.5108032,-0.11798096,39.09375,6.109375,-21.671875
759,0.38110352,-1.3652954,-0.27178955,-30.015625,26.40625,-18.46875
