sample_no,accel_x,accel_y,accel_z,gyro_x,gyro_y,gyro_z
0,-0.25830078,-0.79400635,-0.058898926,-3.6875,-9.15625,1.703125
1,-0.35913086,-0.88287354,-0.043273926,2.21875,-7.234375,1.25
2,-0.29541016,-0.8713989,-0.03668213,3.96875,-10.78125,2.796875
3,-0.28320312,-1.019104,0.07122803,3.15625,-4.375,3.84375
4,-0.36743164,-1.034729,0.058532715,-6.03125,-6.125,4.6875
5,-0.36401367,-0.9138794,-0.006164551,-15.453125,-11.578125,-7.171875
6,-0.5131836,-1.0762329,-0.19659424,-27.265625,-29.90625,-9.765625
7,-0.453125,-1.3997191999999998,-0.08892822,-6.390625,-2.78125,6.28125
8,-0.048828125,-1.2888794,0.0036010741999999,-2.328125,18.015625,-12.640625
9,0.05126953,-0.8628540000000001,-0.0647583,-5.53125,3.734375,-13.296875
10,-0.038085938,-0.7830199999999999,-0.027893066,-3.265625,-3.984375,2.296875
11,-0.11621094,-0.9536743,0.018249512,-2.0,-10.25,3.59375
12,-0.24291992,-1.0864868,0.11126709,-2.75,-1.859375,3.40625
13,-0.2355957,-0.9417114,0.059509277,-2.953125,-1.125,-7.578125
14,-0.2084961,-0.7776489000000001,0.04876709,1.015625,2.3125,-1.828125
15,-0.15771484,-0.7893677,0.09173584,-1.875,10.40625,4.984375
16,-0.15405273,-0.8069458,0.15447998,-1.234375,4.0625,3.265625
17,-0.2277832,-0.8753052,0.18182373,-2.9375,3.9375,0.234375
18,-0.30200195,-0.9788208,0.14251709,1.765625,2.21875,-0.046875
19,-0.27954102,-0.95098877,0.16375732,-0.71875,10.0625,-6.6875
20,-0.20727539,-0.97320557,0.28411865,-0.234375,7.53125,-0.21875
21,-0.2109375,-1.0786743,0.18304443,-3.375,3.78125,-5.765625
22,-0.2866210999999999,-1.0046997,0.1449585,0.328125,0.046875,-9.828125
23,-0.38867188,-1.3147583,-0.17340088,4.65625,-13.125,-9.5
24,-0.22363281,-1.6853638,-0.120666504,-0.625,12.1875,1.6875
25,-0.046142578,-1.0266724,0.0421752929999999,13.421875,18.453125,-3.84375
26,-0.048583984,-0.48760986,-0.30377197,3.421875,6.921875,2.734375
27,-0.25097656,-0.8279419,-0.13995361,-8.4375,6.28125,13.09375
28,-0.3251953,-1.1699829,-0.04425049,-3.15625,-4.34375,-3.9375
29,-0.24560547,-0.8718872,-0.12506104,15.921875,6.21875,2.828125
30,-0.22827148,-0.7227173000000001,-0.02520752,1.359375,7.6875,0.328125
31,-0.24804688,-0.85943604,0.043151855,-0.859375,-0.21875,-0.171875
32,-0.31054688,-0.86187744,-0.050109863,3.375,-10.0625,-4.109375
33,-0.3190918,-0.8555298000000001,-0.0305786129999999,-0.265625,-6.515625,-5.15625
34,-0.3178710999999999,-0.91119385,0.090026855,-5.3125,0.609375,0.46875
35,-0.34155273,-0.9258423,0.10614014,-9.1875,-9.625,-2.5625
36,-0.40625,-0.97540283,0.05731201,-5.5625,-6.0625,-2.65625
37,-0.43164062,-1.1387329,0.12835693,-14.40625,2.65625,4.75
38,-0.29516602,-1.0215454,0.09588623,-13.53125,-12.359375,0.375
39,-0.43310547,-1.3701782,-0.0628051759999999,-7.671875,-20.03125,1.078125
40,-0.38720703,-1.2451782,-0.14508057,-12.5625,10.171875,-10.140625
41,-0.046875,-0.85162354,-0.038391113,-12.9375,3.046875,-16.84375
42,0.0029296875,-0.8948364,0.07904053,15.140625,-7.234375,3.8125
43,-0.115722656,-1.0171509,-0.031555176,-0.359375,-14.96875,-1.234375
44,-0.21289062,-0.9783325,0.0363159179999999,-5.078125,-8.71875,-3.015625
45,-0.21020508,-0.93829346,0.09588623,0.9375,-3.125,-1.0
46,-0.28466797,-0.92633057,0.124938965,4.109375,-5.59375,-5.234375
47,-0.28173828,-0.78741455,0.07757568,0.265625,-7.234375,-1.8125
48,-0.2553711,-0.7337036,0.0460815429999999,-1.046875,3.78125,0.46875
49,-0.31176758,-0.7866820999999999,0.18304443,5.671875,10.109375,2.65625
50,-0.35473633,-0.91363525,0.20574951,3.96875,7.484375,-1.0625
51,-0.28564453,-0.9898071,0.0499877929999999,3.578125,16.078125,-6.765625
52,-0.2446288999999999,-0.92193604,0.16448975,5.953125,21.140625,-2.78125
53,-0.19189453,-1.0291138000000002,0.31707764,4.046875,15.296875,2.03125
54,-0.27392578,-1.0698853000000002,0.16619873,-9.875,8.59375,-9.296875
55,-0.45483398,-1.203186,0.030212402,1.5,-6.90625,-7.671875
56,-0.38452148,-1.6841431,-0.06524658,6.1875,5.28125,5.328125
57,-0.27539062,-1.1026001,0.02947998,3.890625,6.671875,-9.734375
58,-0.118652344,-0.52301025,-0.20025635,2.5,-4.09375,-4.953125
59,-0.23364258,-0.66973877,-0.19122314,0.65625,6.59375,8.421875
60,-0.3894043,-1.0352173,-0.073791504,-2.578125,8.3125,7.015625
61,-0.28125,-1.0657348999999998,-0.055480957,14.578125,3.796875,4.90625
62,-0.17041016,-0.80841064,-0.042297363,14.390625,7.21875,6.609375
63,-0.25390625,-0.7839965999999999,-0.008361816,0.46875,3.1875,11.046875
64,-0.29541016,-0.8115845,-0.038146973,5.65625,-7.515625,4.015625
65,-0.3942870999999999,-0.9104614,0.019226074,12.546875,-11.078125,-3.828125
66,-0.38867188,-0.94000244,0.0348510739999999,6.671875,-12.53125,5.90625
67,-0.2626953,-0.92633057,-0.014465332,-3.484375,-11.453125,10.328125
68,-0.30297852,-0.83184814,0.07489014,-9.796875,-18.3125,12.28125
69,-0.30200195,-0.9209595,-0.024230957,-17.75,-8.515625,16.125
70,-0.46557617,-1.2295532,0.093933105,-1.3125,-18.03125,5.375
71,-0.41918945,-1.1399536,0.024841309,-7.0625,-19.546875,-2.78125
72,-0.3955078,-1.4255981000000002,-0.16485596,-15.03125,-20.609375,-6.953125
73,-0.13793945,-1.2329712,-0.1416626,-9.84375,-3.9375,-3.421875
74,0.095214844,-0.8960570999999999,-0.08770752,1.625,3.265625,-6.53125
75,0.049804688,-0.8545531999999999,-0.020812988,1.109375,-10.328125,-1.953125
76,-0.15283203,-0.92144775,-0.0071411133,-9.125,-12.296875,-2.234375
77,-0.2668457,-0.93634033,-0.03277588,-8.765625,-3.046875,0.453125
78,-0.29907227,-0.8831177,0.01727295,-10.234375,-8.09375,-2.6875
79,-0.22705078,-0.86798096,0.109313965,0.21875,4.734375,-2.40625
80,-0.14990234,-0.7954711999999999,0.082214355,-3.203125,6.71875,-1.5625
81,-0.18017578,-0.7991333,0.061950684,-10.484375,6.953125,-5.84375
82,-0.23925781,-0.9121704,0.15130615,4.765625,13.34375,-0.53125
83,-0.25097656,-0.94317627,0.25653076,6.5,6.171875,-0.578125
84,-0.3010254,-0.93756104,0.18133545,-4.625,6.828125,-7.359375
85,-0.31982422,-0.98931885,0.1708374,-12.4375,8.71875,-9.71875
86,-0.2705078,-1.0088501,0.17010498,-1.6875,1.40625,-8.578125
87,-0.2932129,-1.342102,-0.09112549,3.46875,-14.046875,-5.953125
88,-0.50219727,-1.6682738999999998,0.05218506,6.21875,13.65625,4.0625
89,-0.21191406,-0.9234009,-0.093811035,2.984375,18.609375,-10.1875
90,0.020507812,-0.46148682,-0.23150635,0.359375,8.234375,-8.53125
91,-0.27929688,-0.87213135,-0.0015258789,-0.046875,9.234375,12.671875
92,-0.4428710999999999,-1.303772,-0.04156494,5.34375,7.078125,11.8125
93,-0.2290038999999999,-0.8477173000000001,-0.055725098,23.3125,10.9375,-6.171875
94,-0.15649414,-0.6177368000000001,0.038513184,5.265625,13.578125,4.65625
95,-0.2548828,-0.8064574999999999,-0.0256957999999999,-10.875,7.609375,9.671875
96,-0.30029297,-0.8977661,-0.06915283,5.5625,3.25,8.0
97,-0.35864258,-0.9221802,0.06756592,5.671875,0.890625,1.703125
98,-0.4033203,-0.94610596,0.070251465,2.140625,-1.5,3.359375
99,-0.40014648,-0.93096924,0.007751465,5.625,4.453125,7.5
100,-0.48413086,-1.0288696,0.13690186,-2.03125,0.390625,0.4375
101,-0.42871094,-1.0361938,0.14691162,-12.25,-7.390625,2.515625
102,-0.30566406,-1.1106566999999998,-0.06036377,-14.078125,-15.671875,-1.0625
103,-0.44018555,-1.5371704,-0.105285645,-15.53125,-1.21875,-4.71875
104,-0.0847168,-1.0320435,-0.15655518,-6.671875,2.171875,-8.421875
105,0.08642578,-0.79644775,0.05706787,4.953125,4.015625,-1.578125
106,-0.11328125,-1.0357056,0.050476074,-2.234375,-11.296875,-0.9375
107,-0.22973633,-1.0838013000000002,0.0079956055,0.40625,-6.46875,-6.21875
108,-0.30493164,-0.8867798000000001,0.086120605,6.046875,4.03125,-6.046875
109,-0.25585938,-0.74420166,0.053649902,5.734375,0.75,-3.671875
110,-0.1977539,-0.71661377,0.11859131,3.921875,11.640625,3.078125
111,-0.20117188,-0.78253174,0.11395264,-1.046875,7.1875,12.765625
112,-0.25952148,-0.9312134,0.09857178,-2.0625,7.9375,7.53125
113,-0.29418945,-0.9619751,0.16766357,11.3125,17.390625,1.515625
114,-0.26782227,-0.89190674,0.19281006,0.234375,15.671875,-9.125
115,-0.28173828,-0.7996215999999999,0.1383667,-6.125,11.34375,-7.75
116,-0.30493164,-0.9678345,0.23309326,2.46875,11.25,-4.828125
117,-0.33666992,-1.1836548,0.2838745,-0.625,7.15625,-8.078125
118,-0.3996582,-1.1734009,-0.019836426,-2.734375,-8.953125,-19.71875
119,-0.48657227,-1.711731,-0.124572754,11.890625,8.34375,-5.171875
120,-0.21875,-1.0464478000000002,-0.10211182,6.515625,22.21875,-13.0625
121,-0.0114746089999999,-0.5366820999999999,-0.06402588,6.25,12.109375,-5.328125
122,-0.19555664,-0.68341064,-0.046936035,-0.578125,1.734375,12.390625
123,-0.5097656,-1.2617798,-0.11138916,-11.40625,-0.859375,10.125
124,-0.42626953,-1.1621704,-0.03692627,15.375,11.484375,3.015625
125,-0.18408203,-0.6392211999999999,0.022399902,10.25,7.90625,-2.0625
126,-0.1328125,-0.59088135,-0.009094238,-3.46875,4.4375,14.3125
127,-0.27905273,-0.8792114,0.06097412,-10.921875,-2.28125,8.734375
128,-0.3605957,-0.9595337,0.034118652,-2.484375,-11.265625,1.65625
129,-0.34716797,-0.96881104,0.010681152,3.71875,-7.296875,11.453125
130,-0.3605957,-0.9536743,0.12347412,-2.90625,-9.390625,7.375
131,-0.35668945,-0.9246216,0.11468506,-11.5,-16.40625,0.5625
132,-0.4638672,-1.0178833,0.08709717,-3.515625,-11.484375,-0.953125
133,-0.39868164,-1.1465454,-0.0474243159999999,-18.328125,-28.609375,-10.421875
134,-0.24902344,-1.329895,-0.1687622,-12.0625,-11.609375,-6.828125
135,-0.022949219,-1.1963501,0.0006713867,0.609375,-3.859375,-1.578125
136,0.09350586,-1.0059204,0.10418701,-0.375,-5.703125,5.109375
137,-0.03930664,-1.0974731000000002,0.08441162,-5.25,-17.703125,-4.4375
138,-0.23095703,-0.94781494,0.07196045,0.921875,-16.03125,-2.875
139,-0.2746582,-0.710022,-0.054504395,2.4375,-13.734375,-1.296875
140,-0.29614258,-0.71954346,0.0382690429999999,3.15625,-2.90625,1.25
141,-0.1652832,-0.80303955,0.1671753,2.921875,-2.53125,5.984375
142,-0.13085938,-0.8623656999999999,0.09954834,-5.921875,-0.671875,0.515625
143,-0.26635742,-0.9883423,0.18914795,-5.265625,5.484375,2.625
144,-0.28076172,-1.0054321,0.17376709,-2.1875,3.5625,-4.40625
145,-0.23901367,-0.88726807,0.18475342,-2.328125,7.46875,-11.90625
146,-0.29589844,-0.9656372,0.21429443,-8.96875,10.703125,-11.640625
147,-0.25024414,-1.1443481000000002,0.2970581,-1.0,0.984375,-11.5625
148,-0.3569335999999999,-1.2451782,0.04046631,-7.21875,-9.84375,-6.9375
149,-0.45507812,-1.4646606000000002,-0.06719971,6.203125,0.40625,1.53125
150,-0.18579102,-0.96881104,-0.0225219729999999,10.109375,8.953125,-9.6875
151,-0.08691406,-0.5425415,-0.190979,1.3125,6.25,-6.296875
152,-0.32226562,-0.9546509,-0.124572754,-1.21875,10.421875,10.640625
153,-0.4580077999999999,-1.1599731000000002,-0.043029785,4.53125,6.984375,7.0625
154,-0.3017578,-0.8411255,-0.07208252,14.140625,8.703125,-0.21875
155,-0.20996094,-0.7449340999999999,0.0382690429999999,5.953125,8.015625,3.90625
156,-0.2775879,-0.8833618000000001,0.042907715,0.328125,2.4375,7.109375
157,-0.34423828,-0.88116455,-0.018859863,3.53125,1.25,4.484375
158,-0.34814453,-0.82403564,0.0036010741999999,0.90625,-0.765625,4.546875
159,-0.31689453,-0.8621216,0.0402221679999999,-3.046875,-2.8125,6.90625
160,-0.3413085999999999,-0.895813,0.038024902,-6.453125,-8.5625,7.046875
161,-0.35668945,-1.0176392,0.054138184,-2.75,-6.046875,6.84375
162,-0.47583008,-1.0662231000000002,0.16278076,-4.421875,-6.640625,4.015625
163,-0.41625977,-0.9570923,0.04925537,-11.140625,-14.53125,0.203125
164,-0.45922852,-1.4343872,-0.016662598,-8.203125,-14.484375,-2.828125
165,-0.22167969,-1.2039185,-0.10406494,-9.34375,-0.125,-5.40625
166,0.0546875,-0.87506104,-0.06060791,-6.03125,-3.0625,-8.828125
167,-0.013916016,-0.9390259,0.11004639,9.875,-5.140625,3.65625
168,-0.14160156,-1.1152954,0.03729248,-4.921875,-18.015625,-0.125
169,-0.23828125,-0.91973877,0.016052246,-5.5625,-10.34375,-3.265625
170,-0.24072266,-0.7307739000000001,0.042907715,3.1875,-9.078125,-1.375
171,-0.24853516,-0.8218384,0.04071045,1.140625,-1.203125,-0.859375
172,-0.25805664,-0.89678955,0.20013428,-2.890625,2.078125,4.203125
173,-0.1850586,-0.9336548,0.18182373,-1.046875,1.640625,2.171875
174,-0.2277832,-0.89434814,0.16986084,-3.8125,3.171875,-3.03125
175,-0.29174805,-0.81256104,0.19769287,-2.890625,7.125,-2.921875
176,-0.2614746,-0.7695923000000001,0.101257324,-0.078125,7.390625,-6.0
177,-0.28027344,-1.0161743,0.16497803,0.265625,13.25,-3.78125
178,-0.32299805,-1.2734985,0.4413452,3.3125,9.65625,-1.234375
179,-0.2529297,-1.052063,-0.008850098,0.28125,-8.6875,-13.453125
180,-0.44091797,-1.4241333,-0.049621582,8.40625,-3.796875,-8.03125
181,-0.43896484,-1.3074341,-0.093322754,-1.15625,13.671875,-3.125
182,-0.09692383,-0.70806885,-0.15509033,6.953125,13.265625,-10.796875
183,-0.09863281,-0.74420166,-0.061828613,5.25,9.296875,-2.5625
184,-0.3720703,-1.0637816999999998,-0.023254395,-7.0625,7.796875,2.5
185,-0.35327148,-0.9915161,-0.10992432,16.65625,11.265625,5.015625
186,-0.18334961,-0.73760986,0.04486084,10.25,9.796875,-1.671875
187,-0.20678711,-0.76031494,0.05218506,-6.78125,1.8125,5.234375
188,-0.27929688,-0.84503174,-0.057678223,1.890625,-3.546875,8.875
189,-0.3322754,-0.8809203999999999,0.030212402,4.546875,-3.96875,6.734375
190,-0.3486328,-0.92681885,0.10638428,-2.90625,-11.203125,4.140625
191,-0.32543945,-0.9102173,0.04168701,-2.90625,-8.5625,7.203125
192,-0.40063477,-0.99884033,0.030212402,-4.625,-6.625,5.765625
193,-0.49414062,-0.98101807,0.12542725,-6.796875,-5.34375,2.34375
194,-0.42138672,-0.99102783,0.13909912,-13.03125,-10.390625,-0.0625
195,-0.47192383,-1.2590941999999998,0.0021362305,-19.171875,-14.828125,-2.953125
196,-0.3569335999999999,-1.3008423,-0.0435180659999999,-16.40625,-3.625,-1.453125
197,0.030029297,-1.050354,-0.0100708009999999,-4.453125,-1.34375,-9.96875
198,0.053466797,-0.9512329,0.074157715,-2.3125,-11.609375,-0.828125
199,-0.119628906,-1.0811157,0.0045776367,-7.53125,-17.03125,1.828125
200,-0.2944335999999999,-1.0125122,0.03778076,2.734375,-9.140625,1.203125
201,-0.31201172,-0.89923096,0.1281128,7.484375,-7.40625,-4.75
202,-0.24609375,-0.78326416,0.1215209959999999,-0.328125,-8.71875,-9.5
203,-0.20507812,-0.7280884,0.1005248999999999,-1.859375,1.609375,0.5
204,-0.21362305,-0.68218994,0.1071167,0.09375,4.78125,4.734375
205,-0.22998047,-0.7839965999999999,0.15228271,-0.171875,7.859375,4.03125
206,-0.33032227,-1.0315552,0.22454834,-1.0,13.234375,-1.890625
207,-0.33032227,-1.0112915,0.19085693,-2.375,11.671875,-11.046875
208,-0.1940917999999999,-0.9038696,0.14788818,-2.390625,10.671875,-7.1875
209,-0.2836914,-1.1130981000000002,0.29681396,4.078125,12.5625,-1.046875
210,-0.26049805,-1.0039673,0.1774292,1.625,-6.578125,-11.21875
211,-0.47021484,-1.2930298,-0.08770752,6.546875,0.640625,-6.484375
212,-0.5241699000000001,-1.5476685,0.022399902,12.96875,6.734375,-4.0
213,-0.17285156,-0.79034424,-0.016418457,12.53125,3.171875,-16.796875
214,-0.0949707,-0.395813,-0.20562744,5.859375,8.3125,-0.78125
215,-0.3762207,-0.9446411,-0.06427002,-13.71875,19.703125,14.40625
216,-0.43286133,-1.3396606000000002,0.0131225589999999,6.546875,2.765625,8.90625
217,-0.27026367,-0.9158325,-0.042297363,23.1875,9.5625,-0.09375
218,-0.2097167999999999,-0.6494751,0.06341553,6.625,8.140625,5.421875
219,-0.24780273,-0.7503052,-0.0022583008,-7.359375,3.484375,12.671875
220,-0.31469727,-0.8440552,-0.06060791,0.4375,-0.484375,10.4375
221,-0.36865234,-0.9085083,0.022888184,1.515625,-5.015625,6.390625
222,-0.4128418,-0.95196533,0.0707397459999999,2.046875,-5.0,9.09375
223,-0.36889648,-0.9319458,0.05316162,-3.46875,-5.28125,3.328125
224,-0.3918457,-0.96759033,0.11444092,-11.484375,-6.390625,7.421875
225,-0.47045898,-1.0022583,0.086120605,-11.140625,-10.265625,7.828125
226,-0.34228516,-1.0713501,0.043395996,-14.03125,-27.671875,-0.09375
227,-0.33740234,-1.4968872,-0.0249633789999999,-13.796875,-17.109375,4.203125
228,-0.01928711,-1.1463013000000002,-0.12823486,-12.328125,-3.09375,9.171875
229,0.15991211,-0.9204712,0.09490967,0.046875,-10.96875,1.90625
230,0.05493164,-1.0027466,0.0597534179999999,-5.4375,-23.6875,-3.53125
231,-0.104003906,-1.0813598999999998,-0.0435180659999999,-5.8125,-21.96875,-5.1875
232,-0.22070312,-0.89630127,0.043395996,1.390625,-13.015625,-2.703125
233,-0.16040039,-0.7839965999999999,0.082214355,-1.0625,-19.265625,-6.09375
234,-0.10913086,-0.83966064,0.13397217,-8.671875,-15.296875,-4.5
235,-0.088378906,-0.83428955,0.15032959,-13.90625,-17.734375,-1.15625
236,-0.087402344,-0.87628174,0.14300537,-10.96875,-16.765625,-2.3125
237,-0.14379883,-0.9199829,0.15960693,-9.4375,-17.609375,-9.390625
238,-0.17260742,-0.9014282,0.21478271,-9.46875,-22.171875,-10.59375
239,-0.22753906,-0.9734497,0.2074585,-6.09375,-21.640625,-12.8125
240,-0.28881836,-0.9338989,0.2662964,-5.453125,-27.578125,-16.515625
241,-0.30737305,-0.9973755,0.08734131,-11.0,-34.59375,-18.546875
242,-0.30859375,-1.0647583,-0.09063721,-2.71875,-32.9375,-14.375
243,-0.1037597659999999,-1.3342896,-0.010803223,-11.578125,-28.609375,-1.875
244,-0.10229492,-1.7056273999999998,-0.19390869,-18.953125,-46.046875,6.34375
245,-0.19116211,-1.0637816999999998,0.027282715,-7.125,-35.84375,-7.515625
246,0.036621094,-0.597229,-0.06964111,0.796875,-49.28125,1.234375
247,-0.14404297,-0.8245239,-0.033996582,-20.6875,-63.796875,11.375
248,-0.17382812,-0.9534302,-0.14239502,-24.140625,-68.6875,9.453125
249,-0.15698242,-0.93170166,-0.085998535,-17.046875,-63.078125,13.203125
250,-0.20996094,-1.0376587,-0.0066528319999999,-19.625,-74.84375,9.140625
251,-0.2734375,-1.0935669,-0.039123535,-12.828125,-81.0,9.109375
252,-0.26367188,-0.97125244,0.04095459,-10.859375,-76.953125,7.609375
253,-0.28637695,-0.9209595,0.0558471679999999,-21.453125,-78.640625,3.21875
254,-0.29882812,-0.93463135,0.022399902,-16.1875,-75.71875,3.5
255,-0.3544922,-0.9463501,0.10223389,-15.125,-68.0,1.484375
256,-0.31933594,-0.942688,0.18988037,-20.03125,-64.828125,-1.421875
257,-0.25170898,-0.9092407,0.14471436,-20.390625,-58.890625,1.203125
258,-0.39135742,-0.92681885,0.14056396,-22.421875,-54.9375,1.703125
259,-0.43237305,-0.9483032,0.13616943,-17.09375,-48.625,-2.0
260,-0.31225586,-0.92926025,0.18988037,-13.6875,-42.515625,1.140625
261,-0.19116211,-1.2044066999999998,0.26312256,-19.125,-40.0,11.5625
262,-0.122558594,-1.1680298,0.1539917,-18.59375,-37.21875,12.8125
263,-0.06982422,-1.1091919,0.055358887,-18.5,-35.484375,9.078125
264,-0.15795898,-1.0796509,0.03729248,-15.703125,-43.640625,4.1875
265,-0.12719727,-0.8567505,-0.023986816,-7.921875,-50.578125,3.921875
266,-0.12084961,-0.81866455,0.05999756,-3.34375,-53.609375,5.78125
267,-0.19091797,-0.9927368,0.14910889,-9.46875,-57.984375,0.515625
268,-0.22143555,-1.0903931,0.14910889,-7.578125,-51.953125,-1.234375
269,-0.17626953,-1.019104,0.19793701,-2.359375,-44.0625,-1.890625
270,-0.12866211,-0.9336548,0.2584839,-4.921875,-44.640625,-0.53125
271,-0.11303711,-0.82525635,0.22894287,-8.640625,-38.90625,0.6875
272,-0.15917969,-0.7781372,0.21990967,-9.1875,-35.765625,0.84375
273,-0.25048828,-0.800354,0.2765502999999999,-10.25,-35.203125,-3.71875
274,-0.30200195,-0.880188,0.18865967,-0.75,-30.515625,-3.390625
275,-0.27148438,-0.9048462,0.23675537,1.75,-23.234375,-7.609375
276,-0.17382812,-0.93341064,0.33416748,-4.390625,-21.09375,-2.546875
277,-0.21484375,-1.1035767,0.27801514,-7.8125,-20.9375,-3.1875
278,-0.2836914,-1.0779419,0.35198975,-1.734375,-25.265625,-11.921875
279,-0.3232422,-1.0964966,0.16986084,-1.203125,-26.953125,-15.78125
280,-0.40283203,-1.3296509,0.09100342,1.484375,-20.390625,-12.90625
281,-0.26098633,-1.2747191999999998,0.1593628,12.015625,-13.296875,-6.984375
282,-0.12548828,-0.8010864000000001,0.04534912,3.0,-8.578125,-14.078125
283,-0.17602539,-0.6218872,-0.11383057,-15.25,-2.25,0.421875
284,-0.2939453,-1.0393677,0.02166748,-13.90625,4.265625,12.09375
285,-0.35717773,-1.2354126,0.028015137,0.53125,-5.484375,0.390625
286,-0.23144531,-0.8179320999999999,0.05316162,15.25,0.125,-1.578125
287,-0.18457031,-0.74542236,0.058776855,11.71875,-0.109375,7.59375
288,-0.3334960999999999,-0.8340453999999999,0.038024902,2.28125,-8.875,3.0625
289,-0.29907227,-0.81256104,0.0211792,12.859375,-13.4375,2.984375
290,-0.26416016,-0.8831177,0.0668334959999999,11.515625,-7.765625,6.703125
291,-0.30395508,-0.88848877,0.1083374,2.328125,-12.65625,3.0625
292,-0.28271484,-0.8948364,0.07489014,2.75,-15.5625,2.359375
293,-0.4152832,-1.0032349,0.070007324,-11.625,-13.890625,-0.703125
294,-0.39404297,-1.1035767,0.07562256,-2.609375,-14.78125,4.375
295,-0.27441406,-1.0718384,0.16326904,-0.875,-13.328125,6.359375
296,-0.4560547,-1.2947388000000002,0.02166748,-15.4375,-21.265625,3.59375
297,-0.35498047,-1.2583618,-0.26715088,-14.359375,-8.765625,-1.796875
298,0.009765625,-1.0542603000000002,-0.101379395,-1.125,-1.140625,-1.5
299,0.1193847659999999,-0.82354736,0.1098022459999999,5.484375,-10.609375,-4.53125
300,-0.07104492,-0.940979,-0.05303955,-11.171875,-22.140625,1.328125
301,-0.3310547,-1.1570435,-0.053527832,-12.09375,-22.515625,0.078125
302,-0.32836914,-0.95977783,0.031433105,-7.40625,-13.703125,-3.421875
303,-0.21826172,-0.83306885,0.027770996,-8.046875,-7.34375,-11.78125
304,-0.19311523,-0.73272705,0.07366943,-2.46875,-2.640625,-3.421875
305,-0.1352539,-0.7058715999999999,0.10101318,-3.40625,0.28125,5.171875
306,-0.17895508,-0.8418578999999999,0.14764404,-4.6875,2.515625,5.75
307,-0.3010254,-1.0130005,0.18597412,1.1875,1.03125,1.65625
308,-0.26464844,-0.95147705,0.1359253,2.078125,4.140625,-4.0
309,-0.26660156,-0.88531494,0.16790771,-1.640625,6.921875,-10.5625
310,-0.25585938,-0.9036255,0.17279053,-0.125,6.53125,-9.953125
311,-0.29614258,-1.0379028,0.06585693,1.75,-1.046875,-6.828125
312,-0.4128418,-1.5418091,-0.036193848,8.765625,-5.703125,-1.90625
313,-0.27001953,-1.3828735,0.043640137,21.140625,10.46875,-3.140625
314,-0.11279297,-0.7959595,-0.06719971,6.015625,17.0,-10.515625
315,-0.15429688,-0.47686768,-0.20953369,-2.953125,8.96875,-4.1875
316,-0.4025879,-1.0332642,-0.12701416,-11.84375,14.59375,6.28125
317,-0.4423827999999999,-1.2324829,-0.11920166,6.578125,8.28125,1.84375
318,-0.26220703,-0.8809203999999999,-0.081848145,17.453125,10.90625,0.9375
319,-0.18896484,-0.7908324999999999,0.04901123,9.703125,16.046875,6.28125
320,-0.27441406,-0.8015747,0.0016479492,-0.90625,10.0625,6.6875
321,-0.33276367,-0.7786255,-0.08404541,4.8125,6.234375,5.984375
322,-0.29467773,-0.84332275,-0.0081176759999999,1.171875,5.921875,5.5625
323,-0.31323242,-0.9104614,0.07366943,0.734375,0.390625,5.28125
324,-0.3256835999999999,-0.9343872,0.05316162,-1.40625,-0.15625,4.640625
325,-0.36889648,-1.0205688,0.09906006,-3.015625,-3.765625,2.875
326,-0.3942870999999999,-1.0120239,0.11248779,-6.625,-8.703125,7.265625
327,-0.42163086,-1.0510864,0.09710693,-9.90625,-8.8125,8.765625
328,-0.35620117,-1.0774536,0.0363159179999999,-19.96875,-16.5,-1.09375
329,-0.35595703,-1.2590941999999998,-0.14874268,-19.640625,-13.484375,3.828125
330,-0.10595703,-1.1106566999999998,-0.16949463,-10.3125,-2.875,-0.625
331,0.09326172,-0.9805298,0.053649902,3.171875,-4.84375,-3.9375
332,-0.0041503906,-1.1257935,0.0836792,-6.09375,-17.625,-6.75
333,-0.2331542999999999,-1.0464478000000002,-0.0007934570299999,-2.4375,-19.171875,-9.71875
334,-0.34936523,-0.83673096,0.04144287,1.515625,-13.796875,-12.40625
335,-0.265625,-0.7329711999999999,-0.020080566,2.28125,-10.3125,-16.96875
336,-0.25512695,-0.7678833,0.07977295,-0.375,0.8125,-1.375
337,-0.2175292999999999,-0.83477783,0.16571045,-0.71875,0.34375,5.140625
338,-0.21728516,-0.9194946,0.14007568,-3.203125,2.953125,4.25
339,-0.30493164,-0.94976807,0.16571045,-3.546875,5.59375,-1.859375
340,-0.32983398,-0.89068604,0.15203857,-1.265625,8.734375,-4.53125
341,-0.30932617,-0.9373169,0.16033936,-0.78125,11.421875,-5.953125
342,-0.30078125,-0.9788208,0.23602295,1.40625,14.734375,-3.8125
343,-0.25268555,-0.9067993,0.2374877999999999,-0.3125,8.578125,-3.53125
344,-0.30273438,-1.052063,0.047546387,-6.828125,3.625,-8.078125
345,-0.5361328000000001,-1.6074829,0.012145996,4.5625,0.046875,2.15625
346,-0.39208984,-1.2727661,-0.0413208,13.96875,9.828125,-1.359375
347,-0.13110352,-0.61798096,-0.12261963,7.5625,14.390625,-10.578125
348,-0.19116211,-0.6760864000000001,-0.14068604,-5.46875,16.78125,5.21875
349,-0.4658202999999999,-1.1296997,-0.09503174,-8.546875,18.34375,7.46875
350,-0.41186523,-1.1096802,-0.0227661129999999,23.375,16.625,4.390625
351,-0.15429688,-0.79107666,0.032165527,18.28125,20.0625,-0.3125
352,-0.19311523,-0.7517699999999999,0.059265137,1.828125,16.75,9.078125
353,-0.3479004,-0.8596802,-0.012756348,-3.703125,7.609375,4.546875
354,-0.3708495999999999,-0.8233031999999999,-0.0100708009999999,9.875,3.03125,2.875
355,-0.30419922,-0.84991455,0.031188965,7.34375,4.0625,9.859375
356,-0.2890625,-0.9121704,0.07733154,1.0625,2.84375,11.140625
357,-0.31469727,-0.9402466,0.09515381,-6.1875,-3.421875,6.515625
358,-0.45239258,-1.0964966,0.066101074,-8.25,1.953125,2.703125
359,-0.5305175999999999,-1.0379028,0.18572998,-8.734375,-3.703125,2.765625
360,-0.39794922,-1.2244263000000002,0.01361084,-18.609375,-13.59375,0.9375
361,-0.44628906,-1.522522,-0.054504395,-24.71875,6.96875,4.359375
362,0.08544922,-1.0110474,0.034118652,-19.015625,15.578125,-13.34375
363,0.16601562,-0.6921997,0.06121826,3.4375,1.390625,0.046875
364,0.018554688,-0.7954711999999999,0.070495605,-1.59375,-13.390625,0.265625
365,-0.22436523,-1.15094,0.0348510739999999,-5.796875,-13.28125,2.109375
366,-0.29492188,-1.0718384,0.19476318,6.90625,-8.09375,-2.046875
367,-0.15771484,-0.8296509,0.17303467,9.21875,-16.71875,-9.390625
368,-0.16772461,-0.710022,0.11859131,4.109375,-10.421875,-5.90625
369,-0.21875,-0.75738525,0.1005248999999999,2.265625,-1.890625,3.28125
370,-0.25976562,-0.8545531999999999,0.16131592,6.359375,-0.375,3.3125
371,-0.30810547,-0.9924927,0.2296752999999999,4.96875,3.828125,-2.25
372,-0.3413085999999999,-0.9771118,0.16326904,-2.125,11.390625,-11.4375
373,-0.22558594,-0.8755493000000001,0.1786499,-1.625,14.015625,-11.75
374,-0.17382812,-1.0022583,0.26776123,-0.703125,9.859375,-6.984375
375,-0.2998047,-1.1130981000000002,0.34197998,0.34375,2.203125,-9.921875
376,-0.40161133,-1.1228638000000002,0.0707397459999999,-4.640625,-13.125,-15.28125
377,-0.5217285,-1.446106,-0.014953613,9.140625,-2.03125,-5.109375
378,-0.20800781,-1.086731,-0.16363525,-1.90625,13.0625,-7.53125
379,-0.1274414,-0.6194458,-0.12628174,4.1875,12.890625,-1.0
380,-0.29858398,-0.86920166,-0.054260254,3.921875,13.125,12.390625
381,-0.39013672,-1.1079712,-0.03375244,4.21875,2.71875,4.703125
382,-0.33422852,-1.0684204,0.058532715,13.25,9.03125,1.546875
383,-0.28686523,-0.8008423000000001,0.03729248,3.984375,6.140625,0.875
384,-0.22973633,-0.68585205,0.010925293,-4.546875,8.046875,6.0625
385,-0.28027344,-0.73321533,0.031921387,3.1875,0.21875,9.84375
386,-0.37817383,-0.8748169,0.04559326,4.453125,-5.65625,7.25
387,-0.36938477,-0.95196533,0.07611084,6.96875,-3.15625,8.90625
388,-0.33032227,-0.9224243,0.10223389,-5.125,-3.8125,6.0
389,-0.35791016,-0.9776001,0.1281128,-3.640625,-5.28125,7.71875
390,-0.43701172,-1.1399536,0.16229248,-2.125,-4.90625,8.578125
391,-0.43676758,-1.1558228000000002,0.061462402,-26.234375,-21.84375,-3.0625
392,-0.48364258,-1.385315,-0.09088135,-11.96875,-9.421875,0.15625
393,-0.0637207,-1.1221313,-0.11627197,-9.0625,1.609375,-1.828125
394,0.11645508,-0.8279419,0.011657715,7.140625,-7.25,-5.765625
395,0.029541016,-0.9507446,0.0941772459999999,0.53125,-15.859375,0.015625
396,-0.18041992,-1.1992798,0.02532959,-7.984375,-22.21875,-0.75
397,-0.28588867,-0.98028564,0.0460815429999999,-0.296875,-14.03125,-2.234375
398,-0.27612305,-0.83306885,0.07611084,5.140625,-15.96875,-9.75
399,-0.24291992,-0.75006104,0.0441284179999999,-0.078125,-9.3125,-5.171875
400,-0.20922852,-0.7119751,0.117126465,-3.6875,1.8125,5.84375
401,-0.20336914,-0.8406372,0.17352295,-8.453125,1.609375,5.859375
402,-0.24975586,-1.00177,0.22528076,-6.671875,2.8125,-3.625
403,-0.29101562,-0.98028564,0.24017334,-2.3125,6.265625,-7.765625
404,-0.2927245999999999,-0.87750244,0.12030029,-7.96875,7.09375,-13.5
405,-0.25170898,-0.9351196,0.22821045,1.109375,12.296875,-11.515625
406,-0.27661133,-0.9939575,0.1671753,2.359375,-1.734375,-9.484375
407,-0.47607422,-1.4317017,-0.061828613,-1.25,-5.078125,-6.6875
408,-0.39746094,-1.4905396,0.0123901369999999,15.71875,12.921875,-2.71875
409,-0.18164062,-0.74591064,-0.012756348,8.359375,8.96875,-11.0625
410,-0.12792969,-0.53448486,-0.1921997,2.4375,7.265625,3.125
411,-0.40600586,-1.0601196000000002,-0.065979004,-10.171875,12.296875,8.71875
412,-0.44018555,-1.1460571000000002,-0.06549072,12.515625,7.140625,7.421875
413,-0.2565918,-0.78985596,0.023376465,23.046875,12.75,7.609375
414,-0.24853516,-0.7361449999999999,0.09320068,5.578125,12.71875,9.65625
415,-0.32788086,-0.8394165000000001,-0.0044555664,0.0,7.515625,6.046875
416,-0.3659668,-0.8423461999999999,-0.035705566,3.703125,4.625,6.390625
417,-0.37719727,-0.923645,-0.0095825195,2.625,8.890625,9.9375
418,-0.30615234,-0.9661255,0.117126465,-0.234375,5.953125,10.046875
419,-0.2541504,-0.9241333,0.10443115,-2.765625,-4.28125,11.140625
420,-0.32910156,-1.0083618,0.024353027,-6.625,0.078125,10.21875
421,-0.44873047,-1.0525513000000002,0.1359253,-9.34375,-4.6875,5.015625
422,-0.4038085999999999,-1.1209106000000002,0.04852295,-17.3125,-17.859375,-5.390625
423,-0.38061523,-1.326477,-0.0071411133,-16.90625,-1.0625,-1.09375
424,-0.061279297,-1.0425415,-0.04840088,-9.890625,-6.34375,-4.921875
425,0.06298828,-0.80010986,0.08856201,3.03125,-9.0,-0.171875
426,0.0048828125,-1.076477,0.058532715,-9.09375,-17.84375,1.75
427,-0.18408203,-1.2297973999999998,0.042419434,-7.171875,-16.4375,-1.734375
428,-0.25,-0.93927,0.15740967,7.765625,-12.3125,-6.296875
429,-0.25341797,-0.756897,0.07952881,7.578125,-19.03125,-15.40625
430,-0.25146484,-0.7070923000000001,0.04168701,2.09375,-4.90625,-4.59375
431,-0.20166016,-0.7695923000000001,0.1798706,-2.609375,2.734375,5.578125
432,-0.16821289,-0.8867798000000001,0.22064209,-4.28125,1.0,2.765625
433,-0.25952148,-0.9837036,0.21282959,-0.765625,2.0625,-3.109375
434,-0.32470703,-0.9859009,0.15863037,-2.21875,6.15625,-8.875
435,-0.27148438,-0.89630127,0.10784912,-0.859375,5.875,-12.03125
436,-0.15917969,-0.9697876,0.2741089,0.75,5.8125,-6.796875
437,-0.27172852,-1.1240845,0.3180542,-6.375,-8.46875,-5.40625
438,-0.3955078,-1.1836548,0.015808105,-9.796875,-13.0,-8.421875
439,-0.47070312,-1.3738403,-0.046203613,3.28125,1.109375,-2.890625
440,-0.25317383,-0.8699341,-0.07672119,8.890625,3.921875,-6.34375
441,-0.15332031,-0.7402954,-0.05718994,5.203125,7.03125,1.90625
442,-0.43920898,-1.1167603000000002,-0.0286254879999999,-11.359375,8.453125,2.515625
443,-0.4489746,-1.1253052,-0.070129395,13.203125,6.265625,0.953125
444,-0.20092773,-0.8193969999999999,0.027282715,24.578125,12.0,3.578125
445,-0.22485352,-0.71466064,0.09246826,6.65625,11.875,10.953125
446,-0.2529297,-0.7295531999999999,0.02557373,1.59375,9.359375,14.046875
447,-0.3256835999999999,-0.8101195999999999,-0.0178833,3.765625,6.890625,10.375
448,-0.41845703,-0.95513916,0.012145996,2.9375,2.0,5.1875
449,-0.39208984,-0.9216919,0.008239746,4.21875,9.015625,9.515625
450,-0.31958008,-0.9209595,0.08709717,4.046875,5.4375,12.921875
451,-0.33764648,-1.0501098999999998,0.06414795,-7.328125,3.953125,9.96875
452,-0.38256836,-1.1043091,0.121032715,-3.09375,0.71875,6.984375
453,-0.36010742,-1.2766723999999998,0.035095215,-17.1875,-18.875,-2.96875
454,-0.21020508,-1.4107056,-0.0667114259999999,-15.09375,-1.265625,-0.296875
455,0.001953125,-0.986145,-0.10235596,1.140625,-0.5,-2.578125
456,0.13330078,-0.7319945999999999,0.023132324,3.515625,-4.234375,0.28125
457,0.011962891,-0.9685669,0.06512451,-7.328125,-11.703125,1.71875
458,-0.22265625,-1.1470337,0.04534912,-6.171875,-14.4375,1.015625
459,-0.25317383,-0.96832275,0.12322998,6.546875,-13.859375,0.65625
460,-0.17382812,-0.7925415,0.09564209,3.046875,-14.765625,-9.453125
461,-0.1875,-0.69854736,0.06854248,-0.296875,-8.234375,-3.875
462,-0.19604492,-0.7703247,0.08416748,-2.625,0.890625,1.890625
463,-0.20605469,-0.9561157,0.21722412,-2.453125,4.890625,0.90625
464,-0.22314453,-0.9976196,0.22503662,2.1875,3.890625,-4.265625
465,-0.2446288999999999,-0.9194946,0.10614014,-0.703125,9.3125,-10.375
466,-0.27539062,-0.9077759,0.18206787,-3.40625,14.421875,-11.84375
467,-0.22509766,-1.0552368,0.27679443,2.171875,11.75,-13.0625
468,-0.27270508,-1.0979614,0.13397217,-7.21875,2.21875,-16.78125
469,-0.44750977,-1.4365845,-0.006164551,-2.484375,-7.171875,-3.9375
470,-0.38208008,-1.298645,0.0004272461,9.453125,13.8125,-5.28125
471,-0.11254883,-0.7095336999999999,-0.11260986,-0.125,11.875,-15.4375
472,-0.15283203,-0.6487427,-0.14093018,4.53125,13.578125,-3.828125
473,-0.3720703,-1.1426392,-0.054748535,2.953125,21.0625,11.34375
474,-0.42211914,-1.201477,-0.04156494,20.171875,13.203125,3.0625
475,-0.20605469,-0.7727661,0.038513184,28.15625,13.984375,-2.296875
476,-0.20483398,-0.6531372,0.03704834,12.40625,12.1875,14.125
477,-0.30419922,-0.80670166,-0.031555176,3.6875,6.09375,9.140625
478,-0.31396484,-0.8357544,-0.03302002,10.390625,3.421875,6.84375
479,-0.34448242,-0.90167236,0.025817871,3.1875,2.21875,7.1875
480,-0.35424805,-0.9036255,0.066345215,3.890625,-5.390625,3.78125
481,-0.35498047,-0.93341064,0.0138549805,-2.078125,-4.84375,4.484375
482,-0.49853516,-1.0579223999999998,0.027282715,-9.09375,-2.125,5.171875
483,-0.390625,-0.9727173,0.11077881,-10.015625,-4.359375,6.109375
484,-0.36035156,-1.1292114,-0.0491333,-23.65625,-16.34375,2.796875
485,-0.35424805,-1.4846802,-0.16046143,-7.546875,-8.375,8.359375
486,-0.030273438,-1.0147095,-0.23638916,-6.125,-0.3125,-3.546875
487,0.052734375,-0.82476807,0.00018310547,12.109375,5.609375,0.09375
488,-0.037109375,-0.9793091,0.055358887,-7.3125,0.53125,1.03125
489,-0.24926758,-1.0576782,-0.025939941,-10.53125,-4.640625,-0.3125
490,-0.3774414,-0.9807739,-0.0249633789999999,-2.09375,2.75,-6.09375
491,-0.2644043,-0.8862915000000001,-0.0076293944999999,7.3125,8.75,-10.75
492,-0.20654297,-0.8154906999999999,0.0848998999999999,5.96875,14.625,-5.3125
493,-0.17944336,-0.725647,0.08416748,0.25,15.625,-2.40625
494,-0.22021484,-0.7695923000000001,0.06854248,-2.140625,18.3125,-0.78125
495,-0.3190918,-0.94610596,0.1293335,-5.328125,22.21875,-1.828125
496,-0.32788086,-0.960022,0.11785889,0.78125,18.765625,-9.53125
497,-0.25927734,-0.8743286,0.049743652,2.4375,19.84375,-9.359375
498,-0.24951172,-1.0171509,0.20306396,2.375,18.9375,-4.78125
499,-0.27172852,-1.0588989,0.26239014,2.390625,10.796875,-9.03125
500,-0.42163086,-1.1729126,0.1329956,-3.265625,-5.140625,-10.6875
501,-0.45336914,-1.5117798,-0.036193848,3.296875,0.40625,-7.328125
502,-0.30810547,-0.9456177,-0.0869751,7.578125,10.3125,-13.28125
503,-0.15771484,-0.6013794,-0.22369385,2.0625,11.453125,-0.578125
504,-0.31591797,-1.0371704,-0.030090332,-10.9375,21.421875,4.765625
505,-0.34765625,-1.2405396,-0.003479004,8.875,11.1875,3.046875
506,-0.2006836,-0.9299927,-0.0081176759999999,18.90625,13.59375,0.390625
507,-0.19848633,-0.7136840999999999,0.08929443,-0.421875,12.515625,5.25
508,-0.25830078,-0.7439574999999999,-0.04034424,-3.46875,4.65625,9.09375
509,-0.3112793,-0.7803345,-0.0100708009999999,-2.734375,-3.1875,5.40625
510,-0.30737305,-0.8904419,0.0519409179999999,-3.984375,-10.4375,8.671875
511,-0.31982422,-0.98028564,0.09075928,-2.171875,-13.953125,13.546875
512,-0.32128906,-0.9492798,0.10321045,-4.6875,-17.421875,9.15625
513,-0.35302734,-0.9475708,0.13031006,-13.4375,-22.40625,2.484375
514,-0.46362305,-1.0100708,0.09686279,-15.171875,-23.625,5.390625
515,-0.3972168,-0.9751587,0.089782715,-13.390625,-30.390625,0.578125
516,-0.28979492,-1.4309691999999998,-0.0151977539999999,-20.953125,-27.6875,7.640625
517,0.08081055,-1.4277954,0.024597168,-17.28125,-26.609375,8.296875
518,0.25097656,-0.9314575,0.11785889,-3.359375,-19.484375,1.421875
519,0.18701172,-0.8674927,0.0770873999999999,2.109375,-37.796875,2.25
520,-0.013916016,-1.1150513000000002,-6.1035156e-05,-8.28125,-42.515625,1.96875
521,-0.17749023,-1.1116333,0.09515381,0.171875,-41.515625,2.609375
522,-0.110839844,-0.84503174,0.11566162,9.09375,-52.640625,-2.421875
523,-0.0454101559999999,-0.74420166,0.08758545,-0.484375,-50.640625,-7.265625
524,-0.0266113279999999,-0.8345336999999999,0.20233154,-11.25,-47.0625,-1.6875
525,-0.047607422,-0.9026489,0.18988037,-16.671875,-55.9375,-6.59375
526,-0.17236328,-0.99542236,0.08880615,-15.734375,-50.75,-9.21875
527,-0.19262695,-1.0234985,0.25726318,-8.203125,-38.5625,-6.515625
528,-0.08569336,-0.87701416,0.23699951,-13.796875,-41.234375,-11.21875
529,-0.10668945,-0.84942627,0.121276855,-19.953125,-44.765625,-8.609375
530,-0.26782227,-1.1843872,0.010681152,-22.296875,-44.6875,-9.140625
531,-0.30908203,-1.2244263000000002,-0.050598145,-15.171875,-35.9375,-14.734375
532,0.07421875,-0.913147,-0.0635376,-10.546875,-42.71875,-10.171875
533,-0.06982422,-1.3770142,-0.17926025,-21.078125,-59.484375,22.875
534,-0.20654297,-1.4297485,0.07342529,-12.78125,-59.671875,7.703125
535,0.024902344,-0.79400635,0.1593628,6.625,-71.765625,-10.71875
536,-0.09643555,-0.5745239000000001,-0.1026001,-11.25,-87.09375,-6.640625
537,-0.4621582,-1.0266724,-0.06866455,-33.90625,-83.375,4.890625
538,-0.35229492,-1.048645,-0.03253174,-9.328125,-88.28125,6.71875
539,-0.21020508,-0.87286377,0.035095215,-9.8125,-86.1875,0.28125
540,-0.24291992,-0.9439087,0.058044434,-8.0,-77.796875,0.1875
541,-0.26489258,-0.9451294,0.137146,-8.703125,-73.625,1.0
542,-0.25756836,-0.83258057,0.020202637,-12.8125,-72.90625,-1.625
543,-0.3713379,-0.9338989,-0.0017700195,-7.578125,-59.875,-1.140625
544,-0.3388672,-0.9780884,0.105651855,-6.484375,-61.140625,-4.953125
545,-0.19824219,-1.0108032,0.1618042,-12.375,-59.515625,-3.671875
546,-0.33740234,-1.0808716,0.08026123,-14.796875,-55.640625,0.140625
547,-0.39990234,-1.0305786,0.12615967,-14.59375,-58.28125,3.046875
548,-0.19799805,-1.0317993,0.070251465,-25.59375,-67.046875,-2.75
549,-0.33398438,-1.3609009,0.008972168,-20.5,-58.078125,4.015625
550,-0.114746094,-1.1033325,-0.25860596,-22.125,-47.25,4.90625
551,-0.017578125,-0.88531494,-0.03643799,-8.859375,-46.765625,2.625
552,-0.018310547,-0.80963135,-0.04449463,-2.5,-55.78125,-3.828125
553,-0.23706055,-0.9524536,-0.10821533,-1.90625,-56.9375,-2.984375
554,-0.28833008,-1.159729,-0.0005493164,-0.390625,-45.25,0.296875
555,-0.12719727,-1.003479,0.08709717,-1.421875,-36.5,-3.125
556,-0.07885742,-0.7451781999999999,0.10638428,-1.828125,-34.8125,-2.09375
557,-0.09643555,-0.75250244,0.0387573239999999,-2.09375,-26.75,4.90625
558,-0.1809082,-0.8921509,0.11956787,-7.203125,-26.921875,1.28125
559,-0.22143555,-0.92926025,0.0980834959999999,1.1875,-29.25,-6.15625
560,-0.25732422,-0.9378052,0.15740967,19.6875,-7.25,-16.4375
561,-0.26367188,-0.9380493,0.1071167,-0.734375,-13.671875,-16.40625
562,-0.22753906,-0.88238525,0.11444092,-11.53125,-9.25,-15.859375
563,-0.21728516,-1.0181274,0.13763428,-5.546875,-9.078125,-12.5
564,-0.25830078,-1.1589966,0.061950684,-12.984375,-22.46875,-12.203125
565,-0.37426758,-1.5049438,-0.09088135,-3.75,-20.234375,-8.9375
566,-0.28588867,-1.321106,0.0067749023,13.28125,7.8125,-8.0625
567,-0.055664062,-0.5335083,-0.08355713,4.15625,-3.90625,-16.625
568,-0.1472167999999999,-0.5359497,-0.255188,-10.6875,4.21875,6.03125
569,-0.34692383,-1.197815,-0.1174926759999999,-21.109375,12.515625,18.453125
570,-0.31591797,-1.2883911,-0.041809082,12.640625,4.78125,2.21875
571,-0.14697266,-0.8220825,0.070495605,16.890625,12.59375,-1.65625
572,-0.16455078,-0.7564086999999999,0.04119873,0.25,5.03125,8.21875
573,-0.25268555,-0.8831177,-0.045715332,-9.515625,-0.046875,1.84375
574,-0.34570312,-0.8386841,-0.0015258789,-3.296875,-5.71875,0.578125
575,-0.31640625,-0.8748169,0.013366699,-6.265625,-6.125,0.671875
576,-0.29003906,-0.89556885,0.054870605,2.015625,-1.09375,4.359375
577,-0.27368164,-0.8218384,-0.0095825195,-3.640625,-5.953125,2.171875
578,-0.37548828,-0.9956665,0.04119873,-12.34375,-4.265625,2.59375
579,-0.39526367,-1.1602173,0.09197998,-10.34375,-8.765625,1.984375
580,-0.31298828,-1.1721802,0.028747559,-7.296875,-15.046875,-4.546875
581,-0.33618164,-1.3753052,-0.04840088,-15.65625,-17.34375,-3.453125
582,-0.14086914,-1.100647,-0.28570557,-14.53125,-7.046875,2.15625
583,0.08959961,-0.9192505,-0.09991455,7.40625,-6.984375,-0.578125
584,0.11206055,-0.9685669,0.058532715,5.90625,-21.09375,1.140625
585,-0.095214844,-1.1780396,-0.09991455,-10.671875,-28.875,-1.578125
586,-0.28149414,-1.0645142,-0.039123535,2.84375,-19.171875,-5.96875
587,-0.21069336,-0.8545531999999999,0.0421752929999999,7.890625,-23.875,-15.21875
588,-0.20751953,-0.7058715999999999,0.03265381,1.453125,-24.5625,-11.53125
589,-0.2109375,-0.6309204,-0.031066895,-2.734375,-7.296875,3.625
590,-0.23217773,-0.80792236,0.05999756,-16.1875,3.140625,5.015625
591,-0.25561523,-1.0007935,0.23968506,-10.59375,0.890625,3.015625
592,-0.26635742,-1.1167603000000002,0.12786865,-0.078125,2.078125,-5.078125
593,-0.26904297,-0.9480591,0.13641357,-7.1875,7.71875,-12.09375
594,-0.19799805,-0.85723877,0.14007568,-2.421875,9.234375,-10.140625
595,-0.23486328,-1.0108032,0.1720581,-5.328125,8.46875,-2.953125
596,-0.38354492,-1.2637329,0.11859131,-15.359375,-0.390625,-1.5
597,-0.3581543,-1.5025024,-0.13873291,7.28125,-5.546875,-2.09375
598,-0.27124023,-1.0913696000000002,0.022399902,25.71875,11.203125,-10.21875
599,-0.115234375,-0.51690674,-0.15045166,3.71875,2.109375,-9.375
600,-0.24536133,-0.73516846,-0.222229,-14.46875,5.96875,-0.859375
601,-0.46923828,-1.2891235,-0.15997314,-9.5625,5.9375,7.734375
602,-0.34594727,-1.0862427,-0.09942627,25.890625,18.515625,6.53125
603,-0.15795898,-0.7131958,0.08392334,23.5,16.421875,3.25
604,-0.18432617,-0.6902465999999999,0.008728027,4.40625,5.8125,10.28125
605,-0.32421875,-0.8052368000000001,-0.0823364259999999,-0.75,4.6875,12.578125
606,-0.36767578,-0.8484497,-0.11871338,5.53125,5.5625,11.59375
607,-0.3017578,-0.93414307,-0.020324707,3.375,4.296875,8.1875
608,-0.26098633,-0.9714966,0.058044434,-0.859375,1.03125,2.71875
609,-0.34301758,-0.96539307,0.042419434,-6.34375,-2.328125,3.46875
610,-0.38842773,-1.1296997,0.008239746,-17.375,-3.375,1.390625
611,-0.47631836,-1.0015259,0.1486206,-20.4375,-12.53125,-5.15625
612,-0.42529297,-1.2178345,-0.11138916,-17.4375,-23.859375,-6.640625
613,-0.26782227,-1.3098755,-0.18878174,-13.78125,3.796875,1.453125
614,-0.0847168,-0.9697876,-0.07623291,-5.296875,9.234375,-0.9375
615,0.047851562,-0.83477783,0.046569824,8.125,-4.453125,1.15625
616,-0.03466797,-1.1394653,0.00018310547,-5.203125,-9.359375,-1.734375
617,-0.29711914,-1.145813,0.0211792,-5.359375,-1.75,-3.046875
618,-0.27197266,-0.8609009,0.07098389,5.46875,-3.359375,-4.984375
619,-0.16040039,-0.70928955,0.05706787,7.34375,-5.765625,-10.484375
620,-0.18066406,-0.7192993000000001,0.07147217,1.03125,0.34375,-1.453125
621,-0.21191406,-0.7781372,0.09906006,0.3125,1.078125,4.875
622,-0.24194336,-0.90875244,0.10076904,3.15625,-0.03125,3.03125
623,-0.31225586,-1.0747681,0.18084717,2.640625,9.125,-1.015625
624,-0.2927245999999999,-0.98321533,0.17132568,2.171875,6.34375,-6.15625
625,-0.24902344,-0.8171997,0.097595215,-8.40625,3.6875,-9.46875
626,-0.2980957,-0.99420166,0.16156006,-6.875,7.875,-4.609375
627,-0.31518555,-1.1607056,0.23699951,5.046875,4.8125,-6.921875
628,-0.28808594,-1.0303345,0.08319092,-0.921875,-9.328125,-11.421875
629,-0.47558594,-1.4011841,-0.15093994,5.59375,-0.5,-3.59375
630,-0.29882812,-1.2056274,-0.057922363,25.578125,8.921875,0.421875
631,-0.028320312,-0.5911255,-0.18341064,11.359375,8.40625,-6.25
632,-0.20996094,-0.7490845,-0.15020752,-9.046875,19.296875,11.984375
633,-0.4350585999999999,-1.2092896,-0.05230713,-11.046875,12.40625,12.796875
634,-0.3869629,-1.1030884,-0.0713501,18.453125,9.453125,0.71875
635,-0.2770995999999999,-0.7962036,-0.022033691,17.40625,15.75,3.25
636,-0.23510742,-0.6851195999999999,0.015808105,2.40625,17.09375,11.0
637,-0.23925781,-0.7371215999999999,-0.038635254,1.375,12.640625,14.390625
638,-0.27929688,-0.82476807,-0.062316895,1.765625,3.796875,5.59375
639,-0.36035156,-0.96539307,-0.02911377,-0.0625,0.875,5.4375
640,-0.34204102,-0.93829346,0.008972168,4.6875,2.046875,9.609375
641,-0.29711914,-0.9505005,0.05609131,5.40625,-0.171875,7.578125
642,-0.37182617,-1.0933228000000002,0.08905029,-6.109375,-5.9375,7.515625
643,-0.44750977,-1.0894165,0.0053100586,-16.578125,-13.75,-0.21875
644,-0.34765625,-1.3220825,-0.15167236,-18.96875,-19.546875,-5.296875
645,-0.08666992,-1.2998657,-0.16119385,-5.671875,-1.453125,2.328125
646,0.14233398,-0.88067627,-0.09259033,2.78125,-1.921875,-3.796875
647,0.047607422,-0.8386841,0.00579834,1.78125,-12.03125,2.734375
648,-0.100097656,-1.1502075,-0.054748535,-12.28125,-20.609375,0.421875
649,-0.28881836,-1.0977173,0.026062012,-1.21875,-14.28125,-3.921875
650,-0.22949219,-0.83599854,0.0048217773,6.453125,-16.359375,-11.796875
651,-0.1850586,-0.7017211999999999,-0.028137207,4.328125,-11.0,-11.390625
652,-0.2211913999999999,-0.6873169,0.050231934,-3.875,-3.375,-0.25
653,-0.19726562,-0.76690674,0.04559326,-4.796875,2.125,7.375
654,-0.29736328,-1.1062622,0.17840576,-1.546875,11.734375,-2.46875
655,-0.27490234,-1.0588989,0.20819092,-0.140625,2.015625,-11.859375
656,-0.22021484,-0.8279419,0.01727295,-10.359375,9.328125,-9.328125
657,-0.24536133,-0.88116455,0.13934326,-14.109375,11.6875,-4.546875
658,-0.25,-1.117981,0.29608154,-1.5,3.78125,-4.046875
659,-0.33447266,-1.1106566999999998,0.0836792,-3.890625,-14.328125,-9.328125
660,-0.51660156,-1.3897095,-0.14190674,5.125,-5.578125,-3.453125
661,-0.28735352,-1.2251587,-0.08795166,13.703125,18.03125,-3.609375
662,-0.07128906,-0.5635376,-0.10821533,2.515625,13.859375,-2.140625
663,-0.11669922,-0.73883057,-0.15093994,-1.8125,20.6875,12.40625
664,-0.34423828,-1.229065,-0.0025024414,-11.578125,18.265625,16.484375
665,-0.3618164,-1.2024536,-0.07940674,19.046875,16.59375,7.15625
666,-0.17382812,-0.770813,-0.010803223,18.984375,13.421875,1.609375
667,-0.203125,-0.6409302,0.025817871,2.0,13.5,11.421875
668,-0.2548828,-0.8064574999999999,-0.015930176,2.484375,10.484375,14.0
669,-0.28100586,-0.8381958,0.0111694339999999,9.546875,0.3125,5.75
670,-0.23706055,-0.87506104,-0.02130127,5.625,1.234375,5.9375
671,-0.29736328,-1.0374146,0.08856201,2.46875,-0.71875,10.328125
672,-0.3166504,-1.0581665,0.028259277,-1.703125,-4.0,8.46875
673,-0.37158203,-1.039856,0.0363159179999999,-6.765625,-2.90625,4.015625
674,-0.32348633,-1.279602,-0.061584473,-20.09375,-20.09375,-9.34375
675,-0.17749023,-1.2800903,-0.13897705,-9.984375,-9.109375,-4.84375
676,0.04345703,-1.0579223999999998,-0.23931885,-2.8125,4.625,-2.28125
677,0.1381836,-0.8862915000000001,0.028259277,9.015625,-7.953125,-2.125
678,0.10864258,-1.0791626,-0.07891846,-2.03125,-21.984375,-4.875
679,-0.1850586,-1.1321411,-0.020568848,-2.15625,-15.8125,-3.546875
680,-0.25512695,-0.89801025,0.030944824,4.375,-15.265625,-6.765625
681,-0.22045898,-0.7798461999999999,-0.0020141601999999,5.625,-13.828125,-13.203125
682,-0.16674805,-0.755188,0.07171631,0.453125,-6.859375,-2.171875
683,-0.11987305,-0.7503052,0.105407715,-4.078125,-5.46875,2.375
684,-0.1538086,-0.80255127,0.046325684,-2.0625,-0.984375,-0.625
685,-0.27246094,-1.0064087,0.1539917,0.765625,7.265625,-3.390625
686,-0.28710938,-0.99298096,0.13885498,-4.265625,4.46875,-13.015625
687,-0.26635742,-0.9612427,0.06512451,-5.703125,8.859375,-16.578125
688,-0.29003906,-1.1870728000000002,0.23773193,-2.046875,5.96875,-11.21875
689,-0.29589844,-1.2119751,0.02508545,-6.359375,-9.6875,-12.859375
690,-0.47070312,-1.5320435,-0.27838135,6.15625,3.734375,-0.078125
691,-0.1850586,-1.0027466,-0.09893799,22.1875,14.15625,-5.953125
692,-0.0041503906,-0.4439087,-0.1873168999999999,8.890625,5.171875,1.53125
693,-0.2475586,-0.8267211999999999,-0.1572876,-12.703125,13.5625,10.34375
694,-0.50268555,-1.3557739,-0.14678955,-9.4375,9.3125,8.0
695,-0.3894043,-1.102356,-0.09942627,26.28125,15.078125,5.625
696,-0.20507812,-0.6651001,-0.019592285,10.859375,14.859375,2.203125
697,-0.10620117,-0.6123656999999999,-0.0413208,-4.359375,15.109375,13.3125
698,-0.1887207,-0.76275635,-0.049865723,-3.75,9.125,15.078125
699,-0.3564453,-0.8960570999999999,-0.08868408,0.5,0.453125,7.328125
700,-0.32470703,-0.97784424,-0.03692627,5.03125,-1.5625,11.21875
701,-0.33081055,-1.039856,0.04901123,-3.5625,-3.640625,9.53125
702,-0.34423828,-1.0151978000000002,0.018981934,-7.78125,-7.40625,6.015625
703,-0.33447266,-1.0715941999999998,0.04095459,-10.515625,-9.8125,2.90625
704,-0.46191406,-1.2315063,-0.121154785,-16.109375,-22.578125,-3.484375
705,-0.25268555,-1.2776489,-0.25128174,-16.375,-0.21875,-2.140625
706,0.13085938,-1.0435181,-0.04547119,3.84375,0.125,-3.53125
707,0.18920898,-0.8574828999999999,-0.0044555664,8.734375,-10.09375,3.46875
708,0.017822266,-1.0598755,-0.0713501,-0.984375,-10.828125,0.953125
709,-0.25341797,-1.1629028,-0.0230102539999999,0.8125,-10.5,-3.25
710,-0.3125,-0.9776001,-0.0056762694999999,7.125,-10.171875,-10.328125
711,-0.1928711,-0.7280884,-0.0071411133,7.53125,-9.390625,-17.09375
712,-0.15917969,-0.690979,0.038513184,-4.078125,-4.203125,-5.65625
713,-0.14453125,-0.7102661,0.06439209,-4.875,0.359375,1.484375
714,-0.13793945,-0.8545531999999999,0.08392334,-6.171875,4.84375,-0.578125
715,-0.25390625,-0.9849243,0.16912842,-8.765625,7.625,-5.109375
716,-0.25952148,-0.9421997,0.053649902,-6.109375,5.03125,-8.53125
717,-0.20703125,-0.97979736,0.14251709,0.96875,13.375,-5.9375
718,-0.25830078,-1.1292114,0.28338623,2.40625,3.453125,-5.734375
719,-0.3076172,-1.0147095,-0.054260254,-1.03125,-9.546875,-15.71875
720,-0.46948242,-1.5198364,-0.17340088,4.859375,-3.171875,-6.453125
721,-0.3239745999999999,-1.4111938,-0.06768799,4.578125,11.71875,-5.09375
722,-0.07910156,-0.6890259,-0.2732544,-4.25,19.21875,-4.703125
723,-0.095214844,-0.6633911,-0.18634033,0.046875,21.265625,10.28125
724,-0.27246094,-1.0388794,-0.0474243159999999,-3.578125,17.078125,11.65625
725,-0.3581543,-1.1729126,-0.070373535,11.359375,9.828125,4.171875
726,-0.22363281,-0.82110596,-0.04449463,20.015625,10.15625,2.234375
727,-0.19018555,-0.68707275,0.00091552734,6.984375,9.515625,9.859375
728,-0.24951172,-0.7564086999999999,-0.07720947,2.3125,4.9375,10.84375
729,-0.27294922,-0.87286377,-0.09893799,10.15625,-0.09375,5.765625
730,-0.23730469,-0.8809203999999999,-0.0012817383,5.75,1.15625,4.828125
731,-0.28344727,-0.9439087,0.06536865,2.125,-2.515625,8.59375
732,-0.31762695,-1.0430298,0.016296387,-1.78125,-5.640625,8.515625
733,-0.39111328,-1.1331177,0.026306152,-13.875,-9.15625,4.359375
734,-0.45776367,-1.0618286,-0.003967285,-18.984375,-13.859375,-0.1875
735,-0.32910156,-1.3369751,-0.16973877,-12.0625,-17.125,-3.828125
736,0.0087890625,-1.2485962,-0.22613525,-4.203125,-6.46875,-0.859375
737,0.0949707,-0.89556885,-0.06402588,5.359375,-6.703125,1.21875
738,0.118896484,-0.8977661,-0.101623535,2.3125,-22.578125,-0.375
739,-0.06762695,-1.1397095,-0.10821533,-7.078125,-28.390625,-5.5625
740,-0.30786133,-1.0581665,-0.003479004,-3.890625,-20.84375,-5.59375
741,-0.22167969,-0.8233031999999999,-0.011047363,2.890625,-23.703125,-10.625
742,-0.18554688,-0.7398070999999999,0.03729248,0.140625,-14.234375,-10.796875
743,-0.17895508,-0.6934204,0.06341553,-4.796875,-9.28125,0.625
744,-0.14575195,-0.75323486,0.09173584,-5.890625,-4.875,5.5
745,-0.19091797,-0.92681885,0.13323975,-4.140625,-4.71875,-1.859375
746,-0.2536621,-1.0005493,0.08831787,-4.296875,1.28125,-6.96875
747,-0.2680664,-0.9512329,0.04852295,2.171875,4.984375,-6.375
748,-0.18261719,-1.0046997,0.137146,7.484375,4.796875,-4.390625
749,-0.2019042999999999,-1.1118774,0.15765381,3.28125,-0.796875,-9.828125
750,-0.4633789000000001,-1.3643188,-0.15362549,-4.90625,-6.796875,-12.78125
751,-0.43579102,-1.4871216,-0.15533447,11.0,8.15625,-7.796875
752,-0.1418457,-0.8237915000000001,-0.16705322,19.46875,16.125,-12.125
753,-0.07421875,-0.51763916,-0.29278564,5.6875,15.4375,1.703125
754,-0.28393555,-0.96661377,-0.2263793999999999,-15.71875,24.125,12.734375
755,-0.4404297,-1.289856,-0.1428833,2.890625,13.953125,2.078125
756,-0.21191406,-0.90338135,-0.062561035,22.734375,18.078125,1.453125
757,-0.14257812,-0.67315674,-0.037902832,6.078125,22.0625,12.875
758,-0.2277832,-0.7329711999999999,-0.051818848,-5.234375,12.0,13.890625
759,-0.2763672,-0.7737427,-0.07086182,-3.453125,6.59375,8.9375
