sample_no,accel_x,accel_y,accel_z,gyro_x,gyro_y,gyro_z
0,0.6789551,-0.83721924,-0.13140869,-0.390625,8.625,15.3125
1,0.4868164,-1.0178833,-0.010314941,18.140625,-30.203125,8.796875
2,-0.3996582,-1.6734009,0.022644043,10.546875,-24.46875,-0.1875
3,-0.072509766,-1.0430298,0.07952881,-6.78125,6.203125,0.3125
4,0.07470703,-0.4055786,0.15594482,2.984375,3.265625,-2.15625
5,-0.021972656,-0.35406494,0.0758667,9.25,-1.625,1.140625
6,-0.025878906,-0.51763916,0.12615967,5.296875,-1.546875,-1.59375
7,0.017089844,-0.6934204,0.22039795,8.296875,5.5,-2.078125
8,0.008056641,-1.1201782,0.20599365,14.765625,6.109375,-1.046875
9,-0.008544922,-1.300354,0.19915771,1.984375,0.71875,-6.609375
10,0.06933594,-1.1221313,0.10687256,0.71875,-0.90625,-6.90625
11,-0.27905273,-1.4092407,0.21453857,19.671875,15.125,-18.609375
12,-0.3515625,-1.4065552,0.014831543,-17.21875,17.375,-16.234375
13,0.28173828,-0.8596802,-0.31524658,-23.140625,14.40625,-11.9375
14,0.3005371,-0.9324341,-0.2341919,18.296875,16.515625,13.734375
15,-0.007080078,-1.5222778,-0.0413208,12.234375,-8.1875,7.390625
16,0.0026855469,-1.161438,0.1005249,-2.71875,-0.15625,12.140625
17,-0.028076172,-0.64508057,0.06390381,-2.953125,8.796875,11.421875
18,-0.17602539,-0.40338135,0.02142334,-1.515625,-0.046875,10.828125
19,-0.15649414,-0.42315674,0.02532959,6.640625,1.765625,3.640625
20,-0.09814453,-0.61724854,-0.018859863,13.21875,-0.1875,0.03125
21,-0.06298828,-0.9636841,0.047058105,16.1875,-8.578125,-8.015625
22,-0.079833984,-1.4812622,0.101989746,7.859375,-6.546875,-4.953125
23,-0.13256836,-1.2974243,0.19403076,-15.078125,-8.75,5.78125
24,-0.12133789,-1.2752075,0.12957764,-21.734375,-19.84375,-4.890625
25,0.0031738281,-1.1919556,-0.11187744,-9.375,-11.921875,-10.125
26,0.6484375,-0.90216064,-0.38043213,-2.609375,-9.890625,5.921875
27,0.6882324,-1.2476196,-0.039611816,8.09375,-44.75,9.6875
28,-0.39794922,-1.593811,-0.0076293945,0.03125,-42.140625,6.359375
29,-0.27563477,-0.9614868,-0.011291504,-7.59375,-2.046875,-5.953125
30,0.10107422,-0.38189697,0.09588623,-2.609375,-0.296875,-4.84375
31,0.028320312,-0.29156494,0.085876465,8.625,-10.53125,2.890625
32,-0.017333984,-0.5327759,0.13861084,12.6875,-14.046875,5.453125
33,-0.0041503906,-0.8291626,0.17156982,14.515625,-9.4375,3.703125
34,-0.036865234,-1.210022,0.22064209,7.296875,-2.265625,-0.359375
35,-0.06542969,-1.272522,0.1293335,-5.59375,4.578125,-9.171875
36,-0.016845703,-1.1536255,0.260437,-12.921875,-0.875,-17.6875
37,-0.27075195,-1.3972778,0.20159912,-4.09375,18.78125,-18.046875
38,-0.22192383,-1.1467896,-0.40264893,-32.984375,23.375,-14.453125
39,0.3605957,-0.6067505,-0.6399536,-18.65625,2.328125,2.96875
40,0.4165039,-1.7974243,-0.020080566,27.078125,-1.8125,20.0
41,-0.19213867,-1.6096802,0.1359253,-6.59375,-15.859375,14.171875
42,-0.059814453,-0.6460571,0.14398193,-1.234375,15.796875,10.90625
43,-0.21411133,-0.4085083,-0.008117676,-2.609375,10.859375,2.46875
44,-0.02319336,-0.37921143,0.0138549805,13.171875,1.390625,9.0625
45,-0.00390625,-0.5210571,0.07098389,13.0625,-2.765625,4.84375
46,-0.13354492,-0.6897583,0.04852295,-0.015625,-12.328125,-5.390625
47,-0.2397461,-1.0344849,0.11566162,12.390625,-5.25,-15.59375
48,-0.092285156,-1.5462036,0.09490967,-2.078125,-6.5625,-4.5625
49,0.07104492,-1.5449829,0.3319702,-18.171875,-11.5625,12.21875
50,-0.10180664,-1.2454224,-0.06817627,-22.921875,-11.8125,0.0625
51,0.2241211,-0.9780884,-0.29107666,-0.15625,2.28125,-3.984375
52,0.66625977,-1.0586548,-0.09844971,8.265625,-46.53125,2.765625
53,0.018554688,-1.538147,-0.07867432,0.4375,-47.234375,-1.03125
54,-0.46923828,-1.2734985,0.05657959,2.359375,-8.59375,-3.875
55,-0.016845703,-0.6758423,0.10638428,-14.453125,2.078125,-6.171875
56,0.061035156,-0.38848877,0.07562256,5.453125,-1.328125,-5.578125
57,-0.00048828125,-0.40875244,0.12689209,6.75,-8.734375,0.046875
58,0.016845703,-0.53790283,0.17010498,7.78125,-10.28125,6.0625
59,-0.076171875,-0.7293091,0.18157959,1.96875,-7.25,8.328125
60,-0.17114258,-1.1541138,0.307312,-2.578125,0.796875,-9.703125
61,-0.16064453,-1.329895,0.16229248,-10.3125,18.65625,-16.40625
62,-0.08642578,-1.0474243,0.29803467,1.953125,15.953125,-15.0625
63,-0.39794922,-1.5349731,-0.15899658,-13.09375,10.78125,-14.78125
64,0.07299805,-1.3147583,-0.31744385,-16.515625,24.1875,1.71875
65,0.3461914,-1.1397095,-0.22711182,17.15625,19.9375,19.796875
66,-0.20629883,-1.5005493,-0.051574707,8.796875,-8.859375,3.0625
67,-0.14575195,-1.1599731,0.08441162,-0.4375,16.921875,5.1875
68,-0.079833984,-0.722229,0.06121826,14.453125,34.96875,14.09375
69,-0.08227539,-0.3550415,-0.00592041,3.875,20.296875,19.3125
70,-0.14038086,-0.27301025,-0.022766113,3.84375,9.625,8.65625
71,-0.12573242,-0.49273682,-0.041809082,15.4375,6.53125,-0.53125
72,-0.036376953,-0.77789307,0.007019043,21.5625,5.96875,-1.828125
73,-0.12084961,-1.3513794,0.08050537,29.375,0.140625,-4.125
74,-0.15332031,-1.9458618,0.09832764,-9.21875,-9.09375,9.9375
75,-0.20996094,-1.4378052,0.21185303,-19.296875,-9.28125,11.25
76,-0.1899414,-1.2573853,-0.062072754,-7.734375,14.984375,-3.9375
77,0.30419922,-0.8440552,-0.35162354,-5.96875,15.546875,1.53125
78,0.61328125,-0.6633911,-0.1921997,2.5,-25.03125,3.15625
79,0.0126953125,-1.4070435,-0.1428833,12.96875,-24.265625,-9.546875
80,-0.4494629,-1.3347778,0.1383667,-16.921875,-5.25,-6.421875
81,-0.017333984,-0.7625122,-0.020568848,-19.265625,18.9375,-6.578125
82,0.06542969,-0.3496704,0.042663574,-1.890625,8.90625,-4.734375
83,0.015625,-0.3262329,0.07220459,2.4375,-3.109375,1.109375
84,0.0075683594,-0.4109497,0.15838623,13.59375,-2.4375,4.828125
85,-0.0034179688,-0.8401489,0.12689209,28.375,5.25,2.515625
86,0.028320312,-1.4924927,0.09490967,4.796875,-5.5,-10.234375
87,-0.05029297,-1.3821411,0.07537842,-2.78125,8.96875,1.5625
88,-0.2697754,-1.2070923,0.11663818,-12.734375,7.125,-12.703125
89,-0.33813477,-1.4326782,-0.11920166,-17.828125,14.171875,-23.484375
90,0.14941406,-1.0220337,-0.3484497,-23.75,20.0625,-4.796875
91,0.27539062,-0.99420166,-0.27667236,5.1875,8.609375,21.125
92,0.041015625,-1.4776001,-0.047424316,9.921875,-8.921875,11.890625
93,-0.05834961,-1.3010864,0.08074951,20.109375,14.921875,18.640625
94,-0.044189453,-0.6038208,0.101257324,18.625,25.953125,17.828125
95,-0.072509766,-0.2468872,-0.050842285,-0.609375,7.015625,16.1875
96,-0.17041016,-0.3267212,0.019958496,5.640625,6.484375,2.71875
97,-0.09277344,-0.52789307,-0.09429932,12.75,1.234375,-2.75
98,0.024169922,-0.78912354,0.008239746,15.734375,-6.84375,-4.859375
99,-0.09814453,-1.6123657,0.020935059,21.375,-16.609375,-11.203125
100,-0.12597656,-1.6204224,0.17449951,-21.21875,-15.9375,9.5
101,-0.19238281,-1.4175415,0.050964355,-15.875,-6.0625,-1.46875
102,-0.035888672,-1.2837524,-0.1843872,-3.140625,11.171875,-6.25
103,0.59521484,-0.8423462,-0.38970947,-0.578125,1.234375,-9.21875
104,0.6911621,-0.9468384,-0.108947754,5.25,-43.609375,1.03125
105,-0.032226562,-1.4609985,-0.13165283,6.4375,-39.0,4.203125
106,-0.33789062,-1.0945435,0.017028809,-1.984375,-7.78125,1.234375
107,0.020507812,-0.58917236,0.02923584,-10.21875,3.140625,-7.890625
108,0.08276367,-0.32208252,0.018005371,3.859375,-4.359375,-7.21875
109,0.039794922,-0.35894775,0.049743652,1.5625,-11.09375,-2.984375
110,-0.11352539,-0.5623169,0.14349365,18.90625,-4.171875,6.9375
111,-0.09423828,-1.0093384,0.070739746,6.96875,-4.40625,3.125
112,0.03466797,-1.4959106,0.12249756,-3.828125,-4.421875,-19.359375
113,-0.011230469,-1.2710571,0.22039795,-11.421875,11.578125,-9.421875
114,-0.41015625,-1.3757935,-0.0635376,-16.34375,7.90625,-21.171875
115,-0.11987305,-1.312561,-0.31134033,-21.515625,28.109375,-20.171875
116,0.42138672,-0.9343872,-0.37823486,-10.15625,18.546875,9.703125
117,0.16845703,-1.3560181,-0.23370361,7.5,-0.046875,15.125
118,-0.08886719,-1.3250122,0.047058105,-1.34375,-4.3125,8.609375
119,0.0078125,-0.8887329,0.06781006,13.0625,27.703125,18.5
120,-0.05810547,-0.42242432,0.0065307617,0.859375,7.25,16.171875
121,-0.13110352,-0.2341919,-0.008605957,1.34375,-0.40625,13.4375
122,-0.22973633,-0.41729736,0.008483887,14.078125,2.109375,2.328125
123,-0.049560547,-0.71295166,-0.089660645,13.609375,3.15625,-2.203125
124,-0.037841797,-1.2302856,0.04510498,22.546875,-6.734375,-11.3125
125,-0.10205078,-1.7158813,0.042663574,-5.765625,-11.421875,-2.25
126,-0.19750977,-1.4265747,0.17962646,-17.78125,-3.734375,8.59375
127,-0.12841797,-1.2761841,-0.07672119,-4.609375,13.90625,-5.046875
128,0.2775879,-0.99957275,-0.2432251,-8.5625,10.421875,-11.203125
129,0.7351074,-0.861145,-0.19903564,3.03125,-33.734375,-0.21875
130,0.26416016,-1.3010864,-0.124816895,16.546875,-41.5,1.328125
131,-0.41503906,-1.4707642,0.013366699,1.390625,-23.71875,0.78125
132,-0.11328125,-0.8335571,0.011657715,-17.90625,11.9375,-2.9375
133,0.084228516,-0.38043213,0.02508545,-1.328125,8.859375,-4.953125
134,0.14404297,-0.32110596,0.022644043,8.546875,-5.40625,0.109375
135,0.0034179688,-0.4841919,0.121520996,8.046875,-15.265625,5.34375
136,-0.15014648,-0.7805786,0.090270996,8.453125,-10.46875,5.4375
137,0.026123047,-1.2627563,0.07537842,-2.234375,-10.84375,-13.796875
138,0.19384766,-1.3494263,0.13372803,-3.953125,9.21875,-14.65625
139,-0.2631836,-1.388977,0.11639404,-4.046875,8.328125,-7.875
140,-0.46411133,-1.4751587,-0.2600708,-30.609375,10.625,-17.734375
141,0.41870117,-0.93536377,-0.29962158,-6.234375,24.703125,-1.953125
142,0.17236328,-1.1738892,-0.20025635,10.453125,7.78125,20.09375
143,-0.06323242,-1.3320923,-0.0881958,1.15625,-5.640625,1.703125
144,0.010009766,-1.1433716,0.0289917,3.15625,21.796875,13.484375
145,0.022705078,-0.6309204,-0.014953613,6.046875,16.75,15.359375
146,0.031982422,-0.32183838,0.00970459,3.453125,-1.609375,15.3125
147,-0.29296875,-0.4500122,0.039245605,5.671875,1.203125,6.484375
148,-0.15820312,-0.5745239,-0.030578613,12.609375,9.234375,-1.765625
149,-0.025878906,-0.7974243,-0.03717041,18.953125,3.640625,-7.71875
150,-0.0715332,-1.4614868,0.05267334,19.15625,-5.40625,-11.125
151,-0.12988281,-1.614563,0.22528076,-10.15625,-2.078125,7.234375
152,-0.20336914,-1.2861938,0.019958496,-35.84375,-5.078125,-2.265625
153,-0.052246094,-1.1812134,-0.2276001,-5.859375,7.09375,-18.828125
154,0.701416,-1.0200806,-0.3880005,-7.09375,7.25,1.171875
155,0.74487305,-1.2053833,-0.12261963,17.046875,-28.109375,7.59375
156,-0.64819336,-1.3779907,-0.124572754,1.015625,-24.84375,1.484375
157,-0.33251953,-0.89190674,-0.054748535,-7.328125,17.34375,-10.03125
158,0.23071289,-0.41119385,0.06976318,-3.890625,10.234375,-7.484375
159,0.15014648,-0.40509033,0.018005371,4.546875,-7.140625,4.640625
160,-0.071777344,-0.5210571,0.08416748,5.8125,-13.546875,4.15625
161,-0.099609375,-0.77423096,0.09539795,12.875,-1.796875,-0.140625
162,0.061035156,-1.1560669,0.11444092,-4.59375,-5.25,-5.28125
163,-0.018554688,-1.3931274,0.117370605,-8.859375,0.65625,-11.9375
164,-0.21264648,-1.3132935,0.29144287,-6.03125,1.875,-10.015625
165,-0.43432617,-1.2503052,0.039733887,-26.609375,15.6875,-18.203125
166,-0.17773438,-0.93170166,-0.29327393,-24.546875,31.4375,-11.71875
167,0.36865234,-0.5864868,-0.4956665,-2.59375,9.359375,3.390625
168,0.10253906,-1.7842407,-0.11065674,29.109375,0.0625,11.1875
169,-0.07006836,-1.5755005,0.12005615,-3.15625,-4.578125,10.328125
170,0.05126953,-0.8303833,0.066833496,6.28125,21.328125,14.328125
171,-0.12963867,-0.409729,0.01751709,6.0625,3.78125,15.765625
172,-0.1418457,-0.3328247,-0.0032348633,8.5,-2.75,13.71875
173,-0.09399414,-0.4036255,0.02947998,13.46875,-3.34375,4.453125
174,-0.12792969,-0.69366455,-0.059143066,12.46875,-8.703125,-0.546875
175,-0.16967773,-1.1675415,-0.0010375977,15.5,-14.359375,-12.828125
176,-0.076171875,-1.6199341,0.07366943,-8.578125,-13.28125,-6.125
177,-0.122558594,-1.4915161,0.27215576,-14.921875,-5.65625,7.921875
178,-0.2685547,-1.2920532,-0.059143066,-14.25,3.890625,-10.765625
179,0.23364258,-0.973938,-0.28790283,-13.796875,18.125,-8.078125
180,0.7233887,-0.9404907,-0.22198486,3.296875,-34.859375,-0.75
181,0.15600586,-1.4221802,-0.13653564,10.34375,-39.71875,0.484375
182,-0.40039062,-1.3606567,0.0060424805,9.0,-14.03125,3.921875
183,-0.14331055,-0.7317505,0.005065918,-15.703125,4.9375,-0.734375
184,0.014892578,-0.3250122,0.014831543,2.484375,4.140625,-4.3125
185,0.007080078,-0.37091064,0.062927246,10.578125,-5.109375,-0.1875
186,-0.03540039,-0.5779419,0.1473999,14.90625,-2.421875,8.265625
187,-0.06323242,-0.8838501,0.15325928,11.921875,5.703125,11.9375
188,-0.053955078,-1.291565,0.054626465,-8.078125,-4.046875,-1.09375
189,0.059326172,-1.2761841,0.113708496,-2.40625,9.078125,-6.140625
190,-0.1706543,-1.3147583,0.2267456,-0.59375,9.90625,-17.828125
191,-0.4267578,-1.4883423,-0.31915283,-19.71875,16.390625,-18.78125
192,0.3269043,-0.9024048,-0.38116455,-13.625,22.890625,-2.875
193,0.21704102,-1.1262817,-0.2546997,17.40625,16.015625,21.0625
194,-0.16430664,-1.3701782,-0.089416504,-3.109375,-12.5,7.375
195,0.044921875,-1.062561,0.0211792,0.796875,16.46875,9.125
196,-0.05078125,-0.6851196,0.045837402,9.125,23.265625,13.671875
197,-0.11425781,-0.38946533,-0.0154418945,-1.625,5.90625,20.453125
198,-0.17602539,-0.37799072,0.008483887,0.28125,1.375,5.75
199,-0.13647461,-0.5845337,-0.046203613,7.59375,3.84375,-4.46875
200,-0.02758789,-0.88067627,0.023376465,10.03125,0.03125,-7.109375
201,-0.046142578,-1.5945435,0.026062012,14.15625,-5.09375,-10.265625
202,-0.2355957,-1.5635376,0.1864624,-19.671875,-9.25,12.625
203,-0.23339844,-1.2217407,0.07635498,-26.015625,-10.15625,-1.703125
204,-0.028076172,-1.2415161,-0.09136963,-7.03125,12.65625,-18.078125
205,0.49682617,-0.9819946,-0.2571411,4.453125,23.953125,1.109375
206,0.52856445,-1.1016235,-0.1921997,11.984375,-29.5,16.34375
207,-0.049804688,-1.3894653,-0.018615723,-8.734375,-29.53125,0.78125
208,-0.14868164,-1.0027466,0.053894043,-21.34375,5.34375,-11.890625
209,0.18286133,-0.4758911,0.020690918,-1.109375,16.34375,-19.46875
210,0.1015625,-0.29595947,0.027038574,17.828125,1.296875,-8.9375
211,-0.18334961,-0.51519775,0.03704834,14.390625,-0.1875,10.171875
212,-0.10644531,-0.76446533,0.09710693,8.796875,11.34375,8.84375
213,0.049804688,-1.0559692,0.17913818,4.453125,0.234375,-7.109375
214,0.08081055,-1.3208618,0.15447998,10.625,-7.875,-12.890625
215,-0.07446289,-1.0784302,0.07537842,4.1875,-1.609375,1.046875
216,-0.32592773,-1.2178345,0.25286865,17.21875,4.9375,-12.015625
217,-0.36132812,-1.4661255,-0.12652588,-9.96875,12.390625,-14.140625
218,0.19140625,-0.99713135,-0.41070557,-27.203125,12.625,-6.703125
219,0.40063477,-0.99420166,-0.28863525,21.015625,21.59375,18.15625
220,-0.10839844,-1.5125122,-0.19073486,1.875,-14.375,9.796875
221,-0.140625,-1.1414185,0.054138184,-3.671875,1.84375,13.734375
222,-0.013671875,-0.6411743,0.0038452148,5.90625,19.046875,19.203125
223,-0.068603516,-0.35186768,-0.06573486,-2.15625,2.21875,17.140625
224,-0.07373047,-0.34259033,-0.023742676,3.0625,-8.265625,2.640625
225,-0.123535156,-0.5159302,-0.026428223,13.875,-9.34375,1.25
226,-0.052490234,-0.97052,0.013366699,20.828125,-5.703125,-2.421875
227,-0.02368164,-1.7351685,0.036071777,8.84375,-13.0625,-7.90625
228,-0.19018555,-1.3858032,0.184021,-16.203125,1.140625,12.421875
229,-0.13623047,-1.4099731,-0.046447754,-15.640625,-14.15625,0.609375
230,0.25610352,-1.2415161,-0.29644775,-4.125,2.109375,-2.703125
231,0.748291,-0.87164307,-0.36187744,-3.96875,-9.0625,5.359375
232,0.3552246,-1.0706177,-0.17681885,12.375,-35.40625,-2.421875
233,-0.31420898,-1.4373169,-0.10675049,4.40625,-24.984375,-6.53125
234,-0.07495117,-0.90753174,-0.085754395,-17.46875,8.15625,-4.84375
235,0.072753906,-0.44366455,0.021911621,-7.125,4.640625,-5.953125
236,0.06982422,-0.33721924,-0.0115356445,3.09375,-3.0625,-3.65625
237,-0.026367188,-0.49298096,0.06878662,11.515625,-6.796875,-1.484375
238,-0.03540039,-0.6716919,0.07904053,3.390625,-5.78125,2.546875
239,0.041992188,-1.039856,0.116882324,2.96875,-7.25,-1.59375
240,-0.12670898,-1.4116821,0.10321045,-11.75,-5.171875,-10.640625
241,-0.10107422,-1.1712036,0.17279053,-14.71875,-0.59375,-4.625
242,-0.20458984,-1.4343872,0.04510498,-2.296875,11.1875,-19.53125
243,-0.1394043,-1.4277954,-0.22320557,-10.21875,26.671875,-8.359375
244,0.34326172,-0.81134033,-0.39239502,-3.765625,23.3125,8.921875
245,-0.0029296875,-1.1775513,-0.23809814,7.3125,9.171875,17.5
246,0.008300781,-1.260315,-0.05645752,-3.03125,-3.03125,6.46875
247,0.045654297,-1.08844,0.061950684,9.625,28.65625,17.71875
248,-0.16333008,-0.5864868,-0.019592285,-10.3125,14.375,14.078125
249,-0.13085938,-0.2637329,0.0033569336,1.0,12.6875,2.75
250,-0.13867188,-0.42926025,-0.046936035,12.765625,15.296875,-8.171875
251,0.06542969,-0.644104,-0.054260254,16.703125,4.234375,-2.359375
252,0.07373047,-1.1311646,0.016784668,4.25,-10.984375,-6.671875
253,-0.10986328,-1.729065,0.09197998,-4.328125,-16.984375,-10.125
254,-0.2944336,-1.2442017,0.2921753,-29.15625,-7.390625,9.0
255,-0.24560547,-1.1802368,0.008972168,-21.875,-5.65625,-14.015625
256,0.26098633,-1.1343384,-0.22296143,0.296875,25.078125,-16.6875
257,0.7373047,-0.9121704,-0.22564697,-15.0625,-32.078125,4.21875
258,0.27905273,-1.3809204,-0.1375122,23.46875,-42.1875,3.34375
259,-0.5126953,-1.5183716,0.036071777,1.4375,-21.90625,1.1875
260,-0.05444336,-0.861145,0.0033569336,-15.546875,9.203125,0.34375
261,0.17456055,-0.29571533,0.07952881,3.90625,-0.921875,-1.1875
262,0.061279297,-0.3501587,0.0770874,11.375,-17.59375,6.578125
263,-0.15844727,-0.53131104,0.12567139,10.40625,-9.3125,10.03125
264,-0.13208008,-0.739563,0.14788818,8.0625,3.15625,1.28125
265,0.00048828125,-1.1121216,0.13861084,3.53125,-0.640625,-12.125
266,-0.005859375,-1.3963013,0.12347412,-3.640625,7.796875,-12.390625
267,-0.1381836,-1.3677368,0.276062,3.09375,16.015625,-7.234375
268,-0.45043945,-1.5164185,-0.14996338,-24.40625,13.015625,-19.6875
269,0.1496582,-0.8574829,-0.39361572,-20.34375,30.03125,-4.453125
270,0.43579102,-1.0151978,-0.35943604,17.6875,12.34375,19.578125
271,-0.052978516,-1.7625122,-0.04937744,4.3125,-5.9375,10.328125
272,-0.11645508,-1.1130981,0.1161499,-5.0625,9.375,15.8125
273,0.057617188,-0.5960083,0.05999756,4.09375,27.8125,10.40625
274,-0.072753906,-0.37994385,0.0021362305,-7.0,2.734375,13.9375
275,-0.14501953,-0.3369751,0.0018920898,-0.125,-2.75,9.546875
276,-0.076416016,-0.49884033,-0.006652832,16.28125,-2.25,-1.875
277,-0.037353516,-0.84503174,0.045837402,23.765625,-6.546875,-6.953125
278,-0.007080078,-1.5820923,0.1486206,19.296875,-14.1875,-8.0
279,-0.19604492,-1.4597778,0.09906006,-8.984375,-2.546875,16.21875
280,-0.19311523,-1.3164673,0.08538818,-18.25,-9.6875,-4.421875
281,-0.029785156,-1.3674927,-0.14117432,-8.890625,11.65625,-14.359375
282,0.35791016,-0.87701416,-0.31988525,-2.21875,16.09375,-6.796875
283,0.6555176,-0.973938,-0.15802002,4.796875,-34.125,4.953125
284,0.09057617,-1.4387817,-0.08648682,7.046875,-27.671875,3.640625
285,-0.25146484,-1.107727,0.025817871,-4.03125,-4.203125,5.28125
286,0.0126953125,-0.6069946,0.05218506,-6.703125,2.265625,-2.78125
287,0.084472656,-0.37506104,0.018981934,4.640625,-5.375,-2.1875
288,-0.0014648438,-0.48858643,0.078308105,10.609375,-7.609375,1.46875
289,-0.072509766,-0.7085571,0.15887451,12.65625,2.25,1.9375
290,-0.028320312,-1.0337524,0.11810303,3.921875,6.234375,0.734375
291,0.014892578,-1.2317505,0.12445068,-9.234375,-2.15625,-6.328125
292,0.104003906,-1.2432251,0.17913818,-10.234375,4.328125,-12.859375
293,-0.2368164,-1.4959106,0.19110107,6.390625,14.65625,-15.90625
294,-0.33691406,-1.2935181,-0.3040161,-32.265625,15.140625,-13.578125
295,0.42944336,-0.6494751,-0.37139893,-18.15625,20.625,-9.875
296,0.32739258,-1.2451782,-0.18414307,22.984375,16.25,18.703125
297,-0.15576172,-1.529602,-0.014953613,-7.015625,-22.671875,4.109375
298,0.12548828,-0.9336548,0.11151123,9.40625,16.78125,13.484375
299,0.011474609,-0.6091919,0.04486084,7.484375,5.84375,14.265625
300,-0.13647461,-0.4060669,-0.02545166,-1.34375,-13.5,11.484375
301,-0.12182617,-0.43634033,0.032165527,9.375,-8.140625,-0.4375
302,-0.06323242,-0.60723877,-0.0010375977,15.046875,-9.953125,-1.15625
303,-0.14794922,-0.9299927,0.06317139,14.8125,-13.984375,-7.125
304,-0.11206055,-1.6616821,0.001159668,11.5625,-12.015625,-7.390625
305,-0.0012207031,-1.5396118,0.30413818,-10.59375,-14.09375,8.65625
306,-0.16430664,-1.3096313,0.12615967,-30.984375,-22.796875,-3.25
307,-0.19458008,-1.0581665,-0.22784424,-6.234375,5.734375,-14.75
308,0.6357422,-0.769104,-0.41827393,-15.765625,-4.921875,0.671875
309,0.736084,-1.1826782,-0.07965088,15.265625,-40.96875,-1.59375
310,-0.55322266,-1.6243286,-0.021057129,3.4375,-25.015625,0.5625
311,-0.34643555,-0.9631958,0.039489746,-9.03125,16.703125,-1.90625
312,0.087646484,-0.43121338,0.043640137,-0.578125,18.3125,-11.9375
313,0.10083008,-0.34796143,0.047790527,10.421875,3.640625,0.421875
314,0.05078125,-0.55841064,0.09124756,13.4375,-1.78125,5.546875
315,-0.0087890625,-0.8179321,0.10223389,17.359375,2.921875,5.59375
316,0.05053711,-1.0774536,0.097595215,-2.25,-8.734375,1.828125
317,-0.10644531,-1.3406372,0.11199951,-3.890625,-2.796875,-2.1875
318,-0.2084961,-1.2908325,0.26531982,-11.09375,5.734375,-6.484375
319,-0.36816406,-1.4644165,-0.27008057,-16.484375,8.59375,-23.5
320,0.13061523,-1.1240845,-0.24151611,-6.671875,32.390625,-11.515625
321,0.24511719,-0.9961548,-0.22125244,2.40625,21.09375,23.0
322,-0.038330078,-1.1980591,-0.17828369,0.734375,0.21875,8.046875
323,0.067871094,-1.2102661,-0.026916504,2.46875,6.5625,1.75
324,0.060546875,-1.0408325,0.024353027,2.515625,17.796875,22.46875
325,-0.021484375,-0.45367432,0.03265381,-2.8125,-0.5625,19.96875
326,-0.16992188,-0.3081665,0.019470215,-3.25,-7.359375,4.765625
327,-0.24707031,-0.50982666,-0.0020141602,5.703125,3.875,-3.90625
328,0.012207031,-0.6951294,-0.017150879,9.75,1.265625,-4.453125
329,0.01928711,-1.166565,0.11566162,21.953125,-6.21875,-9.296875
330,-0.19677734,-1.647522,0.01361084,-1.140625,-6.46875,4.5
331,-0.17456055,-1.3899536,0.22625732,-10.875,-5.234375,6.25
332,-0.19946289,-1.3757935,0.11248779,-16.5,5.453125,-10.984375
333,0.056640625,-1.0784302,-0.17852783,-8.875,17.90625,-7.203125
334,0.5605469,-0.7485962,-0.28326416,-5.4375,-3.140625,1.46875
335,0.5041504,-1.1231079,-0.07574463,21.484375,-32.890625,-2.34375
336,-0.29516602,-1.3828735,0.02166748,-9.625,-22.78125,5.96875
337,-0.23510742,-0.8809204,0.08465576,-9.625,13.015625,0.84375
338,0.088378906,-0.45440674,0.01361084,-1.4375,12.609375,-6.171875
339,0.071777344,-0.35992432,0.07635498,11.875,0.875,-0.640625
340,-0.076416016,-0.6477661,0.15472412,16.34375,3.71875,3.90625
341,-0.05053711,-0.90045166,0.08929443,11.734375,8.140625,2.265625
342,0.083740234,-1.1072388,0.07122803,2.8125,4.890625,1.03125
343,0.016845703,-1.1760864,0.07147217,5.78125,-0.265625,-6.359375
344,-0.16674805,-1.2920532,0.20892334,2.5625,2.078125,-8.28125
345,-0.3935547,-1.5708618,-0.16705322,-18.75,11.125,-15.09375
346,0.14453125,-1.0510864,-0.12701416,-8.84375,29.421875,-11.21875
347,0.2290039,-0.86260986,-0.34039307,6.453125,24.609375,10.078125
348,-0.06689453,-1.3157349,-0.19293213,6.671875,1.6875,2.578125
349,-0.0024414062,-1.3569946,0.018737793,7.296875,21.40625,6.546875
350,-0.013427734,-0.8452759,0.024841309,7.3125,27.578125,12.421875
351,-0.04638672,-0.36920166,-0.012756348,-1.640625,10.890625,11.40625
352,-0.123046875,-0.37823486,-0.047424316,0.3125,6.359375,2.421875
353,-0.057373047,-0.5667114,-0.030578613,10.203125,4.28125,0.09375
354,-0.044921875,-0.7962036,-0.003479004,17.84375,-3.984375,-2.75
355,-0.13720703,-1.440979,0.0038452148,5.703125,-12.15625,-8.421875
356,-0.1484375,-1.4963989,0.042175293,-12.484375,-3.859375,6.875
357,-0.10571289,-1.3379517,0.055603027,-15.3125,-7.328125,-0.234375
358,-0.06665039,-1.3618774,-0.0960083,-8.28125,-2.828125,-7.6875
359,0.47924805,-0.8106079,-0.36309814,-1.078125,9.109375,-1.734375
360,0.6437988,-0.83428955,-0.19122314,7.109375,-33.515625,6.765625
361,-0.1965332,-1.5755005,-0.11016846,0.8125,-36.71875,2.8125
362,-0.18701172,-1.0823364,-0.014221191,-6.046875,-3.109375,-1.359375
363,0.17944336,-0.6448364,0.049743652,-3.15625,1.75,-1.5
364,0.068115234,-0.42877197,0.05291748,2.984375,-9.671875,-0.328125
365,-0.09472656,-0.47906494,0.051696777,8.375,-4.390625,0.65625
366,-0.11010742,-0.65216064,0.090026855,11.0625,2.65625,-1.328125
367,0.020996094,-0.9585571,0.050231934,5.59375,5.71875,-5.625
368,0.076416016,-1.2617798,0.085632324,-0.578125,-0.375,-15.375
369,0.0703125,-1.2168579,0.05706787,-16.25,-3.78125,-10.53125
370,-0.20996094,-1.7566528,-0.17095947,-21.671875,-10.453125,-13.859375
371,0.011962891,-1.2422485,-0.049865723,-1.75,16.890625,-6.90625
372,-0.022949219,-0.9795532,-0.270813,-11.1875,12.296875,20.75
373,0.04663086,-0.7786255,-0.25811768,-2.03125,-3.125,1.390625
374,0.020019531,-1.4077759,-0.053771973,20.46875,-6.25,3.484375
375,0.020507812,-1.1721802,0.01751709,5.75,6.9375,16.3125
376,0.04296875,-0.45098877,0.015319824,1.359375,1.234375,15.578125
377,-0.24389648,-0.35235596,0.012390137,-1.703125,-2.984375,6.046875
378,-0.2175293,-0.5108032,0.005065918,6.0,2.171875,1.25
379,0.05493164,-0.6370239,-0.074523926,6.203125,-5.4375,0.828125
380,-0.09838867,-1.079895,0.08685303,10.640625,-10.890625,-7.609375
381,-0.2290039,-1.5410767,0.054382324,-7.734375,-5.359375,-3.734375
382,-0.09790039,-1.4014282,0.18890381,-17.984375,-1.828125,6.0
383,-0.09008789,-1.4182739,0.034362793,-3.109375,12.3125,0.765625
384,0.20507812,-1.0874634,-0.21417236,-7.578125,10.78125,2.71875
385,0.47509766,-0.86798096,-0.2966919,4.4375,-8.3125,-2.875
386,0.22607422,-1.1455688,-0.073791504,9.40625,-31.515625,-2.9375
387,-0.1262207,-1.3731079,0.010192871,2.40625,-24.796875,1.90625
388,-0.14892578,-0.8726196,0.085632324,-2.859375,9.765625,0.984375
389,-0.008056641,-0.44732666,0.043151855,-0.609375,4.84375,-8.3125
390,0.06323242,-0.39215088,0.02557373,15.25,5.25,-6.21875
391,0.09448242,-0.57940674,0.10101318,13.03125,2.484375,4.53125
392,-0.019042969,-0.73101807,0.08734131,2.1875,-4.21875,7.734375
393,-0.040283203,-1.0957642,0.11419678,-8.15625,-3.90625,-8.15625
394,-0.099609375,-1.2598267,0.12542725,-10.40625,13.15625,-11.390625
395,-0.0859375,-1.1965942,0.1552124,-1.15625,15.6875,-16.6875
396,-0.20239258,-1.4712524,-0.1453247,-10.78125,-5.28125,-27.0625
397,0.09643555,-1.2791138,-0.19708252,-4.015625,21.4375,-3.59375
398,0.07495117,-1.0645142,-0.40948486,-2.421875,7.640625,19.4375
399,-0.017089844,-1.2935181,-0.20123291,2.34375,-11.640625,1.3125
400,0.64331055,-0.798645,-0.23443604,-4.15625,-28.265625,3.84375
401,0.18261719,-1.4190063,-0.11798096,13.859375,-29.21875,-4.25
402,-0.35791016,-1.2891235,0.09100342,-6.75,-4.953125,3.15625
403,-0.05493164,-0.7073364,0.02142334,-12.453125,12.0625,-1.21875
404,0.064208984,-0.34283447,0.008972168,-0.1875,7.84375,-7.296875
405,0.019042969,-0.36724854,0.06976318,9.421875,-3.171875,-3.578125
406,-0.03149414,-0.6358032,0.15863037,12.421875,-1.9375,3.53125
407,-0.05859375,-0.97052,0.1239624,1.265625,-4.84375,1.015625
408,-0.0146484375,-1.2280884,0.082214355,-6.015625,-2.234375,-8.96875
409,0.026123047,-1.114563,0.14154053,-9.5,3.890625,-8.8125
410,-0.27954102,-1.5003052,0.2982788,-4.640625,17.875,-11.78125
411,-0.36791992,-1.348938,-0.2078247,-36.03125,20.28125,-16.3125
412,0.26635742,-0.803772,-0.51104736,-28.59375,12.6875,-4.484375
413,0.32641602,-1.385315,-0.17364502,28.328125,22.59375,17.953125
414,-0.11279297,-1.4959106,0.01727295,-5.53125,-15.046875,9.96875
415,0.036132812,-0.93170166,0.13934326,14.125,16.984375,11.921875
416,0.009521484,-0.5820923,0.04437256,6.34375,14.359375,12.375
417,-0.17822266,-0.39483643,0.034851074,1.859375,6.265625,8.765625
418,-0.088378906,-0.45318604,0.04095459,15.484375,8.859375,2.453125
419,-0.072265625,-0.59869385,-0.036193848,12.109375,-1.25,-1.53125
420,-0.1809082,-0.9529419,0.10760498,13.0,-7.171875,-12.5
421,-0.18115234,-1.5681763,-0.008605957,-1.953125,-2.34375,-5.484375
422,0.06591797,-1.4512329,0.35028076,-27.53125,-16.828125,10.375
423,-0.1081543,-1.331604,0.22723389,-25.859375,-23.84375,3.28125
424,0.033935547,-1.031311,-0.21588135,-8.421875,-6.8125,-9.390625
425,0.5554199,-0.87677,-0.30377197,-10.046875,-21.40625,3.75
426,0.5847168,-1.3718872,-0.002746582,8.609375,-40.46875,-0.359375
427,-0.50878906,-1.5501099,0.046813965,4.796875,-19.859375,6.109375
428,-0.1628418,-0.81085205,0.0211792,-2.84375,9.0625,0.40625
429,0.026855469,-0.3550415,0.09051514,11.53125,5.890625,-6.796875
430,-0.017578125,-0.44708252,0.07122803,14.4375,-3.1875,5.921875
431,0.046142578,-0.6253052,0.152771,7.171875,-8.203125,8.09375
432,0.02734375,-0.80670166,0.18450928,7.40625,-2.890625,6.390625
433,0.039794922,-1.1008911,0.11956787,-7.515625,-5.453125,1.359375
434,-0.053222656,-1.2258911,0.16473389,-1.375,3.96875,-3.90625
435,-0.07348633,-1.3963013,0.34320068,3.375,5.84375,-13.890625
436,-0.375,-1.5488892,-0.1375122,-19.78125,-3.84375,-19.015625
437,0.18383789,-1.022522,-0.24346924,-3.265625,17.703125,-11.21875
438,0.24682617,-0.86187744,-0.15826416,11.921875,18.953125,16.515625
439,-0.0048828125,-1.3430786,-0.14190674,-10.25,-7.15625,6.359375
440,-0.0024414062,-1.274231,0.05291748,1.875,7.796875,0.0625
441,0.008544922,-0.9143677,0.061462402,10.6875,32.171875,11.59375
442,-0.036376953,-0.47247314,0.021911621,8.0,18.34375,11.5
443,-0.15258789,-0.32843018,-0.042785645,1.171875,9.234375,2.359375
444,-0.19091797,-0.4776001,-0.037902832,9.296875,9.171875,-3.953125
445,0.024169922,-0.6355591,-0.07232666,11.828125,4.203125,-7.0625
446,-0.04296875,-0.9439087,0.15863037,23.640625,-2.109375,-8.90625
447,-0.15356445,-1.9924927,0.0692749,13.359375,-2.546875,-5.75
448,-0.1496582,-1.4592896,0.22064209,-15.0625,-8.6875,17.484375
449,-0.20605469,-1.2566528,-0.0010375977,-8.890625,8.46875,-3.921875
450,0.09082031,-1.2371216,-0.19293213,-4.734375,13.296875,-2.515625
451,0.48608398,-0.8179321,-0.42388916,-14.8125,-5.421875,-0.84375
452,0.40942383,-0.94000244,-0.15386963,10.53125,-28.375,-5.359375
453,-0.0056152344,-1.5220337,-0.07989502,-0.9375,-20.09375,0.40625
454,-0.28930664,-0.98516846,0.039245605,-14.15625,1.6875,5.46875
455,-0.0021972656,-0.5220337,0.013366699,-9.375,13.109375,-5.265625
456,0.0859375,-0.35943604,-0.0025024414,3.140625,4.546875,-4.453125
457,0.047851562,-0.42633057,0.10443115,10.984375,1.46875,2.28125
458,0.01953125,-0.661438,0.1161499,8.546875,-3.703125,6.9375
459,-0.017822266,-1.0698853,0.13812256,1.046875,-6.796875,1.5625
460,-0.024658203,-1.312561,0.11273193,-0.46875,-5.609375,-8.453125
461,-0.05102539,-1.171936,0.19451904,-2.046875,1.3125,-5.65625
462,-0.359375,-1.5706177,0.026794434,-10.75,4.890625,-14.859375
463,-0.17504883,-1.3130493,-0.035461426,-21.984375,13.78125,-15.953125
464,0.26757812,-0.87286377,-0.2798462,-7.65625,28.234375,8.421875
465,0.10546875,-1.0684204,-0.20245361,7.875,16.96875,14.703125
466,-0.036132812,-1.2703247,-0.07989502,2.890625,-2.03125,-0.390625
467,-0.033691406,-1.0435181,0.094177246,14.265625,25.625,10.34375
468,0.017578125,-0.60894775,0.017028809,16.0625,18.96875,17.640625
469,-0.021728516,-0.37994385,-0.012268066,5.59375,8.6875,16.140625
470,-0.14086914,-0.46929932,-0.041809082,3.515625,0.90625,5.390625
471,-0.026367188,-0.60528564,-0.031555176,15.671875,-2.140625,-0.03125
472,-0.05102539,-1.0220337,-0.04058838,12.5625,-16.859375,-4.21875
473,-0.20361328,-1.6157837,0.03729248,8.359375,-10.34375,-4.09375
474,0.013183594,-0.83477783,0.086120605,5.8125,2.203125,2.921875
475,0.013427734,-1.2349243,0.057556152,2.90625,-0.6875,-9.0625
476,-0.14208984,-1.3687134,0.20526123,-4.125,-0.296875,-5.015625
477,-0.22802734,-1.5623169,-0.019348145,-13.953125,6.125,-20.28125
478,-0.04321289,-1.3135376,-0.206604,-13.40625,20.875,-16.59375
479,0.28955078,-0.7251587,-0.3665161,-14.1875,14.296875,8.21875
480,0.041259766,-1.2632446,-0.24493408,12.09375,4.515625,14.421875
481,-0.05883789,-1.4744263,-0.014465332,-14.5,-13.46875,0.671875
482,0.20947266,-0.9241333,0.073913574,10.578125,26.265625,19.171875
483,-0.0012207031,-0.5198364,0.04559326,1.984375,3.40625,17.328125
484,-0.19580078,-0.3123169,0.014343262,-0.515625,-9.546875,10.078125
485,-0.13623047,-0.44854736,0.015319824,15.203125,-2.8125,-0.96875
486,-0.034179688,-0.6260376,0.04534912,18.796875,-1.3125,-3.34375
487,-0.03149414,-1.0151978,-0.042785645,20.25,-16.921875,-7.28125
488,-0.05859375,-1.7620239,0.06707764,2.796875,-26.203125,-9.921875
489,-0.060058594,-1.6773071,0.29388428,-17.09375,-18.140625,11.046875
490,-0.21826172,-1.2827759,-0.0803833,-29.828125,-7.109375,-2.25
491,0.19433594,-0.8845825,-0.26861572,-1.203125,28.1875,-7.25
492,0.7097168,-0.7283325,-0.22857666,5.65625,-36.546875,-4.234375
493,0.11352539,-1.4551392,-0.15777588,23.578125,-30.078125,-3.515625
494,-0.40454102,-1.3215942,0.0289917,-8.171875,-15.078125,-0.21875
495,-0.08276367,-0.7752075,-0.019104004,-16.546875,11.453125,-1.890625
496,0.041748047,-0.3616333,0.08270264,1.03125,10.34375,-7.203125
497,0.07128906,-0.42510986,0.030456543,5.296875,0.125,-3.34375
498,0.051757812,-0.6326294,0.16253662,15.09375,-0.625,7.96875
499,-0.036132812,-0.8579712,0.08660889,5.328125,-5.015625,7.203125
500,-0.057861328,-1.1516724,0.10784912,2.40625,-6.0625,-7.453125
501,-0.035888672,-1.4067993,0.16473389,2.78125,15.109375,-10.984375
502,-0.15161133,-1.305481,0.11004639,-7.046875,6.765625,-11.5625
503,-0.34716797,-1.395813,-0.23736572,-19.515625,10.09375,-16.921875
504,0.20507812,-1.0029907,-0.32769775,-12.28125,23.1875,-2.625
505,0.2512207,-1.0254517,-0.35284424,12.265625,13.421875,20.890625
506,-0.053222656,-1.4163208,-0.1182251,6.765625,-5.75,2.734375
507,-0.09350586,-1.274231,0.08538818,-1.96875,11.8125,10.3125
508,-0.04296875,-0.69073486,0.00018310547,1.765625,31.75,15.875
509,0.0,-0.2546997,-0.018859863,-0.8125,11.890625,15.328125
510,-0.2133789,-0.3418579,-0.010070801,1.109375,6.765625,4.859375
511,-0.100097656,-0.54522705,-0.019104004,17.65625,7.3125,-2.15625
512,-0.04296875,-0.86798096,-0.031555176,11.125,-6.515625,-6.828125
513,-0.15966797,-1.5916138,0.05218506,20.953125,-3.75,-11.140625
514,-0.203125,-1.5896606,0.13543701,-19.359375,-0.390625,9.421875
515,-0.08666992,-1.3543091,0.048034668,-22.03125,-2.359375,-2.359375
516,-0.06982422,-1.3247681,-0.15557861,-8.828125,9.5625,-11.0625
517,0.45336914,-0.80548096,-0.36798096,-5.109375,13.4375,0.03125
518,0.64697266,-0.8262329,-0.1572876,12.234375,-31.9375,2.671875
519,-0.25317383,-1.4683228,-0.11016846,-1.203125,-32.59375,-3.4375
520,-0.34326172,-1.0310669,0.027282715,-4.21875,8.203125,-1.6875
521,0.14428711,-0.51226807,0.030700684,-12.640625,7.96875,-5.6875
522,0.08251953,-0.378479,0.024108887,0.046875,-6.15625,-3.5625
523,-0.05419922,-0.53082275,0.12908936,7.578125,-11.125,3.1875
524,-0.09741211,-0.79571533,0.13494873,6.625,-7.5,5.265625
525,-0.057128906,-1.0862427,0.22845459,0.953125,-1.28125,-7.078125
526,-0.11303711,-1.2254028,0.043884277,-6.921875,3.84375,-13.40625
527,-0.05126953,-1.0640259,0.25457764,1.03125,9.296875,-9.578125
528,-0.3293457,-1.5339966,0.10784912,-0.390625,17.40625,-7.015625
529,-0.33520508,-1.2876587,-0.34454346,-32.3125,23.46875,-15.125
530,0.35375977,-0.70098877,-0.47320557,-3.765625,32.96875,1.34375
531,0.29174805,-1.284729,-0.15411377,23.953125,15.046875,28.34375
532,-0.21679688,-1.4573364,0.024353027,6.953125,-9.296875,4.703125
533,-0.079833984,-0.9470825,0.10101318,4.234375,24.59375,11.65625
534,-0.0769043,-0.553772,-0.008850098,2.046875,17.875,10.703125
535,-0.022460938,-0.41461182,-0.022033691,9.140625,2.828125,11.109375
536,-0.100097656,-0.49835205,0.008972168,10.25,-5.015625,2.9375
537,-0.14404297,-0.7178345,-0.010803223,8.09375,-9.3125,-4.125
538,-0.18237305,-1.0720825,0.11248779,12.578125,-4.0,-10.78125
539,-0.15112305,-1.3943481,-0.036193848,-6.921875,-4.0,0.453125
540,-0.06567383,-1.5090942,0.2670288,-8.921875,-7.8125,4.828125
541,-0.22143555,-1.451477,0.12542725,-26.359375,-13.21875,-6.375
542,-0.045166016,-1.0776978,-0.2053833,-7.625,12.640625,-9.15625
543,0.6879883,-0.70098877,-0.40533447,-8.609375,-6.921875,4.09375
544,0.48632812,-1.1340942,-0.062316895,21.34375,-39.8125,0.765625
545,-0.5305176,-1.5779419,-0.0012817383,8.453125,-22.703125,-2.28125
546,-0.18945312,-0.90753174,-0.017150879,-14.84375,12.8125,-0.875
547,0.092041016,-0.3965454,0.039001465,-5.03125,3.6875,-3.890625
548,0.009033203,-0.38726807,0.042175293,6.921875,-6.546875,1.515625
549,-0.07080078,-0.66192627,0.11126709,9.3125,-4.203125,2.921875
550,-0.03100586,-0.848938,0.17669678,5.046875,1.21875,3.1875
551,-0.09106445,-1.0274048,0.08441162,-14.640625,-9.921875,-3.359375
552,-0.087646484,-1.0950317,0.08343506,8.953125,16.5,-4.296875
553,-0.15844727,-1.36969,0.30633545,10.296875,13.46875,-9.359375
554,-0.48339844,-1.5493774,-0.051086426,-17.765625,14.4375,-19.578125
555,0.06591797,-1.0359497,-0.32452393,-16.65625,36.875,-2.203125
556,0.3244629,-0.9260864,-0.3303833,6.28125,17.640625,12.890625
557,-0.115478516,-1.4082642,-0.13409424,4.03125,-2.90625,7.40625
558,0.02368164,-1.2549438,0.047546387,1.71875,4.3125,4.609375
559,0.12207031,-0.897522,0.07684326,10.921875,17.90625,12.390625
560,-0.052490234,-0.4805298,0.031188965,2.984375,0.46875,15.84375
561,-0.26782227,-0.3406372,0.030700684,-2.71875,-5.59375,10.640625
562,-0.2939453,-0.5042114,0.027038574,8.515625,4.890625,-3.640625
563,-0.08129883,-0.7241821,-0.015197754,21.265625,6.515625,-7.5
564,-0.055908203,-1.3257446,-0.058898926,34.984375,13.046875,-3.84375
565,-0.1262207,-1.6394653,0.08807373,-10.25,0.75,10.96875
566,-0.107421875,-1.335022,0.16522217,-19.796875,1.28125,13.140625
567,-0.09277344,-1.2354126,-0.059631348,-18.8125,11.484375,-13.71875
568,0.30664062,-1.0127563,-0.22515869,1.078125,25.875,-8.171875
569,0.59277344,-0.9143677,-0.22564697,3.828125,-28.4375,2.234375
570,0.15429688,-1.2388306,-0.22271729,18.03125,-35.5625,2.0
571,-0.2705078,-1.2402954,0.03289795,0.15625,-17.25,-0.09375
572,-0.0041503906,-0.8699341,0.008483887,-17.9375,-3.765625,1.0
573,0.11328125,-0.4048462,0.0006713867,-6.25,-9.515625,-2.71875
574,-0.068847656,-0.33355713,0.05267334,-0.390625,-16.28125,-2.890625
575,-0.10961914,-0.59942627,0.14129639,14.578125,-4.015625,0.0
576,-0.05053711,-0.94903564,0.1383667,6.625,-1.453125,0.53125
577,-0.036865234,-1.2844849,0.12347412,-2.28125,-4.125,-9.4375
578,0.023925781,-1.250061,0.1564331,-3.5,7.65625,-8.84375
579,-0.17895508,-1.413147,0.20697021,4.421875,15.421875,-11.59375
580,-0.3696289,-1.3909302,-0.16046143,-11.421875,21.796875,-12.046875
581,0.16821289,-0.8196411,-0.37530518,-4.046875,29.375,-4.65625
582,0.28320312,-1.0171509,-0.3904419,32.203125,17.421875,20.046875
583,-0.044921875,-1.4749146,-0.1963501,17.25,-4.8125,8.234375
584,-0.020019531,-1.097229,-0.0056762695,-6.25,4.53125,12.359375
585,-0.041015625,-0.6338501,-0.045715332,-10.1875,3.28125,10.921875
586,-0.14990234,-0.36505127,-0.028137207,-9.859375,-6.75,12.796875
587,-0.12915039,-0.42608643,-0.028137207,0.515625,-2.046875,4.875
588,-0.0690918,-0.647522,-0.027893066,12.765625,0.515625,-4.1875
589,-0.078125,-0.9631958,-0.00030517578,13.828125,-7.484375,-7.984375
590,-0.21118164,-1.4465942,0.046569824,8.96875,-3.34375,-4.53125
591,-0.16918945,-1.2925415,0.05706787,-23.46875,-0.015625,8.65625
592,-0.09423828,-1.3777466,0.0836792,-20.03125,-8.140625,-2.71875
593,-0.12646484,-1.3943481,-0.10333252,-10.96875,0.78125,-12.0
594,0.42114258,-0.8530884,-0.3652954,-7.328125,14.125,-0.046875
595,0.7080078,-0.8538208,-0.1104126,12.0625,-30.234375,4.765625
596,-0.2043457,-1.508606,-0.13922119,7.90625,-37.171875,0.4375
597,-0.33251953,-1.0999146,0.038269043,-5.3125,1.921875,-3.234375
598,0.10083008,-0.6008911,0.0038452148,-11.8125,6.609375,-5.671875
599,0.099609375,-0.4072876,0.049743652,4.328125,-4.6875,-0.5625
600,-0.02709961,-0.5383911,0.10003662,8.703125,-9.46875,2.015625
601,-0.06518555,-0.72662354,0.12591553,8.40625,-3.625,4.046875
602,-0.050048828,-0.9558716,0.10882568,1.625,-2.734375,3.890625
603,-0.033691406,-1.2293091,0.08392334,-5.25,-5.8125,-7.96875
604,0.03173828,-1.2693481,0.17034912,-4.34375,-2.609375,-10.40625
605,-0.3083496,-1.6028442,0.10247803,11.9375,15.625,-13.65625
606,-0.29907227,-1.3096313,-0.17974854,-16.625,22.578125,-13.625
607,0.34057617,-0.69732666,-0.3447876,-13.484375,17.25,1.484375
608,0.22070312,-1.038147,-0.27667236,18.65625,9.921875,21.46875
609,-0.09326172,-1.4641724,-0.05645752,6.75,-3.59375,4.40625
610,-0.06201172,-1.0515747,0.02557373,1.171875,23.828125,17.359375
611,-0.016601562,-0.5442505,0.0021362305,-3.625,11.421875,10.484375
612,-0.029541016,-0.3274536,-0.0256958,-4.34375,-2.53125,9.5
613,-0.21923828,-0.5552368,0.027770996,9.59375,0.4375,1.078125
614,-0.06665039,-0.76812744,-0.0947876,10.359375,0.75,-2.453125
615,-0.021484375,-1.0374146,0.0602417,11.65625,-5.125,-8.1875
616,-0.12597656,-1.4544067,0.0048217773,-3.203125,-5.0625,-2.796875
617,-0.11669922,-1.3032837,0.17254639,-20.109375,-10.8125,8.5
618,-0.16455078,-1.409729,0.0770874,-14.640625,-10.359375,-3.734375
619,0.09838867,-1.2595825,-0.105529785,-9.328125,13.84375,1.84375
620,0.52246094,-0.82525635,-0.30377197,5.0625,3.84375,2.671875
621,0.30737305,-0.8430786,-0.07623291,0.0,-38.828125,2.078125
622,-0.0017089844,-1.4458618,-0.053771973,6.84375,-30.25,-4.015625
623,-0.1899414,-1.1585083,0.055847168,2.375,-0.859375,3.078125
624,0.040527344,-0.59698486,0.09124756,-4.9375,3.828125,-4.15625
625,0.04272461,-0.3928833,0.039733887,11.3125,1.9375,-0.203125
626,0.042236328,-0.43121338,0.09564209,11.796875,-7.28125,4.203125
627,0.0031738281,-0.6604614,0.11663818,15.40625,-1.578125,7.96875
628,-0.005859375,-0.9729614,0.08416748,2.5625,-2.6875,3.296875
629,0.06298828,-1.2481079,0.08514404,-4.8125,-4.25,-14.953125
630,0.01953125,-1.24469,0.19207764,-10.515625,-3.25,-10.90625
631,-0.33740234,-1.534729,0.012878418,-11.71875,4.03125,-14.53125
632,-0.22460938,-1.3052368,-0.17608643,-16.515625,23.9375,-17.03125
633,0.3388672,-0.8911743,-0.284729,-7.4375,29.890625,5.0625
634,0.122802734,-1.1416626,-0.29864502,-1.6875,5.296875,18.90625
635,0.122802734,-1.3987427,-0.02545166,-2.703125,-12.828125,4.109375
636,0.14453125,-1.0210571,0.15008545,12.65625,15.515625,14.78125
637,0.045410156,-0.5354614,-0.027648926,8.125,7.953125,10.703125
638,-0.16064453,-0.3110962,0.010192871,4.3125,-7.125,11.1875
639,-0.27539062,-0.50250244,-0.07086182,-2.109375,-4.203125,6.265625
640,-0.080566406,-0.64923096,-0.034973145,6.78125,-4.40625,1.09375
641,0.055419922,-1.003479,0.10882568,14.6875,-1.4375,-12.546875
642,-0.13354492,-1.6870728,0.08929443,0.1875,-9.328125,-10.640625
643,-0.1784668,-1.2527466,0.2736206,-32.96875,-10.1875,8.484375
644,-0.0031738281,-1.2564087,0.054870605,-22.03125,-4.390625,-7.71875
645,0.1796875,-1.239563,-0.17340088,-6.046875,0.015625,-6.625
646,0.55566406,-1.0039673,-0.26861572,8.140625,-2.09375,0.0
647,0.2993164,-1.1738892,-0.025939941,6.75,-28.359375,-3.515625
648,-0.29541016,-1.404602,-0.03717041,-5.90625,-19.59375,0.625
649,-0.16259766,-0.87384033,0.0692749,-9.078125,10.40625,-5.75
650,0.063964844,-0.472229,0.09246826,4.109375,10.125,-8.5625
651,0.072021484,-0.40216064,0.089782715,7.21875,1.203125,1.125
652,0.087646484,-0.48028564,0.07562256,5.171875,-4.296875,1.25
653,-0.02319336,-0.67144775,0.15740967,13.171875,-2.015625,5.0625
654,-0.06274414,-1.1365356,0.2177124,-0.921875,-10.015625,0.1875
655,-0.096191406,-1.4290161,0.11810303,-1.34375,8.0,-11.5625
656,-0.11254883,-0.99346924,0.22894287,-7.484375,-3.25,-8.6875
657,-0.3425293,-1.3911743,0.10345459,-12.171875,6.296875,-14.9375
658,0.021972656,-1.3357544,-0.082092285,-12.71875,20.28125,-4.453125
659,0.3552246,-0.87335205,-0.3501587,-17.65625,5.265625,11.28125
660,0.22827148,-1.218811,-0.089660645,17.96875,5.859375,21.09375
661,-0.012939453,-1.4346313,0.051696777,-1.921875,-13.1875,12.390625
662,0.009765625,-0.94732666,0.15423584,26.6875,22.921875,20.609375
663,-0.052246094,-0.585022,0.03314209,10.5,7.75,15.6875
664,-0.06616211,-0.37774658,0.00579834,8.703125,0.28125,7.671875
665,-0.12109375,-0.49127197,0.06341553,16.390625,3.09375,-0.3125
666,0.027832031,-0.6663208,-0.030578613,8.453125,-1.375,-1.546875
667,-0.024902344,-1.0437622,0.08074951,7.90625,-15.375,-11.859375
668,-0.16308594,-1.6004028,0.031677246,-5.359375,-14.828125,-10.546875
669,0.067871094,-1.4588013,0.31463623,-24.234375,-15.9375,2.28125
670,-0.009765625,-1.274231,0.08734131,-21.296875,-15.125,-5.171875
671,0.12963867,-1.112854,-0.28936768,2.125,7.28125,-1.578125
672,0.73095703,-0.8711548,-0.27496338,-5.484375,-28.765625,5.9375
673,0.25097656,-1.3674927,-0.04058838,13.8125,-32.359375,-0.71875
674,-0.5031738,-1.3355103,-0.046447754,-3.046875,-21.4375,3.109375
675,-0.016113281,-0.67144775,0.02947998,-4.75,11.75,-3.390625
676,0.09301758,-0.45196533,0.051940918,0.90625,0.984375,-4.015625
677,0.03955078,-0.4487915,0.12371826,4.5625,-5.640625,-2.265625
678,0.111572266,-0.6174927,0.15325928,13.015625,-2.234375,6.90625
679,-0.011230469,-0.77716064,0.0758667,4.4375,-4.859375,10.34375
680,0.02734375,-1.1548462,0.12249756,-5.59375,-3.375,0.734375
681,0.087402344,-1.5584106,0.19378662,3.375,5.921875,-14.390625
682,-0.18945312,-1.3342896,0.3324585,2.75,9.578125,-13.640625
683,-0.4345703,-1.381897,-0.3496704,-42.125,8.28125,-19.8125
684,0.4584961,-0.8250122,-0.2954712,-6.84375,12.84375,-9.765625
685,0.46362305,-1.1118774,-0.112854004,11.34375,13.59375,16.328125
686,-0.13842773,-1.4890747,-0.07965088,-3.84375,-8.125,5.453125
687,-0.111083984,-1.1296997,0.07489014,-2.828125,14.359375,5.96875
688,-0.00048828125,-0.71295166,0.04949951,9.4375,30.96875,8.625
689,0.031982422,-0.44488525,-0.0076293945,12.375,14.453125,11.125
690,-0.057128906,-0.44610596,0.009460449,6.34375,1.53125,4.703125
691,-0.09814453,-0.6026001,-0.027160645,5.546875,-5.203125,-1.484375
692,0.020019531,-0.6604614,0.109313965,7.96875,-0.703125,-6.3125
693,-0.09326172,-1.4163208,0.05340576,23.46875,-2.53125,-13.421875
694,-0.12133789,-1.6904907,0.18865967,-15.15625,-12.125,0.578125
695,-0.14013672,-1.3858032,0.25653076,-6.921875,2.78125,4.296875
696,-0.17236328,-1.1863403,-0.008850098,-14.375,6.078125,-14.515625
697,0.17260742,-0.8845825,-0.26226807,3.21875,26.578125,-9.828125
698,0.5258789,-0.58306885,-0.25201416,-13.140625,-26.5,-0.59375
699,0.17163086,-1.2678833,-0.059387207,22.90625,-30.859375,-2.859375
700,-0.39331055,-1.5525513,0.11517334,-9.078125,-12.984375,3.453125
701,-0.11791992,-0.8779907,0.05731201,-22.15625,17.546875,0.671875
702,0.030761719,-0.3435669,0.0680542,-7.078125,14.25,-6.71875
703,0.028076172,-0.34991455,0.061950684,6.21875,3.796875,-0.78125
704,0.01953125,-0.6433716,0.14935303,17.859375,1.09375,5.640625
705,-0.00390625,-0.8880005,0.17279053,13.734375,0.421875,5.53125
706,-0.017089844,-1.0791626,0.19232178,-1.40625,-4.265625,2.765625
707,-0.0026855469,-1.2044067,0.04827881,-1.234375,1.171875,-7.015625
708,-0.20800781,-1.329895,0.29852295,-0.203125,10.484375,-14.890625
709,-0.4091797,-1.5735474,-0.008850098,-26.171875,11.734375,-18.890625
710,0.17529297,-0.90704346,-0.30596924,-21.8125,25.609375,-8.578125
711,0.2421875,-0.9990845,-0.22442627,12.859375,20.21875,15.53125
712,-0.07421875,-1.5200806,-0.0491333,6.21875,-7.0,5.390625
713,0.060302734,-1.138977,0.07513428,10.0,9.453125,12.53125
714,0.004638672,-0.70318604,0.070739746,18.625,16.984375,11.4375
715,-0.07397461,-0.4414673,0.023132324,1.78125,-3.234375,13.75
716,-0.16015625,-0.43170166,0.04827881,-1.859375,-3.453125,5.265625
717,-0.11791992,-0.5310669,0.0099487305,6.109375,-1.28125,0.078125
718,-0.09643555,-0.79693604,0.097839355,13.265625,0.140625,-9.8125
719,-0.23657227,-1.3359985,0.09075928,15.421875,-0.578125,-11.28125
720,-0.037353516,-1.3225708,0.29779053,-10.75,2.375,3.46875
721,-0.012939453,-1.435852,0.12005615,-10.75,-7.15625,1.828125
722,-0.21386719,-1.420227,-0.07672119,2.4375,4.515625,-4.109375
723,0.48413086,-0.87628174,-0.4043579,-2.046875,8.921875,-0.140625
724,0.52319336,-1.1675415,-0.09918213,12.953125,-30.1875,-6.875
725,-0.46166992,-1.5427856,-0.06890869,14.375,-23.59375,-9.5
726,-0.17456055,-1.0090942,0.03363037,-10.25,10.46875,-3.25
727,0.09375,-0.4854126,0.05291748,-5.4375,8.5,-5.640625
728,0.009033203,-0.35992432,0.031188965,6.328125,-2.0625,-2.859375
729,0.0234375,-0.5647583,0.11029053,10.71875,-0.875,4.09375
730,-0.044677734,-0.77789307,0.09661865,5.96875,-4.109375,7.421875
731,-0.05883789,-1.071106,0.14544678,-5.828125,-1.71875,1.921875
732,-0.052246094,-1.3213501,0.061706543,-15.375,5.375,-9.265625
733,-0.12524414,-1.1104126,0.2994995,-4.25,-0.125,-10.453125
734,-0.36669922,-1.4263306,0.051696777,-18.328125,6.8125,-9.859375
735,-0.064941406,-1.1294556,-0.28155518,-32.9375,21.84375,-9.484375
736,0.42016602,-0.8352661,-0.41314697,10.3125,10.59375,16.21875
737,-0.083740234,-1.6011353,-0.05987549,14.796875,-10.734375,17.65625
738,-0.123291016,-1.2700806,0.09613037,7.84375,-0.40625,14.546875
739,0.04663086,-0.8401489,0.057800293,19.65625,21.828125,11.890625
740,-0.08984375,-0.5327759,0.007751465,14.375,6.859375,14.671875
741,-0.057861328,-0.39801025,0.04876709,9.65625,2.9375,12.96875
742,-0.088134766,-0.522522,-0.03668213,10.03125,0.578125,3.796875
743,-0.10473633,-0.6470337,0.012878418,11.84375,-0.890625,-6.484375
744,-0.23413086,-1.0186157,-0.02911377,26.75,3.765625,-11.109375
745,-0.092041016,-1.508606,-0.045959473,3.1875,-0.6875,-0.171875
746,0.21704102,-1.6397095,0.21942139,-10.75,-7.65625,10.578125
747,-0.021240234,-1.4331665,-0.14093018,-26.125,-15.25,-3.421875
748,0.123535156,-0.989563,-0.24273682,0.1875,7.921875,-3.34375
749,0.47729492,-0.89849854,-0.3616333,-3.515625,-24.921875,1.6875
750,-0.017089844,-1.2356567,-0.15484619,2.390625,-29.359375,-7.109375
751,-0.42871094,-1.1843872,0.035827637,-4.03125,0.953125,-7.453125
752,0.025146484,-0.8225708,-0.02178955,-10.28125,12.5625,-6.296875
753,0.091552734,-0.4890747,0.027282715,-0.28125,10.390625,-3.828125
754,0.050048828,-0.38238525,0.08685303,4.234375,-0.203125,-0.21875
755,0.0073242188,-0.6489868,0.12689209,5.6875,-1.484375,10.515625
756,-0.08569336,-1.0081177,0.14764404,-2.65625,-1.15625,9.171875
757,-0.111816406,-1.2573853,0.061950684,-11.21875,-0.59375,-3.703125
758,0.13769531,-1.0186157,0.08343506,-2.671875,7.546875,-1.984375
759,-0.12841797,-1.451477,0.37786865,1.0,7.859375,-14.703125
